time,seconds_elapsed,z,y,x
1761379945704395500,0.1053955078125,0.041268374770879745,0.006295176222920418,-0.02028445526957512
1761379945714425000,0.115425048828125,0.04300038143992424,-0.003697166917845607,-0.013872702606022358
1761379945724469800,0.1254697265625,0.042517419904470444,-0.007960566319525242,-0.0017653139075264335
1761379945734494200,0.135494140625,0.036505360156297684,-0.003663859097287059,0.00592879019677639
1761379945744498700,0.145498779296875,0.03135930374264717,0.005146056413650513,0.014871937222778797
1761379945754546700,0.155546630859375,0.02476435713469982,0.009692572988569736,0.019551685079932213
1761379945764572000,0.165572021484375,0.018652373924851418,0.012240620329976082,0.014222434721887112
1761379945774598000,0.175597900390625,0.01836925745010376,0.01916864514350891,0.0038970138411968946
1761379945784623400,0.185623291015625,0.016004402190446854,0.014722052030265331,-0.005745597183704376
1761379945794648300,0.1956484375,0.013156584464013577,0.00816041324287653,-0.011990811675786972
1761379945804674300,0.20567431640625,0.013239854015409946,0.00472970912232995,-0.014405627734959126
1761379945814700000,0.215699951171875,0.017469946295022964,0.003014356829226017,-0.014438935555517673
1761379945824685800,0.225685791015625,0.023398736491799355,0.012057427316904068,-0.012856814078986645
1761379945834738400,0.235738525390625,0.02651301585137844,0.026729516685009003,-0.008010528050363064
1761379945844777500,0.245777587890625,0.023915007710456848,0.028777947649359703,-0.002364854561164975
1761379945854803500,0.255803466796875,0.0193684920668602,0.014222434721887112,0.0002831163874361664
1761379945864828200,0.265828125,0.015454824082553387,-0.007627488579601049,0.005612365901470184
1761379945874854700,0.275854736328125,0.013856048695743084,-0.023898353800177574,0.006678215693682432
1761379945884881200,0.285881103515625,0.009059724397957325,-0.03389069810509682,0.0011158116394653916
1761379945894905900,0.29590576171875,0.003946975339204073,-0.03602239489555359,-0.011424578726291656
1761379945904932000,0.30593212890625,0.004713055212050676,-0.024897588416934013,-0.026196591556072235
1761379945914960600,0.315960693359375,0.011824272572994232,0.005745597183704376,-0.036971669644117355
1761379945924983000,0.325983154296875,0.01878560520708561,0.03385739028453827,-0.03555608540773392
1761379945934990300,0.335990234375,0.021067189052700996,0.037721093744039536,-0.017886294052004814
1761379945945034000,0.346033935546875,0.01665390469133854,0.018102794885635376,0.012740237638354301
1761379945955038500,0.35603857421875,0.011741003021597862,-0.006661561783403158,0.0424174964427948
1761379945965083100,0.366083251953125,0.011541156098246574,-0.02346535213291645,0.058838244527578354
1761379945975116500,0.376116455078125,0.015155053697526455,-0.02712921053171158,0.0576891265809536
1761379945985132000,0.386132080078125,0.02213303931057453,-0.01925191469490528,0.03552277758717537
1761379945995160300,0.396160400390625,0.02997702918946743,-0.00626186840236187,0.003147588111460209
1761379946005166800,0.406166748046875,0.036921706050634384,0.00954268779605627,-0.019102029502391815
1761379946015213600,0.416213623046875,0.03958633169531822,0.022616002708673477,-0.02008460834622383
1761379946025241900,0.426241943359375,0.03134264796972275,0.02617993764579296,-0.007627488579601049
1761379946035264300,0.43626416015625,0.01720348373055458,0.02229957841336727,0.013606240041553974
1761379946045271800,0.446271728515625,0.008227028883993626,0.009276225231587887,0.030793070793151855
1761379946055326000,0.456325927734375,0.005862174555659294,-0.00584552064538002,0.03530627861618996
1761379946065341400,0.466341552734375,0.00551244243979454,-0.012906775809824467,0.02463112585246563
1761379946075366000,0.476365966796875,0.0054458267986774445,-0.015421516261994839,0.002881125546991825
1761379946085392600,0.486392578125,0.0022815850097686052,-0.0160377100110054,-0.02609666809439659
1761379946095418600,0.496418701171875,-0.0002831163874361664,-0.007760719861835241,-0.05369218811392784
1761379946105425200,0.506425048828125,-0.003713820828124881,-0.0025813551619648933,-0.06521669030189514
1761379946115470600,0.516470703125,-0.012490428984165192,0.0022149693686515093,-0.05890486016869545
1761379946125499600,0.526499755859375,-0.02116711251437664,0.012090735137462616,-0.04000267758965492
1761379946135500500,0.53650048828125,-0.02901110239326954,0.022482771426439285,-0.017303407192230225
1761379946145545700,0.546545654296875,-0.029793836176395416,0.024348009377717972,0.005495788529515266
1761379946155571500,0.556571533203125,-0.02341539040207863,0.016187595203518867,0.02075076475739479
1761379946165597400,0.566597412109375,-0.01392266433686018,0.006311830133199692,0.02551378309726715
1761379946175623400,0.57662353515625,-0.006828100886195898,-0.007361026015132666,0.018718989565968513
1761379946185648400,0.5866484375,-0.006428407039493322,-0.01778637059032917,0.003347434801980853
1761379946195674400,0.59667431640625,-0.008526799269020557,-0.018335949629545212,-0.017819678410887718
1761379946205690600,0.606690673828125,-0.010491959750652313,-0.007311064284294844,-0.04133499041199684
1761379946215725800,0.616725830078125,-0.008926493115723133,0.010192189365625381,-0.05427507683634758
1761379946225751300,0.626751220703125,-0.009026416577398777,0.023831738159060478,-0.04971190541982651
1761379946235776800,0.63677685546875,-0.012240620329976082,0.029160987585783005,-0.03230857476592064
1761379946245828900,0.646828857421875,-0.014938552863895893,0.02036772482097149,-0.003597243456169963
1761379946255828500,0.656828369140625,-0.020967265591025352,-0.003713820828124881,0.025996744632720947
1761379946265854000,0.66685400390625,-0.024181470274925232,-0.020933957770466805,0.044116195291280746
1761379946275879700,0.676879638671875,-0.02103388123214245,-0.029360834509134293,0.04178464785218239
1761379946285885000,0.686885009765625,-0.014788667671382427,-0.030176876112818718,0.022366194054484367
1761379946295931400,0.696931396484375,-0.008909839205443859,-0.01555474754422903,-0.008726646192371845
1761379946305958000,0.7069580078125,-0.003047664649784565,0.0044799004681408405,-0.034290388226509094
1761379946315982800,0.71698291015625,-0.0026146629825234413,0.020184531807899475,-0.04418281093239784
1761379946326010600,0.7270107421875,-0.004296707455068827,0.02246611751616001,-0.040102601051330566
1761379946336034300,0.737034423828125,-0.007194486912339926,0.010991577059030533,-0.029460757970809937
1761379946346059800,0.747059814453125,-0.014055895619094372,-0.011224731802940369,-0.014805321581661701
1761379946356084500,0.75708447265625,-0.023981623351573944,-0.02604670636355877,-0.007111217360943556
1761379946366110700,0.76711083984375,-0.029843797907233238,-0.02379843033850193,-0.008476837538182735
1761379946376136400,0.777136474609375,-0.02687940187752247,-0.006828100886195898,-0.018485834822058678
1761379946386162200,0.787162109375,-0.02313227392733097,0.014538859017193317,-0.033674195408821106
1761379946396187600,0.797187744140625,-0.016520673409104347,0.027712097391486168,-0.043649885803461075
1761379946406192600,0.807192626953125,-0.008060489781200886,0.02826167643070221,-0.03890352323651314
1761379946416222500,0.817222412109375,-0.0007494257297366858,0.01653732731938362,-0.0222163088619709
1761379946426267000,0.827266845703125,0.004796324763447046,-0.004146822262555361,-0.0016653904458507895
1761379946436274400,0.8372744140625,0.00929287914186716,-0.022232962772250175,0.017686447128653526
1761379946446329900,0.847329833984375,0.011824272572994232,-0.03598908707499504,0.030443338677287102
1761379946456324900,0.857324951171875,0.007277756463736296,-0.042733918875455856,0.030676493421196938
1761379946466368000,0.867367919921875,-0.0016320826252922416,-0.03682178258895874,0.013772779144346714
1761379946476393200,0.877393310546875,-0.004763016942888498,-0.015787901356816292,-0.013939318247139454
1761379946486398200,0.887398193359375,-0.002464778022840619,0.005795558914542198,-0.03852048143744469
1761379946496444700,0.897444580078125,0.003247511340305209,0.016670558601617813,-0.04738035798072815
1761379946506470400,0.907470458984375,0.012174004688858986,0.009592649526894093,-0.03717151656746864
1761379946516496100,0.91749609375,0.019385145977139473,-0.008093797601759434,-0.014055895619094372
1761379946526521600,0.927521484375,0.024314701557159424,-0.02363189123570919,0.010425344109535217
1761379946536547300,0.93754736328125,0.024231432005763054,-0.030343415215611458,0.027145864441990852
1761379946546572800,0.94757275390625,0.025647012516856194,-0.028278330340981483,0.03735470771789551
1761379946556598500,0.9575986328125,0.022782541811466217,-0.022399501875042915,0.03892017528414726
1761379946566624300,0.967624267578125,0.016603942960500717,-0.011341309174895287,0.03114280290901661
1761379946576650000,0.97764990234375,0.01144123263657093,-0.002364854561164975,0.018385911360383034
1761379946586644200,0.987644287109375,0.007644142489880323,0.0021150459069758654,0.0016487365355715156
1761379946596701200,0.997701171875,0.006744831334799528,0.0006161945057101548,-0.02166672982275486
1761379946606727000,1.007726806640625,0.008476837538182735,-0.006694869603961706,-0.03833729028701782
1761379946616752600,1.017752685546875,0.011091500520706177,-0.009009762667119503,-0.0473470501601696
1761379946626778000,1.027778076171875,0.010941615328192711,-0.0061785988509655,-0.04956202208995819
1761379946636804000,1.03780419921875,0.010092265903949738,-0.008593414910137653,-0.04743032157421112
1761379946646829800,1.047829833984375,0.008193721063435078,-0.021516844630241394,-0.036505360156297684
1761379946656855000,1.05785498046875,0.004246745724231005,-0.03182561323046684,-0.028794601559638977
1761379946666880800,1.067880859375,0.0015654671005904675,-0.03690505400300026,-0.025230666622519493
1761379946676906500,1.077906494140625,-0.0021150459069758654,-0.03765447810292244,-0.02997702918946743
1761379946686932500,1.087932373046875,-0.006211906671524048,-0.02274923399090767,-0.03593912720680237
1761379946696959200,1.097959228515625,-0.005978751927614212,-0.007960566319525242,-0.03352431207895279
1761379946706983700,1.107983642578125,-0.008993108756840229,-0.0012656967155635357,-0.027245787903666496
1761379946717009000,1.1180087890625,-0.006378445774316788,0.005529096350073814,-0.01908537559211254
1761379946727035600,1.12803564453125,0.0021816615480929613,0.0025647012516856194,-0.01350631657987833
1761379946737029600,1.138029541015625,0.008709992282092571,-0.010491959750652313,-0.007244448643177748
1761379946747086800,1.1480869140625,0.011008230969309807,-0.02008460834622383,-0.0020151224453002214
1761379946757112000,1.158112060546875,0.0075941807590425014,-0.025247320532798767,0.0044465926475822926
1761379946767155000,1.168155029296875,-0.0000666156192892231,-0.018319295719265938,0.0075775268487632275
1761379946777163300,1.178163330078125,0.00023315467115025967,-0.0014488897286355495,0.00857676099985838
1761379946787189500,1.188189453125,0.006328484043478966,0.007261102553457022,0.006411753129214048
1761379946797214700,1.198214599609375,0.01119142398238182,0.009176301769912243,0.004030244890600443
1761379946807244800,1.208244873046875,0.014472243376076221,0.006528330501168966,0.007444295566529036
1761379946817267000,1.218266845703125,0.015238323248922825,-0.003247511340305209,0.01308996882289648
1761379946827273700,1.228273681640625,0.010108919814229012,-0.016770482063293457,0.011824272572994232
1761379946837329700,1.23832958984375,0.007327718194574118,-0.01475535985082388,0.0007660796400159597
1761379946847343000,1.248343017578125,0.010358728468418121,-0.0017320060869678855,-0.017270099371671677
1761379946857369000,1.258369140625,0.013706163503229618,0.017769716680049896,-0.035755932331085205
1761379946867395600,1.2683955078125,0.011890888214111328,0.0308929942548275,-0.04679747298359871
1761379946877420300,1.278420166015625,0.0022149693686515093,0.025813551619648933,-0.037254784256219864
1761379946887445800,1.28844580078125,-0.005612365901470184,0.02011791616678238,-0.008127105422317982
1761379946897471500,1.298471435546875,-0.009742534719407558,0.02045099437236786,0.027812020853161812
1761379946907497000,1.3084970703125,-0.011308001354336739,0.018818913027644157,0.052543070167303085
1761379946917522000,1.31852197265625,-0.009476072154939175,0.02642974629998207,0.060187213122844696
1761379946927549000,1.328548828125,-0.005279287695884705,0.03247511386871338,0.052826184779405594
1761379946937553700,1.3385537109375,-0.0037471286486834288,0.03182561323046684,0.03537289425730705
1761379946947611100,1.348611083984375,-0.0018985451897606254,0.02989375963807106,0.014921898953616619
1761379946957625600,1.35862548828125,0.002947741188108921,0.023315466940402985,-0.002997702918946743
1761379946967633400,1.36863330078125,0.011790964752435684,0.020717456936836243,-0.014788667671382427
1761379946977676800,1.3786767578125,0.021466882899403572,0.020234493538737297,-0.009326186962425709
1761379946987693800,1.38869384765625,0.022566040977835655,0.008293644525110722,0.0038637060206383467
1761379946997728300,1.398728271484375,0.021133804693818092,-0.006844754796475172,0.015038476325571537
1761379947007753700,1.408753662109375,0.01916864514350891,-0.020983919501304626,0.01991806924343109
1761379947017779700,1.41877978515625,0.010641844943165779,-0.031076187267899513,0.01219065859913826
1761379947027805400,1.428805419921875,-0.0018152756383642554,-0.03369085118174553,-0.0022482771892100573
1761379947037830400,1.438830322265625,-0.008876531384885311,-0.02687940187752247,-0.02329881303012371
1761379947047856400,1.4488564453125,-0.012407159432768822,-0.014805321581661701,-0.04041902720928192
1761379947057882400,1.45888232421875,-0.014821975491940975,-0.0020650841761380434,-0.04884590208530426
1761379947067908400,1.468908447265625,-0.009742534719407558,0.01712021417915821,-0.04521535336971283
1761379947077934600,1.4789345703125,-0.0075109112076461315,0.026196591556072235,-0.03039337694644928
1761379947087960300,1.488960205078125,-0.008260336704552174,0.020567571744322777,-0.009725880809128284
1761379947097946000,1.498946044921875,-0.008560107089579105,0.003097626380622387,0.01308996882289648
1761379947108010200,1.50901025390625,-0.010874999687075615,-0.017753062769770622,0.03244180604815483
1761379947118015200,1.51901513671875,-0.01325650792568922,-0.02867802418768406,0.0461646243929863
1761379947128062000,1.52906201171875,-0.01778637059032917,-0.023998277261853218,0.05908805504441261
1761379947138067200,1.539067138671875,-0.02213303931057453,-0.010675152763724327,0.06541653722524643
1761379947148114200,1.5491142578125,-0.025064127519726753,0.00004996171628590673,0.06638246774673462
1761379947158139100,1.55913916015625,-0.01828598789870739,0.01160777173936367,0.06591615825891495
1761379947168177200,1.56917724609375,-0.008093797601759434,0.016254210844635963,0.0605369433760643
1761379947178190300,1.5791904296875,-0.0005995405954308808,0.01350631657987833,0.060969945043325424
1761379947188215800,1.5892158203125,0.004363323096185923,0.004679747391492128,0.06674885004758835
1761379947198244000,1.599244140625,0.00601205974817276,-0.007977220229804516,0.0690803974866867
1761379947208266800,1.609266845703125,0.005129402503371239,-0.008210374973714352,0.06554976850748062
1761379947218274000,1.619274169921875,0.003397396532818675,-0.00008326952229253948,0.048945825546979904
1761379947228324400,1.629324462890625,0.002781202085316181,0.00712787127122283,0.02103388123214245
1761379947238344700,1.6393447265625,0.004263399634510279,0.01102488487958908,-0.01670386642217636
1761379947248370400,1.649370361328125,0.010575229302048683,0.011990811675786972,-0.04724712669849396
1761379947258395600,1.659395751953125,0.01185758039355278,0.009226263500750065,-0.05753923952579498
1761379947268400400,1.669400390625,0.0074942572973668575,0.003364088712260127,-0.0420677624642849
1761379947278447400,1.679447265625,-0.0015821210108697414,-0.009992342442274094,-0.01615428738296032
1761379947288472800,1.689472900390625,-0.00799387414008379,-0.0222163088619709,0.0075941807590425014
1761379947298481200,1.699481201171875,-0.010675152763724327,-0.0271791722625494,0.01753656193614006
1761379947308524300,1.709524169921875,-0.011258039623498917,-0.022849157452583313,0.012074081227183342
1761379947318549800,1.7195498046875,-0.009859112091362476,-0.011074846610426903,-0.004130168352276087
1761379947328575500,1.729575439453125,-0.00489624822512269,0.0020484302658587694,-0.02421477809548378
1761379947338602000,1.73960205078125,0.002781202085316181,0.006478368770331144,-0.038137443363666534
1761379947348614400,1.749614501953125,0.007261102553457022,0.0010658499086275697,-0.04141826182603836
1761379947358652200,1.759652099609375,0.008759954012930393,-0.015704631805419922,-0.03562270104885101
1761379947368678400,1.769678466796875,0.00679479306563735,-0.032924771308898926,-0.02889452502131462
1761379947378704000,1.779703857421875,0.0019151991000398993,-0.04058556631207466,-0.02045099437236786
1761379947388729000,1.78972900390625,-0.008127105422317982,-0.034040581434965134,-0.01761983148753643
1761379947398755000,1.799755126953125,-0.014855283312499523,-0.011341309174895287,-0.013139930553734303
1761379947408780800,1.80978076171875,-0.01665390469133854,0.012806852348148823,-0.002797855995595455
1761379947418806500,1.819806640625,-0.021017227321863174,0.022116385400295258,0.008343606255948544
1761379947428844500,1.829844482421875,-0.02822836861014366,0.012656968086957932,0.01682044379413128
1761379947438858000,1.83985791015625,-0.033257849514484406,-0.004180130083113909,0.012906775809824467
1761379947448883500,1.849883544921875,-0.0316590741276741,-0.009176301769912243,0.002847817726433277
1761379947458909400,1.859909423828125,-0.027895290404558182,-0.004946209955960512,-0.009259571321308613
1761379947468930000,1.869929931640625,-0.021650075912475586,0.004113514441996813,-0.01720348373055458
1761379947478962200,1.879962158203125,-0.015321592800319195,0.015055130235850811,-0.0144222816452384
1761379947488986400,1.889986328125,-0.007427641656249762,0.02141692116856575,-0.005279287695884705
1761379947499001000,1.9000009765625,-0.0017320060869678855,0.009825804270803928,0.01039203628897667
1761379947509038300,1.910038330078125,0.0014821975491940975,-0.015971094369888306,0.024114854633808136
1761379947519063300,1.920063232421875,0.0021483537275344133,-0.0391533300280571,0.032208651304244995
1761379947529089000,1.930089111328125,0.004180130083113909,-0.04887920990586281,0.02617993764579296
1761379947539114800,1.94011474609375,0.006594946142286062,-0.04240084066987038,0.0075608729384839535
1761379947549140000,1.950139892578125,0.007794027682393789,-0.024614471942186356,-0.01607101783156395
1761379947559166000,1.960166015625,0.004979517310857773,-0.00857676099985838,-0.03110949508845806
1761379947569192000,1.97019189453125,0.00044965543202124536,0.0026146629825234413,-0.03360757976770401
1761379947579220500,1.980220458984375,-0.003297473071143031,-0.0002664624771568924,-0.022616002708673477
1761379947589202200,1.9902021484375,-0.008893185295164585,-0.01828598789870739,-0.009659265168011189
1761379947599266800,2.000266845703125,-0.010408690199255943,-0.03865371271967888,-0.004996171221137047
1761379947609275400,2.010275390625,-0.008360260166227818,-0.04743032157421112,-0.013556278310716152
1761379947619331000,2.0203310546875,-0.00954268779605627,-0.04233422502875328,-0.030010337010025978
1761379947629328000,2.030327880859375,-0.00970922689884901,-0.026529669761657715,-0.043316807597875595
1761379947639371500,2.04037158203125,-0.005645673722028732,-0.005745597183704376,-0.04418281093239784
1761379947649397000,2.05039697265625,-0.003064318560063839,0.011491194367408752,-0.027995213866233826
1761379947659422700,2.060422607421875,-0.0013323123566806316,0.026995979249477386,0.0018985451897606254
1761379947669420300,2.070420166015625,0.004763016942888498,0.02981049008667469,0.0358225479722023
1761379947679487700,2.08048779296875,0.010575229302048683,0.01342304702848196,0.06506680697202682
1761379947689499600,2.090499755859375,0.009009762667119503,-0.014938552863895893,0.07977220416069031
1761379947699486500,2.100486572265625,0.006245214492082596,-0.033590927720069885,0.08062155544757843
1761379947709551400,2.11055126953125,-0.002781202085316181,-0.039553023874759674,0.06574961543083191
1761379947719577000,2.1205771484375,-0.014805321581661701,-0.03538954630494118,0.03190888091921806
1761379947729583000,2.1305830078125,-0.016837097704410553,-0.01678713597357273,-0.012407159432768822
1761379947739628300,2.140628173828125,-0.010075611993670464,0.008027181960642338,-0.05006163939833641
1761379947749654000,2.150654052734375,-0.0014655436389148235,0.03192553669214249,-0.06711523979902267
1761379947759679700,2.1606796875,-0.0010658499086275697,0.037388015538454056,-0.05793893337249756
1761379947769705200,2.170705322265625,-0.006145291030406952,0.02831163816154003,-0.02889452502131462
1761379947779731000,2.18073095703125,-0.014555512927472591,0.01055857539176941,0.010825037956237793
1761379947789756700,2.190756591796875,-0.02521401271224022,-0.010891653597354889,0.045981429517269135
1761379947799765200,2.20076513671875,-0.030593223869800568,-0.030260145664215088,0.06938016414642334
1761379947809808000,2.210807861328125,-0.025280628353357315,-0.04020252451300621,0.06966328620910645
1761379947819833900,2.220833740234375,-0.01425574254244566,-0.0333244651556015,0.0482463613152504
1761379947829838300,2.23083837890625,-0.0009159647743217647,-0.015055130235850811,0.013473008759319782
1761379947839885000,2.240885009765625,0.004763016942888498,0.004280053544789553,-0.01933518424630165
1761379947849912000,2.250912109375,0.0038637060206383467,0.016354134306311607,-0.035256315022706985
1761379947859916500,2.26091650390625,-0.0016986982664093375,0.02588016726076603,-0.027079248800873756
1761379947869947400,2.270947509765625,-0.005245979875326157,0.03169238194823265,-0.0011491194600239396
1761379947879988700,2.28098876953125,-0.007427641656249762,0.035123083740472794,0.041601452976465225
1761379947890015500,2.291015380859375,-0.010941615328192711,0.028578100726008415,0.08896516263484955
1761379947900018200,2.30101806640625,-0.014355666004121304,0.013356431387364864,0.12483767420053482
1761379947910065000,2.31106494140625,-0.007027947809547186,-0.006894716527312994,0.13887691497802734
1761379947920090400,2.32109033203125,0.0037304747384041548,-0.019468415528535843,0.12976722419261932
1761379947930116000,2.3311162109375,0.01022549718618393,-0.027695443481206894,0.09919065982103348
1761379947940141600,2.3411416015625,0.01632082648575306,-0.02321554347872734,0.05753923952579498
1761379947950167600,2.35116748046875,0.0226659644395113,-0.0075608729384839535,0.015571401454508305
1761379947960193000,2.361193115234375,0.026812786236405373,0.011674387380480766,-0.019818147644400597
1761379947970222000,2.37122216796875,0.026862747967243195,0.029910413548350334,-0.03653866797685623
1761379947980247600,2.38124755859375,0.02111715078353882,0.041135143488645554,-0.03627220541238785
1761379947990267000,2.391266845703125,0.01308996882289648,0.03693836182355881,-0.028378253802657127
1761379948000274700,2.401274658203125,0.008260336704552174,0.019651608541607857,-0.01895214430987835
1761379948010329900,2.411329833984375,0.005645673722028732,0.002847817726433277,-0.014555512927472591
1761379948020347400,2.421347412109375,0.0044799004681408405,-0.009476072154939175,-0.012207312509417534
1761379948030355200,2.431355224609375,0.0011324655497446656,-0.015155053697526455,-0.014805321581661701
1761379948040398600,2.441398681640625,-0.003114280290901661,-0.010941615328192711,-0.02086734212934971
1761379948050424300,2.45142431640625,-0.0015987749211490154,0.0011990811908617616,-0.026995979249477386
1761379948060449800,2.46144970703125,0.0015987749211490154,0.01803617924451828,-0.032092075794935226
1761379948070475800,2.471475830078125,0.005862174555659294,0.0338074266910553,-0.027478942647576332
1761379948080501200,2.481501220703125,0.011741003021597862,0.03502316027879715,-0.013023353181779385
1761379948090527500,2.491527587890625,0.020301109179854393,0.02354862168431282,0.005878828465938568
1761379948100554500,2.501554443359375,0.02659628540277481,0.004746363032609224,0.026746170595288277
1761379948110557400,2.511557373046875,0.02809513732790947,-0.015604709275066853,0.03903675451874733
1761379948120606700,2.521606689453125,0.024314701557159424,-0.029277564957737923,0.03302469477057457
1761379948130631700,2.531631591796875,0.02070080302655697,-0.022482771426439285,0.012174004688858986
1761379948140657400,2.541657470703125,0.01841921918094158,-0.003480666084215045,-0.014355666004121304
1761379948150683000,2.551682861328125,0.0115245021879673,0.02091730386018753,-0.03833729028701782
1761379948160716300,2.56171630859375,0.008676684461534023,0.039020098745822906,-0.04997836798429489
1761379948170735000,2.571735107421875,0.009142993949353695,0.04549846798181534,-0.04088533669710159
1761379948180759600,2.581759521484375,0.013306469656527042,0.04228426516056061,-0.01632082648575306
1761379948190753500,2.59175341796875,0.014921898953616619,0.02856144681572914,0.01786964014172554
1761379948200771600,2.601771484375,0.013206546194851398,0.003930321428924799,0.05127737298607826
1761379948210814000,2.61181396484375,0.007427641656249762,-0.016553981229662895,0.0683809295296669
1761379948220862700,2.62186279296875,0.005912136286497116,-0.020051300525665283,0.06416749209165573
1761379948230872300,2.631872314453125,0.00654498441144824,-0.008793261833488941,0.038303982466459274
1761379948240892000,2.641891845703125,0.006811446975916624,0.006078675389289856,0.0002997702977154404
1761379948250942200,2.651942138671875,0.010025650262832642,0.02141692116856575,-0.03618893399834633
1761379948260966100,2.661966064453125,0.016021056100726128,0.026363130658864975,-0.057555895298719406
1761379948270969300,2.67196923828125,0.019734878093004227,0.018469180911779404,-0.05837193503975868
1761379948280995300,2.681995361328125,0.01645405776798725,-0.004413284827023745,-0.04263399541378021
1761379948291020500,2.6920205078125,0.005129402503371239,-0.02817840687930584,-0.022516079246997833
1761379948301046500,2.702046630859375,-0.004130168352276087,-0.04233422502875328,-0.008043835870921612
1761379948311071700,2.71207177734375,-0.008593414910137653,-0.044732388108968735,-0.006445060949772596
1761379948321085200,2.722085205078125,-0.010242151096463203,-0.03180895745754242,-0.01870233565568924
1761379948331112200,2.7321123046875,-0.012640314176678658,-0.014438935555517673,-0.03787098079919815
1761379948341137200,2.74213720703125,-0.02083403430879116,-0.0022982389200478792,-0.059171322733163834
1761379948351177500,2.752177490234375,-0.028211714699864388,-0.0012823506258428097,-0.07437633723020554
1761379948361207600,2.76220751953125,-0.029743874445557594,-0.011208077892661095,-0.07722415775060654
1761379948371239700,2.77223974609375,-0.02341539040207863,-0.013123276643455029,-0.06485030800104141
1761379948381252000,2.782252197265625,-0.014688744209706783,-0.01005895808339119,-0.04296707361936569
1761379948391279900,2.79227978515625,-0.012240620329976082,-0.019568338990211487,-0.02000133879482746
1761379948401343000,2.802343017578125,-0.010525267571210861,-0.034456927329301834,-0.0015821210108697414
1761379948411353300,2.812353271484375,-0.011707695201039314,-0.03515639156103134,0.004429938737303019
1761379948421375500,2.82237548828125,-0.015787901356816292,-0.023698506876826286,-0.004629785660654306
1761379948431401500,2.8324013671875,-0.019684916362166405,-0.009309533052146435,-0.023698506876826286
1761379948441427000,2.842427001953125,-0.019818147644400597,0.003630551276728511,-0.03653866797685623
1761379948451452700,2.85245263671875,-0.013206546194851398,0.01555474754422903,-0.038553789258003235
1761379948461478700,2.862478759765625,-0.012540390715003014,0.019718224182724953,-0.025413859635591507
1761379948471505400,2.87250537109375,-0.0144222816452384,0.015488131903111935,-0.007843988947570324
1761379948481509000,2.882509033203125,-0.01620424911379814,0.003513973904773593,0.006744831334799528
1761379948491519700,2.892519775390625,-0.018802259117364883,-0.009126340039074421,0.00729441037401557
1761379948501582000,2.90258203125,-0.017753062769770622,-0.013739471323788166,-0.005828866735100746
1761379948511590100,2.912590087890625,-0.015005168505012989,-0.008276990614831448,-0.03114280290901661
1761379948521632300,2.92263232421875,-0.010608537122607231,0.0011158116394653916,-0.05599042773246765
1761379948531658200,2.932658203125,-0.005645673722028732,0.006578292232006788,-0.07192821800708771
1761379948541683200,2.94268310546875,-0.002431470202282071,0.006994639988988638,-0.06929689645767212
1761379948551718000,2.9527177734375,0.0007993874605745077,0.009176301769912243,-0.04764682054519653
1761379948561734700,2.962734619140625,0.005479134619235992,0.009526033885776997,-0.014905245043337345
1761379948571760000,2.972760009765625,0.008510145358741283,0.002864471636712551,0.020484302192926407
1761379948581787400,2.982787353515625,0.005995405837893486,-0.013806086964905262,0.0522766076028347
1761379948591812600,2.9928125,0.0020650841761380434,-0.02751225046813488,0.06658231467008591
1761379948601838000,3.002838134765625,0.0009659265051595867,-0.032625000923871994,0.06233556568622589
1761379948611863600,3.012863525390625,0.0026479708030819893,-0.03139261156320572,0.038803599774837494
1761379948621888800,3.022888671875,0.004929556045681238,-0.02288246527314186,0.005212672054767609
1761379948631916800,3.032916748046875,0.005212672054767609,-0.009109686128795147,-0.028078483417630196
1761379948641945900,3.04294580078125,0.0016820443561300635,0.0022482771892100573,-0.04962863773107529
1761379948651969800,3.0529697265625,-0.0027145864441990852,0.01573793962597847,-0.054541539400815964
1761379948661992400,3.062992431640625,-0.004663093481212854,0.026946017518639565,-0.046147968620061874
1761379948672022000,3.07302197265625,-0.01039203628897667,0.031292688101530075,-0.02534724399447441
1761379948682049300,3.08304931640625,-0.01728675328195095,0.02095061168074608,-0.0006328483577817678
1761379948692069000,3.093069091796875,-0.024414625018835068,0.0019318530103191733,0.018169410526752472
1761379948702094000,3.103093994140625,-0.030160222202539444,-0.01740333065390587,0.022516079246997833
1761379948712098300,3.113098388671875,-0.0325583852827549,-0.027911944314837456,0.01277354545891285
1761379948722146300,3.123146240234375,-0.02942745015025139,-0.0283949077129364,-0.010458651930093765
1761379948732173000,3.133173095703125,-0.022849157452583313,-0.013689509592950344,-0.037471286952495575
1761379948742175700,3.14317578125,-0.014022587798535824,0.009309533052146435,-0.048612747341394424
1761379948752196900,3.15319677734375,-0.00929287914186716,0.02246611751616001,-0.042101070284843445
1761379948762249200,3.163249267578125,-0.01177431084215641,0.026612939313054085,-0.0218332689255476
1761379948772275200,3.173275146484375,-0.01244046725332737,0.02066749520599842,0.009742534719407558
1761379948782300700,3.18330078125,-0.014821975491940975,-0.0011824272805824876,0.04516538977622986
1761379948792296200,3.193296142578125,-0.02008460834622383,-0.02959398925304413,0.0803883969783783
1761379948802356500,3.2033564453125,-0.02196650020778179,-0.05397530645132065,0.10646841675043106
1761379948812378600,3.213378662109375,-0.019068721681833267,-0.06948009133338928,0.11487863212823868
1761379948822406100,3.22340625,-0.014305704273283482,-0.0725444108247757,0.10293778777122498
1761379948832391000,3.233390869140625,-0.008027181960642338,-0.06032044440507889,0.07395999133586884
1761379948842432500,3.2434326171875,0.0013489662669599056,-0.033207885921001434,0.040802065283060074
1761379948852480300,3.253480224609375,0.01135796308517456,-0.009492726065218449,0.013156584464013577
1761379948862485200,3.2634853515625,0.022016461938619614,0.002847817726433277,-0.0025480473414063454
1761379948872514000,3.27351416015625,0.032458461821079254,0.0054624807089567184,-0.0061785988509655
1761379948882561000,3.28356103515625,0.03673851490020752,0.0014155819080770016,-0.0025647012516856194
1761379948892583200,3.293583251953125,0.032291922718286514,-0.005062786862254143,-0.0015155053697526455
1761379948902616000,3.303615966796875,0.022682618349790573,-0.008227028883993626,-0.005645673722028732
1761379948912634600,3.313634521484375,0.01703694462776184,-0.007927258498966694,-0.015721285715699196
1761379948922659600,3.32365966796875,0.015205015428364277,-0.006295176222920418,-0.020317763090133667
1761379948932685300,3.333685302734375,0.014372319914400578,-0.01227392815053463,-0.005012825131416321
1761379948942711800,3.3437119140625,0.007027947809547186,-0.027112556621432304,0.0210005734115839
1761379948952737300,3.3537373046875,0.0005329249543137848,-0.026646247133612633,0.03981948643922806
1761379948962740700,3.36374072265625,0.0015488131903111935,-0.026229899376630783,0.04409953951835632
1761379948972789200,3.373789306640625,0.0016820443561300635,-0.034673430025577545,0.02947741188108921
1761379948982814500,3.383814453125,0.0005162710440345109,-0.024264739826321602,0.0020983919966965914
1761379948992797700,3.393797607421875,0.002831163816154003,0.0015321592800319195,-0.032591693103313446
1761379949002866400,3.403866455078125,0.0074776033870875835,0.023515313863754272,-0.06223564222455025
1761379949012888600,3.413888671875,0.01467209029942751,0.03522300720214844,-0.07344371825456619
1761379949022916600,3.42391650390625,0.017803024500608444,0.030043644830584526,-0.05843855068087578
1761379949032900400,3.433900390625,0.012740237638354301,0.0072111408226192,-0.027812020853161812
1761379949042968800,3.44396875,0.009326186962425709,-0.02116711251437664,0.0014488897286355495
1761379949052994600,3.45399462890625,0.013023353181779385,-0.037554554641246796,0.013639547862112522
1761379949063019800,3.464019775390625,0.017553215846419334,-0.03908671438694,0.0009492725948803127
1761379949073045200,3.474045166015625,0.02036772482097149,-0.016220903024077415,-0.02797855995595455
1761379949083071000,3.484071044921875,0.02045099437236786,0.013972626067698002,-0.05552411824464798
1761379949093097200,3.49409716796875,0.013806086964905262,0.032958079129457474,-0.07017955183982849
1761379949103123000,3.504123046875,0.009959034621715546,0.04038571938872337,-0.061303023248910904
1761379949113148000,3.51414794921875,0.013722817413508892,0.03125938028097153,-0.03085968643426895
1761379949123174000,3.524173828125,0.01695367507636547,0.011091500520706177,0.004696401301771402
1761379949133198800,3.53419873046875,0.021516844630241394,-0.012906775809824467,0.03402392938733101
1761379949143225000,3.54422509765625,0.025980090722441673,-0.030026990920305252,0.0456816591322422
1761379949153251300,3.554251220703125,0.02712921053171158,-0.03673851490020752,0.04025248810648918
1761379949163253000,3.5642529296875,0.024481240659952164,-0.026646247133612633,0.0218332689255476
1761379949173302800,3.574302734375,0.024997511878609657,-0.004929556045681238,0.00016653904458507895
1761379949183327700,3.58432763671875,0.028111791238188744,0.016637250781059265,-0.019435107707977295
1761379949193330400,3.594330322265625,0.03269161656498909,0.024697741493582726,-0.029943721368908882
1761379949203378400,3.60437841796875,0.0320754200220108,0.01227392815053463,-0.030126914381980896
1761379949213405000,3.614405029296875,0.024414625018835068,-0.005096094682812691,-0.01903541386127472
1761379949223430400,3.624430419921875,0.01292342972010374,-0.01665390469133854,-0.0012656967155635357
1761379949233456600,3.63445654296875,-0.0014821975491940975,-0.021650075912475586,0.010375382378697395
1761379949243481300,3.6444814453125,-0.009892419911921024,-0.019068721681833267,0.009675919078290462
1761379949253509000,3.654509033203125,-0.010825037956237793,-0.0038637060206383467,0
1761379949263532000,3.664531982421875,-0.009276225231587887,0.01284016016870737,-0.013606240041553974
1761379949273559000,3.67455908203125,-0.008227028883993626,0.019968030974268913,-0.02637978456914425
1761379949283584800,3.684584716796875,-0.004313361365348101,0.015621363185346127,-0.03618893399834633
1761379949293610500,3.694610595703125,0.0019818146247416735,0.00551244243979454,-0.041684724390506744
1761379949303635700,3.7046357421875,0.00962595734745264,-0.003314126981422305,-0.03892017528414726
1761379949313662200,3.714662109375,0.017886294052004814,-0.0074609494768083096,-0.02742898091673851
1761379949323687000,3.72468701171875,0.022316232323646545,-0.005062786862254143,-0.01400593388825655
1761379949333713400,3.73471337890625,0.016387442126870155,-0.003397396532818675,0.0020817380864173174
1761379949343739100,3.7447392578125,0.006411753129214048,-0.0005828866851516068,0.023398736491799355
1761379949353741600,3.754741455078125,-0.0019151991000398993,0.0045298621989786625,0.03870367631316185
1761379949363766300,3.764766357421875,-0.00464643957093358,0.007277756463736296,0.04095195233821869
1761379949373792800,3.774792724609375,-0.005046132951974869,0.0026146629825234413,0.027329057455062866
1761379949383841000,3.784841064453125,-0.008909839205443859,-0.002414816292002797,0.0014488897286355495
1761379949393882000,3.794882080078125,-0.010192189365625381,0.00004996171628590673,-0.023998277261853218
1761379949403892000,3.80489208984375,-0.006594946142286062,0.0026979325339198112,-0.03362423554062843
1761379949413918500,3.81491845703125,-0.0008493491332046688,-0.00679479306563735,-0.02931087277829647
1761379949423943700,3.824943603515625,0.006378445774316788,-0.015454824082553387,-0.017303407192230225
1761379949433970200,3.83497021484375,0.010675152763724327,-0.012990045361220837,0.0013489662669599056
1761379949443995400,3.844995361328125,0.003513973904773593,-0.0061785988509655,0.02529728226363659
1761379949454020900,3.855020751953125,-0.014655436389148235,0.0013656201772391796,0.04246745631098747
1761379949464045300,3.86504541015625,-0.022765887901186943,0.008060489781200886,0.04351665452122688
1761379949474072300,3.875072265625,-0.017053598538041115,0.00696133216843009,0.026196591556072235
1761379949484097500,3.88509765625,-0.008093797601759434,0.005112748593091965,-0.0010158881777897477
1761379949494123500,3.89512353515625,-0.0002664624771568924,0.0037304747384041548,-0.02454785630106926
1761379949504150300,3.905150390625,0.0005162710440345109,-0.0045132082886993885,-0.04003598541021347
1761379949514175200,3.91517529296875,-0.00464643957093358,-0.011907542124390602,-0.045864854007959366
1761379949524163600,3.92516357421875,-0.014055895619094372,-0.017419984564185143,-0.04280053451657295
1761379949534226400,3.935226318359375,-0.016937021166086197,-0.017986217513680458,-0.0383206345140934
1761379949544252200,3.945252197265625,-0.012540390715003014,-0.012473775073885918,-0.03155915066599846
1761379949554277600,3.955277587890625,-0.0018818912794813514,-0.0022982389200478792,-0.01861906610429287
1761379949564280800,3.96528076171875,0.008543453179299831,-0.0013156584464013577,0.0016154287150129676
1761379949574328300,3.975328369140625,0.012557044625282288,-0.011657733470201492,0.018635720014572144
1761379949584353800,3.985353759765625,0.014538859017193317,-0.022732580080628395,0.027612173929810524
1761379949594361300,3.995361328125,0.01728675328195095,-0.03372415900230408,0.02571362815797329
1761379949604406000,4.005406005859375,0.01417247299104929,-0.03795424848794937,0.014372319914400578
1761379949614431000,4.015430908203125,0.013489662669599056,-0.024781011044979095,-0.0011824272805824876
1761379949624457500,4.02545751953125,0.017986217513680458,-0.0044799004681408405,-0.007727412041276693
1761379949634448400,4.035448486328125,0.017419984564185143,0.004979517310857773,-0.002931087277829647
1761379949644509000,4.045509033203125,0.0115245021879673,0.005828866735100746,0.011324655264616013
1761379949654535200,4.05553515625,0.005712289363145828,-0.0011990811908617616,0.027062594890594482
1761379949664561000,4.065560791015625,0.00019984686514362693,-0.01119142398238182,0.0395696796476841
1761379949674585000,4.075585205078125,-0.00576225109398365,-0.017686447128653526,0.039519716054201126
1761379949684612000,4.085612060546875,-0.01014222763478756,-0.012573698535561562,0.025413859635591507
1761379949694615300,4.095615234375,-0.011407924816012383,0.0020650841761380434,0.006561638321727514
1761379949704662800,4.105662841796875,-0.010358728468418121,0.018002871423959732,-0.009309533052146435
1761379949714688000,4.11568798828125,-0.01119142398238182,0.019351838156580925,-0.02216634713113308
1761379949724692500,4.1256923828125,-0.011058192700147629,0.003097626380622387,-0.035256315022706985
1761379949734717700,4.1357177734375,-0.003613897366449237,-0.008310298435389996,-0.04446592554450035
1761379949744766000,4.145765869140625,0.009326186962425709,-0.006744831334799528,-0.03945310041308403
1761379949754792000,4.1557919921875,0.014488897286355495,-0.002481431933119893,-0.02526397444307804
1761379949764808000,4.165807861328125,0.01055857539176941,-0.005112748593091965,-0.012373851612210274
1761379949774843100,4.175843017578125,0.004030244890600443,-0.006728177424520254,0.00016653904458507895
1761379949784868600,4.18586865234375,-0.0010158881777897477,0.0008826569537632167,0.014322358183562756
1761379949794894600,4.19589453125,-0.008560107089579105,0.00970922689884901,0.023898353800177574
1761379949804920000,4.205920166015625,-0.013439700938761234,0.012174004688858986,0.028045175597071648
1761379949814945300,4.2159453125,-0.013606240041553974,0.011824272572994232,0.02501416578888893
1761379949824971000,4.225970947265625,-0.011407924816012383,0.011324655264616013,0.019601646810770035
1761379949834996200,4.235996337890625,-0.010258805006742477,0.009076378308236599,0.013656201772391796
1761379949845022500,4.2460224609375,-0.005962098017334938,0.005812212824821472,0.009076378308236599
1761379949855048000,4.2560478515625,-0.00039969373028725386,0.0038470521103590727,0.006561638321727514
1761379949865074000,4.266073974609375,0.003663859097287059,-0.003164242021739483,0.006661561783403158
1761379949875100200,4.27610009765625,0.00807714369148016,-0.013806086964905262,0.010941615328192711
1761379949885125600,4.286125732421875,0.011374616995453835,-0.01623755693435669,0.013706163503229618
1761379949895126300,4.296126220703125,0.01317323837429285,-0.006195252761244774,0.012357197701931
1761379949905176600,4.306176513671875,0.00874330010265112,0.004829632584005594,0.005129402503371239
1761379949915201800,4.316201904296875,0.003663859097287059,0.013273161835968494,-0.008227028883993626
1761379949925239000,4.326239013671875,0.0015155053697526455,0.017886294052004814,-0.026562977582216263
1761379949935253000,4.3362529296875,-0.0012656967155635357,0.015687977895140648,-0.04738035798072815
1761379949945279200,4.346279296875,-0.0053958650678396225,0.008343606255948544,-0.06525000184774399
1761379949955305500,4.356305419921875,-0.012407159432768822,0.004146822262555361,-0.07759054005146027
1761379949965330700,4.36633056640625,-0.010358728468418121,-0.0001498851488577202,-0.08508480340242386
1761379949975355600,4.376355712890625,-0.006844754796475172,-0.0006328483577817678,-0.08273659646511078
1761379949985381600,4.386381591796875,0.00023315467115025967,0.003647205187007785,-0.06958001106977463
1761379949995385000,4.396385009765625,0.0009825803572311997,0.013739471323788166,-0.05047798529267311
1761379950005433900,4.406433837890625,0.0005329249543137848,0.02881125546991825,-0.02809513732790947
1761379950015438800,4.41643896484375,-0.00016653904458507895,0.029410796239972115,-0.006594946142286062
1761379950025484000,4.426484130859375,0.0018319295486435294,0.011308001354336739,0.008776607923209667
1761379950035510500,4.436510498046875,0.00937614869326353,-0.011174770072102547,0.013989279977977276
1761379950045536300,4.446536376953125,0.018902182579040527,-0.02659628540277481,0.006728177424520254
1761379950055573000,4.456572998046875,0.025696974247694016,-0.02438131719827652,-0.006644907873123884
1761379950065587200,4.466587158203125,0.02654632367193699,-0.012074081227183342,-0.01748660020530224
1761379950075612200,4.476612060546875,0.02296573482453823,0.00018319295486435294,-0.0271791722625494
1761379950085638000,4.486637939453125,0.021683383733034134,0.007727412041276693,-0.0341571569442749
1761379950095641600,4.4966416015625,0.019351838156580925,0.011824272572994232,-0.03948640823364258
1761379950105690400,4.5066904296875,0.017603177577257156,0.012457121163606644,-0.04220099374651909
1761379950115716400,4.51671630859375,0.01458882074803114,0.01005895808339119,-0.036721859127283096
1761379950125729800,4.526729736328125,0.011824272572994232,0.003663859097287059,-0.02909437194466591
1761379950135767300,4.536767333984375,0.010408690199255943,-0.005162710323929787,-0.025996744632720947
1761379950145792800,4.546792724609375,0.010691806674003601,-0.008626722730696201,-0.02712921053171158
1761379950155819000,4.556819091796875,0.009825804270803928,-0.006977986078709364,-0.03134264796972275
1761379950165844000,4.566843994140625,0.00646171486005187,-0.0019984685350209475,-0.03745463117957115
1761379950175869200,4.576869140625,0.009809150360524654,0.0001332312385784462,-0.04524866119027138
1761379950185895700,4.586895751953125,0.01690371334552765,0.004263399634510279,-0.04571496695280075
1761379950195921200,4.596921142578125,0.021633422002196312,0.0045798239298164845,-0.034590158611536026
1761379950205946600,4.606946533203125,0.021633422002196312,-0.002764548175036907,-0.016304172575473785
1761379950215972900,4.616972900390625,0.01728675328195095,-0.015671323984861374,-0.004113514441996813
1761379950225961500,4.62696142578125,0.01695367507636547,-0.011174770072102547,0.0011491194600239396
1761379950236000800,4.637000732421875,0.020351070910692215,0.003130934201180935,0.012223966419696808
1761379950246049300,4.64704931640625,0.014705398119986057,0.020234493538737297,0.029793836176395416
1761379950256053000,4.657052978515625,0.00997568853199482,0.030909648165106773,0.04583154618740082
1761379950266101500,4.6671015625,0.013606240041553974,0.025980090722441673,0.052209991961717606
1761379950276126200,4.677126220703125,0.019318530336022377,0.00489624822512269,0.04829632490873337
1761379950286151400,4.6871513671875,0.021433575078845024,-0.010092265903949738,0.03472338989377022
1761379950296155400,4.6971552734375,0.02204976975917816,-0.008093797601759434,0.020550917834043503
1761379950306203400,4.707203369140625,0.019068721681833267,0.0007494257297366858,0.009242917411029339
1761379950316229000,4.71722900390625,0.012673621997237206,0.004946209955960512,-0.002981049008667469
1761379950326255600,4.727255615234375,0.008893185295164585,0.009659265168011189,-0.016603942960500717
1761379950336280800,4.73728076171875,0.009109686128795147,0.012890121899545193,-0.026696208864450455
1761379950346306800,4.747306884765625,0.008043835870921612,0.00987576600164175,-0.024647779762744904
1761379950356332300,4.757332275390625,0.008043835870921612,0.00634513795375824,-0.01425574254244566
1761379950366357800,4.767357666015625,0.00937614869326353,0.0003663859097287059,0.0002997702977154404
1761379950376383200,4.77738330078125,0.008560107089579105,-0.00609532929956913,0.00704460171982646
1761379950386408400,4.787408447265625,0.00712787127122283,-0.009192955680191517,0.007694104220718145
1761379950396407800,4.79740771484375,0.004263399634510279,-0.007311064284294844,0.004746363032609224
1761379950406460000,4.8074599609375,-0.002964395098388195,-0.003647205187007785,-0.0015155053697526455
1761379950416486000,4.81748583984375,-0.008010528050363064,-0.0022482771892100573,-0.012373851612210274
1761379950426488300,4.82748828125,-0.008177067153155804,-0.007094563450664282,-0.028744639828801155
1761379950436537000,4.837537109375,-0.0044799004681408405,-0.00559571199119091,-0.044066231697797775
1761379950446563000,4.84756298828125,0.0038137442898005247,0.005245979875326157,-0.04643108695745468
1761379950456565200,4.857565185546875,0.012124042958021164,0.02150019071996212,-0.032375190407037735
1761379950466614000,4.867614013671875,0.010491959750652313,0.027478942647576332,-0.008426875807344913
1761379950476639500,4.877639404296875,0.0010825038189068437,0.01756986975669861,0.017769716680049896
1761379950486665500,4.88766552734375,-0.009942381642758846,0.003530627815052867,0.03602239489555359
1761379950496690400,4.8976904296875,-0.01547147799283266,-0.006944678258150816,0.04426607862114906
1761379950506717700,4.9077177734375,-0.01350631657987833,-0.009742534719407558,0.03698832169175148
1761379950516743000,4.917742919921875,-0.012623660266399384,-0.009192955680191517,0.020800726488232613
1761379950526745000,4.9277451171875,-0.014405627734959126,-0.005828866735100746,0.003380742622539401
1761379950536794000,4.937794189453125,-0.016337480396032333,-0.003064318560063839,-0.009825804270803928
1761379950546820400,4.9478203125,-0.02070080302655697,0.0002165007608709857,-0.018219372257590294
1761379950556844800,4.9578447265625,-0.026746170595288277,0.008043835870921612,-0.016021056100726128
1761379950566871600,4.96787158203125,-0.03502316027879715,0.010625191032886505,-0.008127105422317982
1761379950576896500,4.977896484375,-0.0387369841337204,-0.0007660796400159597,-0.003930321428924799
1761379950586927000,4.987927001953125,-0.0358891636133194,-0.012790199369192123,-0.009692572988569736
1761379950596916500,4.99791650390625,-0.02822836861014366,-0.016603942960500717,-0.02045099437236786
1761379950606973200,5.00797314453125,-0.0271791722625494,-0.006361791864037514,-0.033540964126586914
1761379950617000200,5.018000244140625,-0.028045175597071648,0.007094563450664282,-0.03792094066739082
1761379950627001900,5.028001953125,-0.030426684767007828,0.008343606255948544,-0.03264165297150612
1761379950637037300,5.038037353515625,-0.031625766307115555,0.0044632465578615665,-0.025780243799090385
1761379950647075800,5.048075927734375,-0.023898353800177574,0.0017653139075264335,-0.018002871423959732
1761379950657081600,5.05808154296875,-0.018718989565968513,0.0020484302658587694,-0.0094594182446599
1761379950667127800,5.0681279296875,-0.0193684920668602,0.0015654671005904675,0.0025647012516856194
1761379950677153500,5.078153564453125,-0.02045099437236786,-0.0005995405954308808,0.009109686128795147
1761379950687178000,5.088177978515625,-0.018335949629545212,-0.002314892830327153,0.006944678258150816
1761379950697204200,5.098204345703125,-0.014122511260211468,-0.0005495788645930588,-0.004713055212050676
1761379950707230000,5.10822998046875,-0.009692572988569736,0.004330015275627375,-0.01695367507636547
1761379950717256400,5.11825634765625,-0.007777373772114515,0.010242151096463203,-0.01908537559211254
1761379950727281700,5.12828173828125,-0.00970922689884901,0.013989279977977276,-0.00920960959047079
1761379950737284400,5.138284423828125,-0.0075442190282046795,0.015538093633949757,0.010441998019814491
1761379950747332900,5.148332763671875,-0.006578292232006788,0.009476072154939175,0.029710566624999046
1761379950757335800,5.158335693359375,-0.012174004688858986,-0.0012656967155635357,0.03973621875047684
1761379950767385000,5.168385009765625,-0.014888591133058071,-0.0021650076378136873,0.03818740323185921
1761379950777373400,5.17837353515625,-0.01300669927150011,0.0044965543784201145,0.028111791238188744
1761379950787402500,5.188402587890625,-0.009892419911921024,0.01185758039355278,0.01803617924451828
1761379950797462300,5.198462158203125,-0.00696133216843009,0.01450555119663477,0.008360260166227818
1761379950807488300,5.20848828125,-0.00044965543202124536,0.013806086964905262,-0.0014488897286355495
1761379950817512200,5.21851220703125,0.008510145358741283,0.007361026015132666,-0.011541156098246574
1761379950827538400,5.228538330078125,0.01765313930809498,-0.003497319994494319,-0.019884763285517693
1761379950837563100,5.238563232421875,0.03307465463876724,-0.011890888214111328,-0.02233288623392582
1761379950847590000,5.24858984375,0.05076110363006592,-0.016970328986644745,-0.01712021417915821
1761379950857609200,5.258609130859375,0.06311830133199692,-0.012590352445840836,-0.0021150459069758654
1761379950867641300,5.268641357421875,0.06515007466077805,-0.016021056100726128,0.010658498853445053
1761379950877667000,5.2786669921875,0.053708843886852264,-0.02313227392733097,0.025663666427135468
1761379950887693300,5.288693359375,0.03818740323185921,-0.0321420356631279,0.03800421208143234
1761379950897717200,5.29871728515625,0.03160911053419113,-0.03269161656498909,0.03645539656281471
1761379950907744800,5.308744873046875,0.03946975618600845,-0.0185357965528965,0.02020118571817875
1761379950917769200,5.318769287109375,0.047780051827430725,-0.006111983209848404,0.0013822740875184536
1761379950927795700,5.328795654296875,0.05131068080663681,-0.0022982389200478792,-0.011208077892661095
1761379950937820200,5.338820068359375,0.05114414170384407,0.0001498851488577202,-0.011574463918805122
1761379950947847400,5.348847412109375,0.047147203236818314,0.002897779457271099,-0.0015155053697526455
1761379950957851600,5.3588515625,0.03828732669353485,-0.0017819678178057075,0.006844754796475172
1761379950967897300,5.3688974609375,0.0320754200220108,-0.00654498441144824,0.006944678258150816
1761379950977923600,5.378923583984375,0.03210872784256935,-0.0075608729384839535,0.0011324655497446656
1761379950987927300,5.38892724609375,0.03105953335762024,-0.002414816292002797,-0.004030244890600443
1761379950997975800,5.398975830078125,0.029077718034386635,0.009909073822200298,-0.0020817380864173174
1761379951008000800,5.409000732421875,0.027079248800873756,0.01795290969312191,0.008543453179299831
1761379951018026800,5.41902685546875,0.021799961104989052,0.015687977895140648,0.023698506876826286
1761379951028050700,5.42905078125,0.017469946295022964,0.007710758130997419,0.03399062156677246
1761379951038077200,5.4390771484375,0.01978483982384205,-0.0007827335502952337,0.03379077464342117
1761379951048103400,5.449103515625,0.024164816364645958,-0.010891653597354889,0.026529669761657715
1761379951058129000,5.45912890625,0.022399501875042915,-0.021217074245214462,0.015638016164302826
1761379951068154600,5.469154541015625,0.01928522251546383,-0.02476435713469982,0.004296707455068827
1761379951078180400,5.479180419921875,0.018652373924851418,-0.018885528668761253,-0.0075775268487632275
1761379951088206000,5.4892060546875,0.016304172575473785,-0.007194486912339926,-0.014655436389148235
1761379951098230800,5.499230712890625,0.007244448643177748,0.0082436827942729,-0.011241385713219643
1761379951108257000,5.509257080078125,-0.0074942572973668575,0.015854516997933388,-0.003913667518645525
1761379951118283300,5.519283203125,-0.021700037643313408,0.011158116161823273,-0.0009492725948803127
1761379951128309500,5.5293095703125,-0.026896055787801743,0.012007465586066246,-0.0008326952229253948
1761379951138334200,5.539334228515625,-0.02133365161716938,0.014705398119986057,0.0013656201772391796
1761379951148360200,5.549360107421875,-0.012040773406624794,0.014455589465796947,-0.0011824272805824876
1761379951158363100,5.559363037109375,-0.0016320826252922416,0.01350631657987833,-0.0014488897286355495
1761379951168387600,5.5693876953125,0.002414816292002797,0.005995405837893486,0.003314126981422305
1761379951178436600,5.5794365234375,-0.0007494257297366858,-0.0025647012516856194,0.005096094682812691
1761379951188463000,5.589463134765625,-0.003530627815052867,-0.004080206621438265,0.004346669185906649
1761379951198499800,5.599499755859375,-0.0038637060206383467,0.0007827335502952337,0.0024980856105685234
1761379951208513300,5.60951318359375,-0.004929556045681238,0.007427641656249762,0.005562404170632362
1761379951218540000,5.6195400390625,-0.006928024347871542,0.010541921481490135,0.009276225231587887
1761379951228565800,5.629565673828125,-0.009759188629686832,0.005962098017334938,0.01284016016870737
1761379951238591500,5.639591552734375,-0.015571401454508305,-0.0017153521766886115,0.010625191032886505
1761379951248617000,5.649616943359375,-0.02070080302655697,-0.007344372104853392,0.00019984686514362693
1761379951258642400,5.659642333984375,-0.02379843033850193,-0.006611600052565336,-0.014289050363004208
1761379951268624400,5.669624267578125,-0.028794601559638977,0.0003330780891701579,-0.03250842168927193
1761379951278693400,5.679693359375,-0.036805130541324615,0.013939318247139454,-0.05071114003658295
1761379951288720400,5.689720458984375,-0.040269140154123306,0.02856144681572914,-0.0645671859383583
1761379951298745000,5.6997451171875,-0.030926302075386047,0.0329747311770916,-0.06518338620662689
1761379951308748300,5.709748291015625,-0.010325420647859573,0.02604670636355877,-0.04962863773107529
1761379951318795800,5.719795654296875,0.008060489781200886,0.007694104220718145,-0.020184531807899475
1761379951328822500,5.729822509765625,0.013889356516301632,-0.012307235971093178,0.01530493889003992
1761379951338823000,5.739822998046875,0.006245214492082596,-0.023198889568448067,0.04674750939011574
1761379951348874200,5.749874267578125,-0.006728177424520254,-0.028911178931593895,0.06651569902896881
1761379951358900000,5.75989990234375,-0.02279919572174549,-0.030126914381980896,0.07279422134160995
1761379951368924700,5.769924560546875,-0.03527297079563141,-0.016720520332455635,0.059054747223854065
1761379951378951000,5.779950927734375,-0.03920329362154007,0.011474540457129478,0.034673430025577545
1761379951388976600,5.7899765625,-0.034956544637680054,0.038637060672044754,0.00807714369148016
1761379951399002000,5.800002197265625,-0.028245022520422935,0.05006163939833641,-0.00559571199119091
1761379951409027800,5.81002783203125,-0.020184531807899475,0.04384973272681236,-0.0017653139075264335
1761379951419053600,5.820053466796875,-0.01573793962597847,0.023865045979619026,0.018335949629545212
1761379951429078300,5.830078369140625,-0.017686447128653526,-0.0005329249543137848,0.04599808529019356
1761379951439081200,5.840081298828125,-0.028361599892377853,-0.02333212085068226,0.06156948581337929
1761379951449130200,5.850130126953125,-0.03379077464342117,-0.02617993764579296,0.05314261093735695
1761379951459156200,5.86015625,-0.030343415215611458,-0.010508613660931587,0.019934723153710365
1761379951469159700,5.87015966796875,-0.021783307194709778,0.019568338990211487,-0.019301876425743103
1761379951479207400,5.88020751953125,-0.01573793962597847,0.04688074067234993,-0.053708843886852264
1761379951489233400,5.8902333984375,-0.011724349111318588,0.05385872721672058,-0.06708192825317383
1761379951499259100,5.900259033203125,-0.012540390715003014,0.03953637182712555,-0.04897913336753845
1761379951509283600,5.91028369140625,-0.017586523666977882,0.015921132639050484,-0.013489662669599056
1761379951519310000,5.92031005859375,-0.024164816364645958,-0.006361791864037514,0.024447932839393616
1761379951529336300,5.93033642578125,-0.024364663287997246,-0.02468108758330345,0.043982964009046555
1761379951539326000,5.940325927734375,-0.015771247446537018,-0.0296772588044405,0.04180129989981651
1761379951549364500,5.950364501953125,-0.002881125546991825,-0.02504747360944748,0.02191653847694397
1761379951559390200,5.96039013671875,0.0072111408226192,-0.012174004688858986,-0.003047664649784565
1761379951569415200,5.970415283203125,0.010408690199255943,0.0017819678178057075,-0.025730282068252563
1761379951579442700,5.980442626953125,0.0075608729384839535,0.00979249645024538,-0.03712155297398567
1761379951589468200,5.99046826171875,0.0019818146247416735,0.0037471286486834288,-0.037221476435661316
1761379951599492600,6.00049267578125,-0.005029479041695595,-0.006045367568731308,-0.028045175597071648
1761379951609508400,6.01050830078125,-0.005862174555659294,-0.01144123263657093,-0.012990045361220837
1761379951619533000,6.020532958984375,-0.005112748593091965,-0.015254977159202099,-0.0012323890114203095
1761379951629577700,6.03057763671875,-0.0020151224453002214,-0.013306469656527042,0.006411753129214048
1761379951639602400,6.0406025390625,0.003630551276728511,-0.00962595734745264,0.004629785660654306
1761379951649628200,6.050628173828125,0.003214203519746661,0.00048296325257979333,-0.003713820828124881
1761379951659669000,6.0606689453125,-0.007027947809547186,0.024014931172132492,-0.017586523666977882
1761379951669666600,6.07066650390625,-0.018186064437031746,0.036655243486166,-0.03527297079563141
1761379951679720200,6.08072021484375,-0.02659628540277481,0.034623466432094574,-0.0456816591322422
1761379951689746400,6.090746337890625,-0.03315792605280876,0.03698832169175148,-0.05009494721889496
1761379951699752400,6.10075244140625,-0.03595577925443649,0.04296707361936569,-0.049012441188097
1761379951709797600,6.110797607421875,-0.04538189247250557,0.05342572554945946,-0.051660411059856415
1761379951719822800,6.12082275390625,-0.054458267986774445,0.08395233750343323,-0.06413418799638748
1761379951729826600,6.13082666015625,-0.05524100363254547,0.1153782531619072,-0.08706661313772202
1761379951739874600,6.14087451171875,-0.05081106349825859,0.12412155419588089,-0.10805053263902664
1761379951749901000,6.150901123046875,-0.04471573606133461,0.10005666315555573,-0.11666060239076614
1761379951759926300,6.16092626953125,-0.03683843836188316,0.075325608253479,-0.1164940670132637
1761379951769952300,6.1709521484375,-0.02797855995595455,0.04814643785357475,-0.10999903827905655
1761379951779977000,6.18097705078125,-0.022016461938619614,0.029210949316620827,-0.09864107519388199
1761379951790002700,6.191002685546875,-0.004746363032609224,0.018385911360383034,-0.08075478672981262
1761379951799986000,6.20098583984375,0.02208307757973671,0.023282159119844437,-0.08668357133865356
1761379951810055000,6.211054931640625,0.05978751927614212,0.06090332940220833,-0.11414586007595062
1761379951820080000,6.221080078125,0.06525000184774399,0.06556642055511475,-0.09014758467674255
1761379951830105300,6.231105224609375,0.04479900375008583,0.04300038143992424,-0.040468987077474594
1761379951840109000,6.241109130859375,0.03277488425374031,0.0053958650678396225,0.014955206774175167
1761379951850178300,6.25117822265625,0.03369085118174553,-0.024248085916042328,0.05605704337358475
1761379951860181800,6.261181640625,0.038720328360795975,-0.038437213748693466,0.06756488978862762
1761379951870209000,6.271208984375,0.043400075286626816,-0.03605570271611214,0.05820539593696594
1761379951880235000,6.281235107421875,0.043566614389419556,-0.028661370277404785,0.043483346700668335
1761379951890259200,6.29125927734375,0.036971669644117355,-0.01720348373055458,0.02914433367550373
1761379951900286700,6.30128662109375,0.023198889568448067,-0.010708460584282875,0.02095061168074608
1761379951910311000,6.311310791015625,0.01047530584037304,-0.013189892284572124,0.012490428984165192
1761379951920323800,6.32132373046875,0.004280053544789553,-0.01620424911379814,0.005945444107055664
1761379951930362400,6.3313623046875,0.003047664649784565,-0.010625191032886505,-0.0045798239298164845
1761379951940387800,6.341387939453125,0.006295176222920418,0.0016653904458507895,-0.01047530584037304
1761379951950414000,6.3514140625,0.004962863866239786,0.008443529717624187,-0.012873467989265919
1761379951960439300,6.361439208984375,0.004879594314843416,0.006778139155358076,-0.011907542124390602
1761379951970465500,6.371465576171875,0.01292342972010374,-0.004046898800879717,-0.004396630916744471
1761379951980490800,6.38149072265625,0.015038476325571537,-0.020817380398511887,0.012490428984165192
1761379951990516200,6.39151611328125,0.011541156098246574,-0.03612231835722923,0.028994448482990265
1761379952000542500,6.40154248046875,0.006228560581803322,-0.04008594900369644,0.04130168259143829
1761379952010568400,6.411568359375,0.0012323890114203095,-0.04161810874938965,0.046647585928440094
1761379952020585000,6.4215849609375,-0.006578292232006788,-0.038437213748693466,0.04195118695497513
1761379952030618600,6.43161865234375,-0.011890888214111328,-0.029327526688575745,0.029494065791368484
1761379952040645000,6.44164501953125,-0.014488897286355495,-0.019684916362166405,0.013522970490157604
1761379952050674200,6.451674072265625,-0.02000133879482746,-0.019801493734121323,0.0074609494768083096
1761379952060696800,6.46169677734375,-0.024414625018835068,-0.02831163816154003,0.014455589465796947
1761379952070721300,6.47172119140625,-0.024414625018835068,-0.03750459477305412,0.026080014184117317
1761379952080747000,6.4817470703125,-0.0206175334751606,-0.04128503054380417,0.03762117028236389
1761379952090750200,6.491750244140625,-0.018602412194013596,-0.04045233502984047,0.04171803221106529
1761379952100798700,6.501798828125,-0.019601646810770035,-0.027379019185900688,0.034257080405950546
1761379952110824700,6.51182470703125,-0.02000133879482746,-0.009575995616614819,0.018768951296806335
1761379952120853000,6.52185302734375,-0.021017227321863174,0.0008326952229253948,0.0019818146247416735
1761379952130876700,6.531876708984375,-0.01945176161825657,0.008776607923209667,-0.014372319914400578
1761379952140900900,6.54190087890625,-0.016187595203518867,0.007177833002060652,-0.026995979249477386
1761379952150928000,6.551927978515625,-0.013206546194851398,-0.006445060949772596,-0.033840734511613846
1761379952160953600,6.56195361328125,-0.009109686128795147,-0.01753656193614006,-0.03643874451518059
1761379952170978800,6.571978759765625,-0.00866003055125475,-0.030410030856728554,-0.037304747849702835
1761379952181005000,6.582005126953125,-0.015721285715699196,-0.030876340344548225,-0.043599922209978104
1761379952191030800,6.59203076171875,-0.022566040977835655,-0.005712289363145828,-0.04403292387723923
1761379952201055700,6.6020556640625,-0.028777947649359703,0.01728675328195095,-0.036505360156297684
1761379952211081200,6.612081298828125,-0.03432369604706764,0.02588016726076603,-0.026862747967243195
1761379952221084700,6.622084716796875,-0.03460681438446045,0.01866902783513069,-0.01375612523406744
1761379952231109600,6.632109619140625,-0.028028521686792374,0.00866003055125475,0.013489662669599056
1761379952241159400,6.642159423828125,-0.021849922835826874,-0.0044965543784201145,0.0498451367020607
1761379952251184400,6.652184326171875,-0.019385145977139473,-0.019634954631328583,0.08446860313415527
1761379952261209600,6.662209716796875,-0.022782541811466217,-0.03733805567026138,0.09825804084539413
1761379952271235000,6.672235107421875,-0.027662135660648346,-0.05022817850112915,0.08433537185192108
1761379952281261300,6.68226123046875,-0.0329747311770916,-0.03908671438694,0.049112364649772644
1761379952291287300,6.692287353515625,-0.035589393228292465,-0.018735643476247787,0.012257274240255356
1761379952301323000,6.702322998046875,-0.043316807597875595,0.003280819160863757,-0.0045798239298164845
1761379952311338500,6.71233837890625,-0.0448489673435688,0.012756891548633575,-0.0020317763555794954
1761379952321363700,6.72236376953125,-0.021949846297502518,-0.0019651607144623995,-0.0001332312385784462
1761379952331390200,6.73239013671875,0.0008826569537632167,-0.014855283312499523,-0.00039969373028725386
1761379952341426000,6.742426025390625,0.00791060458868742,-0.007627488579601049,0.0008326952229253948
1761379952351440600,6.752440673828125,0.004330015275627375,-0.0053125955164432526,-0.00576225109398365
1761379952361466600,6.762466552734375,-0.0011491194600239396,-0.005812212824821472,-0.025247320532798767
1761379952371491800,6.772491943359375,-0.0005662327748723328,0.009076378308236599,-0.048496171832084656
1761379952381510100,6.78251025390625,0.003330780891701579,0.03031010739505291,-0.07092898339033127
1761379952391544000,6.7925439453125,0.00849349144846201,0.048745978623628616,-0.08590084314346313
1761379952401538000,6.8025380859375,0.016420749947428703,0.05787231773138046,-0.0886487364768982
1761379952411595000,6.812594970703125,0.024481240659952164,0.044815659523010254,-0.07774043083190918
1761379952421587000,6.8225869140625,0.03210872784256935,0.023648545145988464,-0.04756355285644531
1761379952431603700,6.832603759765625,0.03424042835831642,0.0003663859097287059,-0.007011293899267912
1761379952441672000,6.842671875,0.03622224181890488,-0.017353368923068047,0.03553943336009979
1761379952451697400,6.852697509765625,0.036555320024490356,-0.02726244181394577,0.06846420466899872
1761379952461723100,6.86272314453125,0.03439031168818474,-0.02488093450665474,0.0849016085267067
1761379952471748400,6.872748291015625,0.03365754336118698,-0.01530493889003992,0.08331948518753052
1761379952481774600,6.882774658203125,0.03197549656033516,-0.002464778022840619,0.06526665389537811
1761379952491800000,6.892800048828125,0.034123849123716354,0.011457886546850204,0.03645539656281471
1761379952501825800,6.90282568359375,0.03502316027879715,0.019385145977139473,0.004180130083113909
1761379952511851800,6.912851806640625,0.033707503229379654,0.021933192387223244,-0.023398736491799355
1761379952521876200,6.922876220703125,0.02646305412054062,0.022682618349790573,-0.04090198874473572
1761379952531903000,6.932903076171875,0.01723679155111313,0.0250974353402853,-0.04524866119027138
1761379952541928700,6.9429287109375,0.01144123263657093,0.028294984251260757,-0.039519716054201126
1761379952551952400,6.952952392578125,0.010991577059030533,0.023731814697384834,-0.026479708030819893
1761379952561980400,6.96298046875,0.014355666004121304,0.00929287914186716,-0.006245214492082596
1761379952572006000,6.973005859375,0.01720348373055458,-0.012640314176678658,0.017003636807203293
1761379952582008300,6.98300830078125,0.01740333065390587,-0.040052641183137894,0.029910413548350334
1761379952592057000,6.99305712890625,0.018852220848202705,-0.05196018144488335,0.029910413548350334
1761379952602059800,7.003059814453125,0.023831738159060478,-0.041268374770879745,0.021866576746106148
1761379952612108300,7.0131083984375,0.020600879564881325,-0.019884763285517693,0.00646171486005187
1761379952622111500,7.023111572265625,0.01678713597357273,0.008360260166227818,-0.009259571321308613
1761379952632159200,7.0331591796875,0.010375382378697395,0.024231432005763054,-0.021400267258286476
1761379952642185500,7.043185546875,0.003647205187007785,0.024248085916042328,-0.028861217200756073
1761379952652211700,7.053211669921875,-0.0026979325339198112,0.019468415528535843,-0.030593223869800568
1761379952662237000,7.06323681640625,-0.008709992282092571,0.00970922689884901,-0.02659628540277481
1761379952672262100,7.07326220703125,-0.01670386642217636,-0.0015321592800319195,-0.022699272260069847
1761379952682309600,7.0833095703125,-0.01911868341267109,-0.011641079559922218,-0.019601646810770035
1761379952692314600,7.093314697265625,-0.01657063513994217,-0.017819678410887718,-0.013489662669599056
1761379952702343400,7.103343505859375,-0.009859112091362476,-0.018902182579040527,-0.0020817380864173174
1761379952712368000,7.1133681640625,-0.0013989279977977276,-0.01928522251546383,0.01269027590751648
1761379952722391300,7.123391357421875,0.005012825131416321,-0.018252680078148842,0.027895290404558182
1761379952732416300,7.133416259765625,0.005012825131416321,-0.019268568605184555,0.03953637182712555
1761379952742442000,7.14344189453125,-0.0024980856105685234,-0.01698698289692402,0.041767992079257965
1761379952752461300,7.15346142578125,-0.012240620329976082,-0.006944678258150816,0.0325583852827549
1761379952762493200,7.1634931640625,-0.020800726488232613,0.0012323890114203095,0.013606240041553974
1761379952772519700,7.173519775390625,-0.02429804764688015,0.0022149693686515093,-0.005962098017334938
1761379952782549800,7.1835498046875,-0.021366959437727928,-0.0026313168928027153,-0.019235260784626007
1761379952792570600,7.193570556640625,-0.01417247299104929,-0.009509379975497723,-0.028128445148468018
1761379952802598400,7.203598388671875,-0.008110451512038708,-0.014688744209706783,-0.03548946976661682
1761379952812621800,7.213621826171875,-0.005579058080911636,-0.0201678778976202,-0.041601452976465225
1761379952822626800,7.223626708984375,-0.005062786862254143,-0.01958499290049076,-0.038270674645900726
1761379952832672800,7.2336728515625,-0.006944678258150816,-0.007843988947570324,-0.022949080914258957
1761379952842698800,7.24369873046875,-0.006411753129214048,0.0013156584464013577,-0.003314126981422305
1761379952852724000,7.253723876953125,-0.005245979875326157,0.0015821210108697414,0.01277354545891285
1761379952862749700,7.263749755859375,-0.004879594314843416,-0.0025813551619648933,0.022682618349790573
1761379952872775700,7.273775634765625,-0.008460183627903461,-0.0038970138411968946,0.025114089250564575
1761379952882802000,7.283802001953125,-0.014655436389148235,-0.0027145864441990852,0.01866902783513069
1761379952892827000,7.293826904296875,-0.01820271834731102,0.010158881545066833,0.010458651930093765
1761379952902852900,7.303852783203125,-0.019551685079932213,0.02563035860657692,0.0037304747384041548
1761379952912878300,7.31387841796875,-0.01653732731938362,0.04108518362045288,-0.00023315467115025967
1761379952922904300,7.323904296875,-0.013406393118202686,0.047446973621845245,0.005162710323929787
1761379952932929800,7.3339296875,-0.013473008759319782,0.033424388617277145,0.013356431387364864
1761379952942956500,7.34395654296875,-0.01417247299104929,0.015155053697526455,0.02053426392376423
1761379952952997000,7.3539970703125,-0.008610068820416927,-0.0013656201772391796,0.026979325339198112
1761379952962984200,7.363984130859375,-0.0005329249543137848,-0.008759954012930393,0.025663666427135468
1761379952973032700,7.37403271484375,0.008476837538182735,-0.008510145358741283,0.017103560268878937
1761379952983053800,7.3840537109375,0.012756891548633575,-0.005728943273425102,0.004779670853167772
1761379952993084400,7.39408447265625,0.010242151096463203,-0.005862174555659294,-0.00464643957093358
1761379953003091200,7.40409130859375,0.0011491194600239396,-0.007677450310438871,-0.015371554531157017
1761379953013134300,7.41413427734375,-0.010858345776796341,-0.011507848277688026,-0.028211714699864388
1761379953023160600,7.42416064453125,-0.02158346027135849,-0.00962595734745264,-0.0453319288790226
1761379953033186300,7.434186279296875,-0.02233288623392582,0.00866003055125475,-0.05973755568265915
1761379953043212800,7.444212890625,-0.016087671741843224,0.024281393736600876,-0.06744831800460815
1761379953053237800,7.45423779296875,-0.009775842539966106,0.03397396579384804,-0.06191921979188919
1761379953063232500,7.464232421875,0.0014821975491940975,0.0333910807967186,-0.04253407195210457
1761379953073290200,7.474290283203125,0.009326186962425709,0.016254210844635963,-0.01590447872877121
1761379953083315700,7.484315673828125,0.009609303437173367,-0.008426875807344913,0.01202411949634552
1761379953093340200,7.494340087890625,0.009259571321308613,-0.027745405212044716,0.03294142335653305
1761379953103367000,7.504366943359375,0.011541156098246574,-0.027695443481206894,0.039519716054201126
1761379953113368800,7.514368896484375,0.012423813343048096,-0.012973391450941563,0.03160911053419113
1761379953123418000,7.524418212890625,0.012490428984165192,0.005895482376217842,0.018335949629545212
1761379953133421600,7.534421630859375,0.01538820844143629,0.021933192387223244,0.009059724397957325
1761379953143468800,7.54446875,0.013389739207923412,0.030926302075386047,0.012756891548633575
1761379953153485300,7.5544853515625,0.009675919078290462,0.03164241835474968,0.02831163816154003
1761379953163519500,7.56451953125,0.00634513795375824,0.021633422002196312,0.043483346700668335
1761379953173545500,7.57454541015625,0.004080206621438265,0.006428407039493322,0.05414184555411339
1761379953183555600,7.5845556640625,0.0015821210108697414,-0.00009992343257181346,0.05510777235031128
1761379953193597400,7.594597412109375,-0.0018985451897606254,0.0008493491332046688,0.04748028144240379
1761379953203623400,7.60462353515625,-0.009909073822200298,0.006511676590889692,0.030576569959521294
1761379953213648000,7.61464794921875,-0.01433901209384203,0.011391270905733109,0.01292342972010374
1761379953223651600,7.624651611328125,-0.015438170172274113,0.009909073822200298,-0.0007660796400159597
1761379953233700000,7.6347001953125,-0.012307235971093178,0.00882656965404749,0
1761379953243725600,7.6447255859375,-0.006111983209848404,0.010342074558138847,0.009126340039074421
1761379953253750500,7.65475048828125,-0.003480666084215045,-0.0015987749211490154,0.0193684920668602
1761379953263777800,7.66477783203125,-0.0015155053697526455,-0.015155053697526455,0.02308231219649315
1761379953273802200,7.67480224609375,0.0006495022680610418,-0.02459781803190708,0.017170175909996033
1761379953283849500,7.684849365234375,-0.0022149693686515093,-0.021316997706890106,0.0002165007608709857
1761379953293854500,7.6948544921875,-0.008593414910137653,-0.005712289363145828,-0.018935490399599075
1761379953303879700,7.704879638671875,-0.0193684920668602,0.008643376640975475,-0.03837059810757637
1761379953313898800,7.714898681640625,-0.025730282068252563,0.015538093633949757,-0.05196018144488335
1761379953323931000,7.724930908203125,-0.020401032641530037,0.018219372257590294,-0.05330915004014969
1761379953333934000,7.73493408203125,-0.009642611257731915,0.015887824818491936,-0.04223430156707764
1761379953343982600,7.744982666015625,-0.0001498851488577202,0.007177833002060652,-0.022849157452583313
1761379953353987000,7.754987060546875,0.006661561783403158,-0.012240620329976082,-0.005179364234209061
1761379953364033500,7.765033447265625,0.011641079559922218,-0.03307465463876724,0.003563935635611415
1761379953374060000,7.77506005859375,0.014388973824679852,-0.04071879759430885,0.00044965543202124536
1761379953384085500,7.78508544921875,0.012873467989265919,-0.026446400210261345,-0.009942381642758846
1761379953394110000,7.79510986328125,0.009809150360524654,-0.006811446975916624,-0.016720520332455635
1761379953404137500,7.805137451171875,0.007710758130997419,0.003014356829226017,-0.01715352199971676
1761379953414162400,7.815162353515625,0.012323889881372452,0.010924961417913437,-0.012823506258428097
1761379953424188000,7.82518798828125,0.022765887901186943,0.008643376640975475,-0.003397396532818675
1761379953434214000,7.8352138671875,0.027379019185900688,-0.00782733503729105,0.006245214492082596
1761379953444237600,7.845237548828125,0.0288445632904768,-0.023015696555376053,0.011208077892661095
1761379953454264800,7.855264892578125,0.0288445632904768,-0.030176876112818718,0.010158881545066833
1761379953464291300,7.865291259765625,0.028528138995170593,-0.024081546813249588,0.0037637825589627028
1761379953474315800,7.875315673828125,0.020234493538737297,-0.010675152763724327,-0.006428407039493322
1761379953484322800,7.88532275390625,0.010325420647859573,0.005129402503371239,-0.020850688219070435
1761379953494367000,7.895366943359375,0.0074609494768083096,0.01836925745010376,-0.031875573098659515
1761379953504393500,7.9053935546875,0.005579058080911636,0.019518377259373665,-0.03605570271611214
1761379953514419000,7.9154189453125,0.005778905004262924,0.017803024500608444,-0.02897779457271099
1761379953524444700,7.925444580078125,0.007327718194574118,0.00874330010265112,-0.0115245021879673
1761379953534470000,7.935469970703125,0.004779670853167772,-0.004363323096185923,0.009226263500750065
1761379953544495600,7.94549560546875,0.0009326186846010387,-0.01911868341267109,0.02579689770936966
1761379953554521900,7.95552197265625,-0.0005162710440345109,-0.029960375279188156,0.03349100425839424
1761379953564547000,7.965547119140625,0.0003164241788908839,-0.02571362815797329,0.02687940187752247
1761379953574572300,7.975572265625,0.005295941606163979,-0.011341309174895287,0.011341309174895287
1761379953584598500,7.9855986328125,0.009825804270803928,0.0045964778400957584,-0.007843988947570324
1761379953594624300,7.995624267578125,0.007061255630105734,0.015205015428364277,-0.03200880438089371
1761379953604631000,8.005631103515626,0.002914433367550373,0.02366519905626774,-0.05688973888754845
1761379953614675700,8.01567578125,0.003330780891701579,0.033207885921001434,-0.06931354850530624
1761379953624702000,8.025701904296875,-0.0006828100886195898,0.037754401564598083,-0.06300172209739685
1761379953634727200,8.03572705078125,-0.009842458181083202,0.03648870438337326,-0.05006163939833641
1761379953644731000,8.04573095703125,-0.02283250354230404,0.03205876797437668,-0.0559571199119091
1761379953654779100,8.055779052734374,-0.017436638474464417,0.05382541939616203,-0.09972358494997025
1761379953664793000,8.06579296875,-0.018269333988428116,0.0643506869673729,-0.13334780931472778
1761379953674829800,8.075829833984375,-0.03272492438554764,0.06526665389537811,-0.16094332933425903
1761379953684832000,8.08583203125,-0.043899692595005035,0.05134398862719536,-0.17266768217086792
1761379953694880500,8.095880615234375,-0.04086868092417717,0.03757121041417122,-0.16049368679523468
1761379953704906800,8.10590673828125,-0.038603752851486206,0.02759552001953125,-0.1253039836883545
1761379953714912000,8.115912109375,-0.0378376729786396,0.030410030856728554,-0.08716654032468796
1761379953724935400,8.125935302734375,-0.04666424170136452,0.016387442126870155,-0.04111849144101143
1761379953734984000,8.13598388671875,-0.045398544520139694,-0.004979517310857773,-0.0006495022680610418
1761379953745010000,8.146010009765625,-0.03235853835940361,-0.008143759332597256,0.0399860255420208
1761379953755035000,8.156034912109375,-0.015088438056409359,-0.013656201772391796,0.06704862415790558
1761379953765061000,8.16606103515625,-0.002331546740606427,-0.025480475276708603,0.08568433672189713
1761379953775086600,8.176086669921874,0.0026479708030819893,-0.04713055118918419,0.09972358494997025
1761379953785112600,8.186112548828126,0.007244448643177748,-0.06966328620910645,0.10541921854019165
1761379953795137000,8.196136962890625,0.009692572988569736,-0.07947243750095367,0.09457752853631973
1761379953805163300,8.206163330078125,0.014139165170490742,-0.06240218132734299,0.06641577184200287
1761379953815189000,8.21618896484375,0.018385911360383034,-0.0218332689255476,0.025946782901883125
1761379953825194200,8.2261943359375,0.014955206774175167,0.022682618349790573,-0.00807714369148016
1761379953835241500,8.236241455078124,0.0005162710440345109,0.05885490030050278,-0.014805321581661701
1761379953845249300,8.246249267578126,-0.015887824818491936,0.07457618415355682,0.007344372104853392
1761379953855291600,8.256291748046875,-0.03047664649784565,0.04111849144101143,0.054458267986774445
1761379953865317400,8.2663173828125,-0.038137443363666534,-0.025164050981402397,0.1107984259724617
1761379953875343000,8.276343017578125,-0.03285815566778183,-0.07875631749629974,0.15253311395645142
1761379953885345800,8.286345703125,-0.02238284796476364,-0.10127239674329758,0.16580627858638763
1761379953895394300,8.296394287109376,-0.02484762668609619,-0.10250478237867355,0.16049368679523468
1761379953905421300,8.30642138671875,-0.021550152450799942,-0.09126339852809906,0.12548717856407166
1761379953915445800,8.31644580078125,-0.010275458917021751,-0.09088035672903061,0.0728941410779953
1761379953925471500,8.326471435546875,0.0053958650678396225,-0.0749758780002594,0.02526397444307804
1761379953935496200,8.33649609375,0.021133804693818092,-0.019518377259373665,-0.011757656931877136
1761379953945523700,8.346523681640624,0.040185872465372086,0.028161752969026566,-0.038603752851486206
1761379953955548700,8.356548583984376,0.05122740939259529,0.04173468425869942,-0.045698314905166626
1761379953965574000,8.366573974609375,0.0481797456741333,0.03682178258895874,-0.02906106412410736
1761379953975600000,8.37660009765625,0.03733805567026138,0.028411561623215675,-0.0045631700195372105
1761379953985625300,8.386625244140625,0.028195060789585114,0.01703694462776184,0.017669793218374252
1761379953995651300,8.3966513671875,0.022199654951691628,-0.014305704273283482,0.03690505400300026
1761379954005676500,8.406676513671876,0.013872702606022358,-0.0502614863216877,0.05499119311571121
1761379954015680800,8.4166806640625,0.008060489781200886,-0.0420677624642849,0.06868070363998413
1761379954025728000,8.42672802734375,0.007111217360943556,-0.008626722730696201,0.06909704953432083
1761379954035754200,8.436754150390625,-0.0003164241788908839,0.006361791864037514,0.05992075055837631
1761379954045757000,8.4467568359375,-0.020317763090133667,0.017303407192230225,0.061303023248910904
1761379954055805400,8.456805419921874,-0.011790964752435684,0.04821305349469185,0.0518602579832077
1761379954065830400,8.466830322265626,0.010342074558138847,0.09254574775695801,0.02822836861014366
1761379954075856100,8.476856201171875,0.03389069810509682,0.14180800318717957,0.004929556045681238
1761379954085864200,8.4868642578125,0.04305034503340721,0.15383212268352509,-0.01632082648575306
1761379954095908000,8.496908203125,0.047663476318120956,0.13975957036018372,-0.029027756303548813
1761379954105933800,8.506933837890625,0.05250976234674454,0.1262865662574768,-0.02726244181394577
1761379954115959000,8.516958984375,0.04120175912976265,0.1178097203373909,-0.002481431933119893
1761379954125961700,8.526961669921874,0.04103522002696991,0.10525267571210861,0.028444869443774223
1761379954136011500,8.537011474609375,0.041767992079257965,-0.0016820443561300635,0.025247320532798767
1761379954146013200,8.54701318359375,0.05499119311571121,-0.0370049774646759,0.030343415215611458
1761379954156062700,8.557062744140625,0.053842075169086456,-0.04701397195458412,0.02459781803190708
1761379954166088200,8.567088134765624,0.0449155829846859,-0.055840544402599335,0.005279287695884705
1761379954176113700,8.57711376953125,0.03765447810292244,-0.05447492375969887,-0.022516079246997833
1761379954186138600,8.587138671875,0.028827909380197525,-0.04779670760035515,-0.06378445774316788
1761379954196164000,8.5971640625,0.028794601559638977,-0.034506890922784805,-0.09894084930419922
1761379954206191000,8.607191162109375,0.006594946142286062,-0.014222434721887112,-0.11755991727113724
1761379954216183000,8.61718310546875,-0.04912902042269707,0.026113322004675865,-0.1087166890501976
1761379954226230300,8.627230224609375,-0.0935116782784462,0.07502584159374237,-0.0818539410829544
