time,seconds_elapsed,z,y,x
1761379573332920000,0.106920166015625,-0.09262901544570923,0.4499885141849518,-0.5010327100753784
1761379573342945300,0.1169453125,-0.06559973210096359,0.24746036529541016,-0.47453635931015015
1761379573362999600,0.13699951171875,0.0168704055249691,-0.2691437602043152,-0.3693336546421051
1761379573373023000,0.14702294921875,0.03907006233930588,-0.4096027910709381,-0.2843487560749054
1761379573383050500,0.157050537109375,0.04521535336971283,-0.46294525265693665,-0.18582427501678467
1761379573393074700,0.16707470703125,0.03602239489555359,-0.44301050901412964,-0.08245348185300827
1761379573403081700,0.177081787109375,0.019068721681833267,-0.3832063376903534,0.013439700938761234
1761379573413085700,0.187085693359375,0.008643376640975475,-0.3254339396953583,0.08340275287628174
1761379573423153000,0.19715283203125,0.013389739207923412,-0.316157728433609,0.11552813649177551
1761379573433179600,0.2071796875,0.045398544520139694,-0.38295653462409973,0.11186427623033524
1761379573443205000,0.217205078125,0.09902411699295044,-0.5103422403335571,0.09687576442956924
1761379573453231400,0.2272314453125,0.14542189240455627,-0.6407756209373474,0.08078809082508087
1761379573463257000,0.237257080078125,0.16277526319026947,-0.7732574343681335,0.06273525953292847
1761379573473286000,0.247285888671875,0.1605769544839859,-0.8776940703392029,0.05440830811858177
1761379573483315000,0.25731494140625,0.14410623908042908,-0.9399464130401611,0.05547415837645531
1761379573493313500,0.2673134765625,0.12425478547811508,-0.9473573565483093,0.049611981958150864
1761379573503379200,0.277379150390625,0.11376282572746277,-0.8895849585533142,0.036721859127283096
1761379573513391900,0.287391845703125,0.10721784085035324,-0.7688108682632446,0.011641079559922218
1761379573523412500,0.29741259765625,0.0939946398139,-0.6245380640029907,-0.026329822838306427
1761379573533439700,0.307439697265625,0.06829766184091568,-0.4658930003643036,-0.06716519594192505
1761379573543449300,0.317449462890625,0.03723813220858574,-0.28273335099220276,-0.09294544160366058
1761379573553471200,0.32747119140625,0.005146056413650513,-0.12755225598812103,-0.10007331520318985
1761379573563497000,0.3374970703125,-0.01828598789870739,-0.04058556631207466,-0.0980914980173111
1761379573573524000,0.34752392578125,-0.017336715012788773,-0.018086140975356102,-0.0943443700671196
1761379573583550700,0.35755078125,0.012323889881372452,-0.03712155297398567,-0.08714988082647324
1761379573593575700,0.36757568359375,0.059887442737817764,-0.04599808529019356,-0.07316060364246368
1761379573603590400,0.37759033203125,0.11063189059495926,-0.006378445774316788,-0.0647004172205925
1761379573613616400,0.387616455078125,0.1456383913755417,0.04416615515947342,-0.08133766800165176
1761379573623660800,0.397660888671875,0.1602938324213028,0.08709992468357086,-0.12393835932016373
1761379573633687000,0.40768701171875,0.15088437497615814,0.12223966419696808,-0.17881298065185547
1761379573643728400,0.417728271484375,0.12535394728183746,0.1423076093196869,-0.23580263555049896
1761379573653752300,0.42775244140625,0.08914835005998611,0.14830301702022552,-0.28243356943130493
1761379573663778600,0.437778564453125,0.05564069747924805,0.14132504165172577,-0.31534168124198914
1761379573673804300,0.44780419921875,0.03693836182355881,0.12435470521450043,-0.3307798504829407
1761379573683830300,0.457830322265625,0.030709801241755486,0.08326952159404755,-0.33054670691490173
1761379573693836000,0.4678359375,0.033874042332172394,0.014638782478868961,-0.3151918053627014
1761379573703862000,0.477862060546875,0.04706393554806709,-0.0585218220949173,-0.2832995653152466
1761379573713908700,0.48790869140625,0.06614930927753448,-0.11559475213289261,-0.24417954683303833
1761379573723934700,0.497934814453125,0.08646707236766815,-0.16720519959926605,-0.19981354475021362
1761379573733966600,0.507966552734375,0.10195520520210266,-0.19336849451065063,-0.1702195554971695
1761379573743988700,0.51798876953125,0.11389605700969696,-0.1697365939617157,-0.15732944011688232
1761379573754014500,0.528014404296875,0.12005800008773804,-0.11994142085313797,-0.1692536324262619
1761379573764041000,0.538041015625,0.12172339111566544,-0.0873330757021904,-0.19948047399520874
1761379573774067700,0.548067626953125,0.11379612982273102,-0.07943912595510483,-0.24461255967617035
1761379573784091400,0.55809130859375,0.09512710571289062,-0.10535260289907455,-0.289644718170166
1761379573794118400,0.568118408203125,0.06919697672128677,-0.17298410832881927,-0.32291921973228455
1761379573804139300,0.57813916015625,0.041817955672740936,-0.26308172941207886,-0.35437843203544617
1761379573814169600,0.588169677734375,0.019884763285517693,-0.3414050340652466,-0.3906340003013611
1761379573824195300,0.5981953125,0.013822740875184536,-0.37436312437057495,-0.4274224638938904
1761379573834221600,0.6082216796875,0.02438131719827652,-0.3672352433204651,-0.46397778391838074
1761379573844247300,0.618247314453125,0.051876913756132126,-0.34401971101760864,-0.5029479265213013
1761379573854278000,0.62827783203125,0.09492725878953934,-0.32355207204818726,-0.5373049378395081
1761379573864304000,0.63830419921875,0.13278158009052277,-0.31445902585983276,-0.5626355409622192
1761379573874316300,0.64831640625,0.14740371704101562,-0.3174067735671997,-0.5707293152809143
1761379573884330500,0.65833056640625,0.14843624830245972,-0.30320098996162415,-0.5449157953262329
1761379573894380500,0.668380615234375,0.13251511752605438,-0.24914242327213287,-0.4884756803512573
1761379573904403700,0.67840380859375,0.059054747223854065,-0.15006834268569946,-0.44455933570861816
1761379573914429700,0.6884296875,-0.1539819985628128,-0.035672664642333984,-0.47287097573280334
1761379573924455700,0.69845556640625,-0.2421477735042572,-0.06791462749242783,-0.5174368023872375
1761379573934482400,0.708482421875,-0.22074751555919647,-0.14040906727313995,-0.5695635676383972
1761379573944477000,0.718476806640625,-0.18559111654758453,-0.20988915860652924,-0.6342306733131409
1761379573954533600,0.72853369140625,-0.16097664833068848,-0.29235929250717163,-0.6840258240699768
1761379573964539100,0.7385390625,-0.12935088574886322,-0.319138765335083,-0.6978652477264404
1761379573974588200,0.748588134765625,-0.08165409415960312,-0.279968798160553,-0.6700199246406555
1761379573984613000,0.758613037109375,-0.02671286277472973,-0.206391841173172,-0.6118478178977966
1761379573994640400,0.768640380859375,0.015571401454508305,-0.1086500734090805,-0.535789430141449
1761379574004666000,0.778666015625,0.04613131657242775,-0.002947741188108921,-0.4408954679965973
1761379574014691800,0.78869189453125,0.07760719954967499,0.10591883212327957,-0.32769888639450073
1761379574024718300,0.79871826171875,0.1131632849574089,0.19468414783477783,-0.20317764580249786
1761379574034743800,0.808743896484375,0.14968529343605042,0.2324885129928589,-0.07890620082616806
1761379574044771300,0.818771240234375,0.185707688331604,0.20794065296649933,0.039719562977552414
1761379574054796800,0.828796875,0.21779976785182953,0.14778675138950348,0.15103426575660706
1761379574064822800,0.83882275390625,0.2460947483778,0.08588418364524841,0.25480473041534424
1761379574074848500,0.8488486328125,0.2644140422344208,0.04156814515590668,0.34263744950294495
1761379574084874200,0.858874267578125,0.2626820504665375,0.016437403857707977,0.4071546792984009
1761379574094892500,0.868892578125,0.24447932839393616,-0.01392266433686018,0.4426940977573395
1761379574104927200,0.87892724609375,0.211038276553154,-0.05557408183813095,0.4456917941570282
1761379574114932500,0.888932373046875,0.16718855500221252,-0.096009761095047,0.4248078167438507
1761379574124979700,0.898979736328125,0.11716022342443466,-0.11229728162288666,0.38338953256607056
1761379574135007700,0.9090078125,0.07529230415821075,-0.10123908519744873,0.33014699816703796
1761379574145032000,0.919031982421875,0.054874617606401443,-0.06403426080942154,0.27350708842277527
1761379574155060000,0.92906005859375,0.05392534285783768,-0.006911370437592268,0.21603445708751678
1761379574165083000,0.939082763671875,0.06440065056085587,0.05927124619483948,0.1591114103794098
1761379574175108900,0.94910888671875,0.07267764210700989,0.1116977408528328,0.09980685263872147
1761379574185135400,0.95913525390625,0.0683809295296669,0.13806086778640747,0.04006929323077202
1761379574195161600,0.96916162109375,0.049428790807724,0.13074980676174164,-0.020401032641530037
1761379574205187000,0.97918701171875,0.022899119183421135,0.11196420341730118,-0.06999636441469193
1761379574215196200,0.989196044921875,0.008976454846560955,0.10358728468418121,-0.09286217391490936
1761379574225239300,0.9992392578125,0.01640409603714943,0.10561906546354294,-0.07687442749738693
1761379574235265800,1.009265869140625,0.0527595691382885,0.12150689214468002,-0.00970922689884901
1761379574245284600,1.01928466796875,0.09790830314159393,0.1570962816476822,0.08968127518892288
1761379574255320800,1.02932080078125,0.13466347754001617,0.20932292938232422,0.1962662637233734
1761379574265322000,1.039322021484375,0.16622261703014374,0.2507078945636749,0.2994039058685303
1761379574275392000,1.04939208984375,0.19621630012989044,0.260417103767395,0.39388149976730347
1761379574285393200,1.05939306640625,0.21466884016990662,0.2399328052997589,0.47800037264823914
1761379574295421000,1.0694208984375,0.200080007314682,0.18041175603866577,0.5492457747459412
1761379574305448700,1.07944873046875,0.15539757907390594,0.09382809698581696,0.6188757419586182
1761379574315474200,1.08947412109375,0.10505282878875732,0.026146629825234413,0.6999303102493286
1761379574325477600,1.0994775390625,0.07607503980398178,0.005146056413650513,0.7971391677856445
1761379574335526000,1.10952587890625,0.0737934559583664,0.022432809695601463,0.9157482385635376
1761379574345552000,1.1195517578125,0.09657599776983261,0.04954536631703377,1.0845688581466675
1761379574355577600,1.12957763671875,0.1261366754770279,0.09141328185796738,1.298721432685852
1761379574365603300,1.139603271484375,0.15506450831890106,0.18051166832447052,1.537055492401123
1761379574375629800,1.1496298828125,0.17173506319522858,0.25683653354644775,1.7810184955596924
1761379574385656000,1.159656005859375,0.14129172265529633,0.16324158012866974,2.008943796157837
1761379574395682300,1.169682373046875,0.04238418862223625,-0.060137249529361725,2.2204151153564453
1761379574405708000,1.1797080078125,-0.09547683596611023,-0.2955401837825775,2.405123710632324
1761379574415711700,1.189711669921875,-0.21533499658107758,-0.39276570081710815,2.529761552810669
1761379574425760000,1.199760009765625,-0.24213112890720367,-0.19266901910305023,2.528395891189575
1761379574435786200,1.2097861328125,-0.07022951543331146,0.25029152631759644,2.386721134185791
1761379574445790500,1.21979052734375,0.28058499097824097,0.8636714816093445,1.867668867111206
1761379574455839200,1.229839111328125,0.6447558999061584,1.2344872951507568,0.8891353011131287
1761379574465865700,1.23986572265625,0.8777940273284912,0.8674519658088684,-0.15674655139446259
1761379574475890700,1.249890625,0.7046599984169006,0.13539624214172363,-1.0560240745544434
1761379574485916000,1.259916015625,0.1067015677690506,-0.266595721244812,-1.5530765056610107
1761379574495942700,1.269942626953125,-0.6586452722549438,-0.09446094930171967,-1.6171607971191406
1761379574505968600,1.27996875,-1.3004368543624878,0.41241729259490967,-1.4652272462844849
1761379574515999500,1.28999951171875,-1.555774450302124,0.9675252437591553,-1.225594162940979
1761379574526024200,1.300024169921875,-1.288362741470337,1.4268566370010376,-0.9196619391441345
1761379574536049400,1.31004931640625,-0.5696634650230408,1.642574667930603,-0.5752425193786621
1761379574546072800,1.32007275390625,0.33652544021606445,1.3603242635726929,-0.3199215233325958
1761379574556099300,1.330099365234375,1.1683380603790283,0.5495122671127319,-0.18930493295192719
1761379574566125300,1.340125244140625,1.7124544382095337,-0.47098907828330994,-0.06468376517295837
1761379574576128800,1.350128662109375,1.8083308935165405,-1.335343360900879,0.004613131750375032
1761379574586177300,1.36017724609375,1.5075781345367432,-1.7948912382125854,-0.10773411393165588
1761379574596202500,1.370202392578125,0.941778302192688,-1.9011597633361816,-0.47133880853652954
1761379574606228200,1.380228271484375,0.26021724939346313,-1.7926429510116577,-1.0745265483856201
1761379574616255500,1.39025537109375,-0.3067149519920349,-1.4773012399673462,-1.6655237674713135
1761379574626291500,1.40029150390625,-0.6396265029907227,-0.9456087350845337,-1.9437271356582642
1761379574636315100,1.410315185546875,-0.7573862671852112,-0.14638783037662506,-1.8188228607177734
1761379574646322200,1.420322265625,-0.6423577666282654,0.9125174283981323,-1.3614733219146729
1761379574656337000,1.4303369140625,-0.3176732361316681,1.976119041442871,-0.784948468208313
1761379574666390800,1.440390869140625,0.11935853958129883,2.7864813804626465,-0.3859875500202179
1761379574676411000,1.450410888671875,0.6642243266105652,3.10978364944458,-0.14715389907360077
1761379574686437000,1.46043701171875,1.1471543312072754,2.7672128677368164,0.05206010490655899
1761379574696464000,1.4704638671875,1.1890888214111328,2.0923800468444824,0.0156546700745821
1761379574706467600,1.480467529296875,0.8055493831634521,1.1461384296417236,-0.5057957172393799
1761379574716516000,1.49051611328125,0.11879230290651321,-0.4134831428527832,-1.4041073322296143
1761379574726542800,1.50054296875,-0.571112334728241,-1.748976469039917,-2.4309704303741455
1761379574736567000,1.510567138671875,-1.0167375802993774,-2.2591187953948975,-3.0897324085235596
1761379574746553900,1.520553955078125,-1.2350035905838013,-2.2009966373443604,-3.182028293609619
1761379574756619000,1.530618896484375,-1.2413487434387207,-1.023282527923584,-2.8373091220855713
1761379574766646300,1.540646240234375,-1.0146890878677368,0.12140696495771408,-2.1524839401245117
1761379574776644900,1.550644775390625,-0.5634015798568726,0.7025282979011536,-1.3209210634231567
1761379574786698200,1.5606982421875,-0.07689107954502106,0.9332515001296997,-0.43456700444221497
1761379574796702000,1.570701904296875,0.2739400863647461,0.9990344643592834,0.4309697449207306
1761379574806750500,1.58075048828125,0.3970957100391388,0.9173137545585632,1.0927625894546509
1761379574816746500,1.59074658203125,0.40991920232772827,0.6589617133140564,1.4494225978851318
1761379574826802200,1.60080224609375,0.3781602084636688,0.29217609763145447,1.5670825242996216
1761379574836829000,1.610828857421875,0.32335221767425537,-0.08305302262306213,1.473803997039795
1761379574846855000,1.62085498046875,0.25730282068252563,-0.39423123002052307,1.1715189218521118
1761379574856861200,1.630861083984375,0.17818012833595276,-0.5884657502174377,0.6761651635169983
1761379574866884600,1.640884521484375,0.10745099186897278,-0.743047297000885,0.17173506319522858
1761379574876910600,1.65091064453125,0.10651837289333344,-0.8823405504226685,-0.08042170852422714
1761379574886937600,1.6609375,0.11332982033491135,-0.8955970406532288,-0.14255742728710175
1761379574896965400,1.67096533203125,0.1092662662267685,-0.8635715842247009,-0.018052833154797554
1761379574906978000,1.68097802734375,0.09689241647720337,-0.7692438364028931,0.22579364478588104
1761379574917026600,1.691026611328125,0.07021286338567734,-0.6061521768569946,0.4730375111103058
1761379574927052800,1.701052734375,0.04613131657242775,-0.43356776237487793,0.6233723163604736
1761379574937074000,1.711073974609375,0.0428338423371315,-0.32500094175338745,0.7380677461624146
1761379574947115500,1.721115478515625,0.06431738287210464,-0.27578866481781006,0.8382743000984192
1761379574957120000,1.7311201171875,0.11259704828262329,-0.21808288991451263,0.8634050488471985
1761379574967167700,1.741167724609375,0.16975325345993042,-0.0025980090722441673,0.8692672252655029
1761379574977193700,1.75119384765625,0.2604670822620392,0.3608734607696533,0.8711990714073181
1761379574987219500,1.761219482421875,0.38721993565559387,0.6316493153572083,0.8547782897949219
1761379574997246000,1.771245849609375,0.46899062395095825,0.980415403842926,0.752856433391571
1761379575007277000,1.781277099609375,0.4940047860145569,1.1458885669708252,0.6313661932945251
1761379575017303000,1.791302978515625,0.4724213182926178,0.7357195615768433,0.5601873993873596
1761379575027319800,1.80131982421875,0.43101972341537476,0.004379977006465197,0.5215170383453369
1761379575037332200,1.811332275390625,0.3858543336391449,-0.7269262671470642,0.43231871724128723
1761379575047391200,1.82139111328125,0.2957566976547241,-1.3075146675109863,0.2597176432609558
1761379575057403400,1.8314033203125,0.08000535517930984,-1.632415771484375,-0.02421477809548378
1761379575067428400,1.841428466796875,-0.1947341114282608,-1.5921965837478638,-0.371282160282135
1761379575077453600,1.85145361328125,-0.4597143828868866,-1.0723615884780884,-0.6827768087387085
1761379575087445000,1.861445068359375,-0.7747396230697632,-0.5205344557762146,-0.979715883731842
1761379575097481500,1.8714814453125,-1.1190425157546997,-0.3917664587497711,-1.1955171823501587
1761379575107532500,1.881532470703125,-1.3907508850097656,-0.45620042085647583,-1.2546552419662476
1761379575117558300,1.891558349609375,-1.4819977283477783,-0.34943222999572754,-1.2106389999389648
1761379575127563300,1.901563232421875,-1.3205214738845825,0.04493223503232002,-1.1782804727554321
1761379575137610500,1.911610595703125,-0.9597811698913574,0.6003898978233337,-1.264281153678894
1761379575147637000,1.921636962890625,-0.5226994752883911,0.9989844560623169,-1.5571401119232178
1761379575157661700,1.93166162109375,-0.09054727852344513,1.1144460439682007,-1.9615801572799683
1761379575167688700,1.941688720703125,0.2263931781053543,1.113896369934082,-2.3137104511260986
1761379575177715500,1.951715576171875,0.29056066274642944,1.0289115905761719,-2.5292952060699463
1761379575187718700,1.96171875,0.08286982774734497,0.7683278918266296,-2.5666332244873047
1761379575197744400,1.971744384765625,-0.26258212327957153,0.4658430218696594,-2.3877036571502686
1761379575207791900,1.9817919921875,-0.5947942137718201,0.21711695194244385,-1.9326690435409546
1761379575217818400,1.991818359375,-0.8417882919311523,0.0892815813422203,-1.211205244064331
1761379575227852800,2.001852783203125,-0.9392469525337219,0.07750727236270905,-0.3524799048900604
1761379575237870300,2.011870361328125,-0.8149088621139526,0.12790198624134064,0.49190637469291687
1761379575247896800,2.021896728515625,-0.4973355531692505,0.17285087704658508,1.1648906469345093
1761379575257910000,2.031909912109375,-0.11522836983203888,0.14986848831176758,1.5598880052566528
1761379575267948500,2.041948486328125,0.16782139241695404,0.03452354297041893,1.6558644771575928
1761379575277954300,2.051954345703125,0.27542227506637573,-0.10053962469100952,1.51460599899292
1761379575288005400,2.06200537109375,0.22970731556415558,-0.12262269854545593,1.1929857730865479
1761379575298006500,2.072006591796875,0.07127871364355087,-0.1018386259675026,0.7227461338043213
1761379575308057000,2.08205712890625,-0.08631718903779984,-0.08868204057216644,0.1866736263036728
1761379575318083800,2.092083740234375,-0.1384938657283783,0.03227526694536209,-0.2869967520236969
1761379575328106000,2.10210595703125,-0.08480168133974075,0.20970596373081207,-0.6566135287284851
1761379575338131700,2.112131591796875,-0.07014624774456024,0.42600688338279724,-0.9871768355369568
1761379575348157000,2.122156982421875,-0.051410604268312454,0.47412002086639404,-1.1551648378372192
1761379575358182400,2.132182373046875,0.05564069747924805,0.4586818516254425,-1.1631087064743042
1761379575368209700,2.142209716796875,0.2302069216966629,0.34776684641838074,-1.074326753616333
1761379575378235400,2.1522353515625,0.361989289522171,0.07985547184944153,-0.8459017872810364
1761379575388261000,2.16226123046875,0.391483336687088,-0.23377086222171783,-0.47078922390937805
1761379575398292000,2.1722919921875,0.39214950799942017,-0.4983847439289093,-0.042484112083911896
1761379575408320300,2.1823203125,0.32738247513771057,-0.6186758875846863,0.35442841053009033
1761379575418321000,2.19232080078125,0.2825501561164856,-0.5804885029792786,0.6579124927520752
1761379575428352000,2.20235205078125,0.3550446033477783,-0.4116179049015045,0.8547450304031372
1761379575438388200,2.21238818359375,0.5371717214584351,-0.17323391139507294,1.00234854221344
1761379575448418000,2.22241796875,0.6678215861320496,0.1575126349925995,1.0775409936904907
1761379575458421800,2.232421875,0.7042436599731445,0.45738282799720764,1.0867172479629517
1761379575468448000,2.242447998046875,0.7133200764656067,0.6166108250617981,1.0932621955871582
1761379575478496800,2.252496826171875,0.6901877522468567,0.624005138874054,1.093412160873413
1761379575488522500,2.2625224609375,0.6124306917190552,0.5556408762931824,1.0778573751449585
1761379575498539500,2.27253955078125,0.5114580988883972,0.5251975655555725,1.0545085668563843
1761379575508554500,2.282554443359375,0.4096027910709381,0.48875880241394043,0.9561506509780884
1761379575518600700,2.2926005859375,0.3407055735588074,0.38144102692604065,0.7186326384544373
1761379575528626400,2.30262646484375,0.34250420331954956,0.22862480580806732,0.33589261770248413
1761379575538652200,2.312652099609375,0.38965141773223877,0.005579058080911636,-0.0992739275097847
1761379575548678400,2.322678466796875,0.3531627058982849,-0.3673684895038605,-0.4386138916015625
1761379575558703600,2.33270361328125,0.12896783649921417,-0.8737804293632507,-0.5584220886230469
1761379575568731000,2.34273095703125,-0.22501090168952942,-1.3562606573104858,-0.4334844946861267
1761379575578755800,2.352755859375,-0.5937449932098389,-1.5981587171554565,-0.10475306212902069
1761379575588783400,2.362783447265625,-0.9288215637207031,-1.5107423067092896,0.27767056226730347
1761379575598808300,2.372808349609375,-1.0536092519760132,-1.1824605464935303,0.5046966075897217
1761379575608834800,2.382834716796875,-0.9109852313995361,-0.651867151260376,0.4787498116493225
1761379575618860500,2.392860595703125,-0.6120976209640503,-0.17891289293766022,0.17235125601291656
1761379575628864300,2.4028642578125,-0.1321154236793518,0.0724111795425415,-0.26216575503349304
1761379575638913500,2.41291357421875,0.3683010935783386,0.10936619341373444,-0.6561971306800842
1761379575648938800,2.422938720703125,0.7532561421394348,0.11126473546028137,-1.0361559391021729
1761379575658940200,2.432940185546875,1.0172871351242065,0.4413784444332123,-1.4082541465759277
1761379575668994300,2.442994384765625,1.1382777690887451,1.0681148767471313,-1.8330453634262085
1761379575679018500,2.4530185546875,1.0519438982009888,1.7723917961120605,-2.320655107498169
1761379575689045800,2.463045654296875,0.7664293646812439,2.2688612937927246,-2.7726752758026123
1761379575699050200,2.47305029296875,0.3225361704826355,2.3684184551239014,-2.9703571796417236
1761379575709097000,2.483096923828125,-0.11904211342334747,2.1361629962921143,-2.786914348602295
1761379575719121000,2.493120849609375,-0.40117591619491577,1.6138633489608765,-2.322087287902832
1761379575729145300,2.503145263671875,-0.5030978322029114,0.9087536334991455,-1.7923932075500488
1761379575739171300,2.51317138671875,-0.49640294909477234,0.1257869452238083,-1.2509081363677979
1761379575749197300,2.523197265625,-0.4698566198348999,-0.5659163594245911,-0.7341374158859253
1761379575759223600,2.5332236328125,-0.524398148059845,-1.042351245880127,-0.2688939571380615
1761379575769250800,2.543250732421875,-0.6240384578704834,-1.2664462327957153,0.1457216739654541
1761379575779280600,2.55328076171875,-0.7392835021018982,-1.2172006368637085,0.48093146085739136
1761379575789306400,2.563306396484375,-0.8903676867485046,-0.9588152766227722,0.6346803307533264
1761379575799315200,2.573315185546875,-1.020534634590149,-0.5778238773345947,0.5785732865333557
1761379575809334500,2.58333447265625,-1.0555411577224731,-0.1519668847322464,0.3916998505592346
1761379575819377700,2.593377685546875,-0.9756690263748169,0.2858143150806427,0.20865677297115326
1761379575829386000,2.603385986328125,-0.8018688559532166,0.6820939779281616,0.11293012648820877
1761379575839412500,2.61341259765625,-0.5604038834571838,0.9199450612068176,0.14708729088306427
1761379575849438500,2.6234384765625,-0.2970723509788513,0.9282553195953369,0.30674827098846436
1761379575859488000,2.633488037109375,-0.06804785877466202,0.7144525051116943,0.5546416640281677
1761379575869512000,2.643511962890625,0.06959667056798935,0.3930654525756836,0.8415884375572205
1761379575879539000,2.6535390625,0.12741902470588684,0.08488495647907257,1.1170939207077026
1761379575889565700,2.663565673828125,0.13043338060379028,-0.15399865806102753,1.3388906717300415
1761379575899567600,2.673567626953125,0.09849119186401367,-0.24461255967617035,1.4839462041854858
1761379575909594400,2.683594482421875,0.07217802107334137,-0.1916697919368744,1.5660666227340698
1761379575919640600,2.693640625,0.06385107338428497,-0.037138208746910095,1.6016393899917603
1761379575929666600,2.70366650390625,0.07104555517435074,0.15403196215629578,1.5863010883331299
1761379575939692500,2.713692626953125,0.09201282262802124,0.30744773149490356,1.5287785530090332
1761379575949718500,2.723718505859375,0.11491194367408752,0.3990608751773834,1.4532030820846558
1761379575959724800,2.733724853515625,0.11208078265190125,0.4022417664527893,1.368567943572998
1761379575969770800,2.743770751953125,0.093161940574646,0.27710431814193726,1.2946579456329346
1761379575979797000,2.753796875,0.07737404108047485,0.06458384543657303,1.276638388633728
1761379575989782500,2.763782470703125,0.07427641749382019,-0.21926531195640564,1.3399732112884521
1761379575999849000,2.773848876953125,0.0576891265809536,-0.4981849193572998,1.4642612934112549
1761379576009875700,2.783875732421875,0.013323123566806316,-0.6756822466850281,1.609633207321167
1761379576019901200,2.793901123046875,-0.054125189781188965,-0.7060756087303162,1.6994976997375488
1761379576029928000,2.803927978515625,-0.1157279834151268,-0.5517938137054443,1.7084741592407227
1761379576039954000,2.813953857421875,-0.15852852165699005,-0.26972663402557373,1.6826772689819336
1761379576049979600,2.823979736328125,-0.21558479964733124,-0.11464548110961914,1.6211243867874146
1761379576060007000,2.8340068359375,-0.19551683962345123,-0.21620099246501923,1.5413188934326172
1761379576070031600,2.844031494140625,0.004363323096185923,-0.5181529521942139,1.4447095394134521
1761379576080059000,2.854058837890625,0.342670738697052,-1.0057293176651,1.2798691987991333
1761379576090079700,2.864079833984375,0.6633583307266235,-1.7364360094070435,0.9375149011611938
1761379576100088800,2.8740888671875,0.9110351800918579,-2.6985487937927246,0.3702329695224762
1761379576110136000,2.884135986328125,1.1073014736175537,-3.5404202938079834,-0.3254006505012512
1761379576120162000,2.894162109375,1.2212975025177002,-3.6937029361724854,-0.9824305176734924
1761379576130187800,2.904187744140625,1.137628197669983,-2.7693111896514893,-1.4336013793945312
1761379576140214000,2.914214111328125,0.7925093770027161,-0.9943547248840332,-1.5770914554595947
1761379576150239700,2.92423974609375,0.2597842514514923,0.9042737483978271,-1.499950647354126
1761379576160255000,2.9342548828125,-0.23440371453762054,2.2736077308654785,-1.3811416625976562
1761379576170294500,2.94429443359375,-0.4883091449737549,2.7737576961517334,-1.3953640460968018
1761379576180297700,2.954297607421875,-0.5164209604263306,2.3982789516448975,-1.5859347581863403
1761379576190326800,2.964326904296875,-0.3786265254020691,1.4836963415145874,-1.8264003992080688
1761379576200349200,2.97434912109375,-0.12728579342365265,0.3318956792354584,-1.9710062742233276
1761379576210396200,2.984396240234375,0.13744467496871948,-0.6316493153572083,-1.9117016792297363
1761379576220422400,2.99442236328125,0.37679460644721985,-1.2011462450027466,-1.6249548196792603
1761379576230420000,3.004419921875,0.5115413665771484,-1.3989613056182861,-1.2241119146347046
1761379576240474400,3.014474365234375,0.49543702602386475,-1.3190559148788452,-0.8828234672546387
1761379576250500400,3.024500244140625,0.3878694474697113,-1.025214433670044,-0.7095063328742981
1761379576260526300,3.0345263671875,0.24864280223846436,-0.5893650650978088,-0.6988145112991333
1761379576270552600,3.044552490234375,0.09204613417387009,-0.14748698472976685,-0.8128437995910645
1761379576280578800,3.054578857421875,-0.05773908644914627,0.21876569092273712,-0.9744366407394409
1761379576290604500,3.0646044921875,-0.17333383858203888,0.49611982703208923,-1.10382080078125
1761379576300630500,3.074630615234375,-0.26030054688453674,0.6562304496765137,-1.1684712171554565
1761379576310640000,3.08464013671875,-0.3112281858921051,0.6451056599617004,-1.1483033895492554
1761379576320684000,3.09468408203125,-0.25155723094940186,0.46159628033638,-1.0183696746826172
1761379576330708700,3.104708740234375,-0.07377679646015167,0.19107024371623993,-0.7418481707572937
1761379576340725500,3.1147255859375,0.15061791241168976,-0.07500918954610825,-0.3446192443370819
1761379576350762800,3.1247626953125,0.3711489140987396,-0.26947683095932007,0.11019888520240784
1761379576360793000,3.13479296875,0.5580723285675049,-0.3723979592323303,0.532708466053009
1761379576370822100,3.144822265625,0.6875897645950317,-0.3521801233291626,0.8182396292686462
1761379576380843500,3.154843505859375,0.7864307165145874,-0.20012997090816498,0.9156649708747864
1761379576390865200,3.164865234375,0.8652869462966919,0.11472874879837036,0.848133385181427
1761379576400893700,3.174893798828125,0.897678792476654,0.5500451922416687,0.6441563963890076
1761379576410908200,3.184908203125,0.8410555124282837,0.9316194653511047,0.3222030997276306
1761379576420946000,3.19494580078125,0.7110884189605713,1.0618196725845337,-0.08243682980537415
1761379576430971600,3.2049716796875,0.5554743409156799,0.910302460193634,-0.501482367515564
1761379576440987000,3.21498681640625,0.38595423102378845,0.6306334137916565,-0.8958302140235901
1761379576451023400,3.2250234375,0.2508411109447479,0.33396074175834656,-1.2460784912109375
1761379576461049900,3.2350498046875,0.15464815497398376,0.07905608415603638,-1.5692641735076904
1761379576471067000,3.24506689453125,0.12758556008338928,-0.017586523666977882,-1.869500756263733
1761379576481089800,3.25508984375,0.1962662637233734,0.17634819447994232,-2.1295015811920166
1761379576491116500,3.265116455078125,0.338074266910553,0.7304735779762268,-2.31769061088562
1761379576501154800,3.27515478515625,0.5395199060440063,1.5483968257904053,-2.4090704917907715
1761379576511179300,3.28517919921875,0.7607004046440125,2.281984567642212,-2.3940155506134033
1761379576521205500,3.29520556640625,0.9330683350563049,2.6944186687469482,-2.266829490661621
1761379576531231500,3.3052314453125,0.9712390899658203,2.819389581680298,-2.009143829345703
1761379576541246500,3.31524658203125,0.9118679165840149,2.7130544185638428,-1.5766417980194092
1761379576551284700,3.32528466796875,0.8314129114151001,2.4269235134124756,-1.0219168663024902
1761379576561310700,3.335310791015625,0.8066818714141846,1.9933558702468872,-0.4723380506038666
1761379576571336200,3.345336181640625,0.867068886756897,1.5417019128799438,0.0016986982664093375
1761379576581351400,3.355351318359375,0.951454222202301,1.134547233581543,0.3721648156642914
1761379576591388700,3.365388671875,0.9890421032905579,0.768211305141449,0.6313995122909546
1761379576601415000,3.375414794921875,0.9609802961349487,0.4303535521030426,0.797921895980835
1761379576611440400,3.3854404296875,0.8365089893341064,0.03857044503092766,0.9100026488304138
1761379576621466400,3.39546630859375,0.49681928753852844,-0.5260302424430847,1.0364224910736084
1761379576631492900,3.405492919921875,-0.004979517310857773,-1.1464215517044067,1.3710659742355347
1761379576641500400,3.41550048828125,-0.49696916341781616,-1.5880664587020874,1.975419521331787
1761379576651544600,3.425544677734375,-0.8272660970687866,-1.813726782798767,2.6133639812469482
1761379576661571000,3.435571044921875,-0.8893351554870605,-1.959864854812622,3.0355405807495117
1761379576671597300,3.445597412109375,-0.7403493523597717,-2.041452407836914,3.1656908988952637
1761379576681611500,3.455611572265625,-0.5187524557113647,-2.067582368850708,2.9186134338378906
1761379576691637800,3.4656376953125,-0.3081471920013428,-2.0129075050354004,2.2997543811798096
1761379576701664300,3.475664306640625,-0.09790830314159393,-1.7515078783035278,1.5280957221984863
1761379576711691500,3.48569140625,0.12135700136423111,-1.3080143928527832,0.8349435329437256
1761379576721726200,3.495726318359375,0.4037739336490631,-0.7675285339355469,0.4254906177520752
1761379576731753200,3.505753173828125,0.81232750415802,-0.2571529448032379,0.3672519028186798
1761379576741768000,3.515767822265625,1.1154452562332153,0.06473372876644135,0.4422277808189392
1761379576751805700,3.5258056640625,1.2632153034210205,0.23648545145988464,0.47919946908950806
1761379576761831400,3.53583154296875,1.3141429424285889,0.22143031656742096,0.429520845413208
1761379576771855000,3.545855224609375,1.239999771118164,0.041101835668087006,0.31840601563453674
1761379576781883400,3.55588330078125,1.0296943187713623,-0.23473678529262543,0.19310203194618225
1761379576791909400,3.565909423828125,0.6908872127532959,-0.5480800271034241,0.05707293003797531
1761379576801917000,3.5759169921875,0.3137262463569641,-0.7812846302986145,-0.10685145109891891
1761379576811961000,3.585961181640625,0.011491194367408752,-0.8292312026023865,-0.28668031096458435
1761379576821987600,3.595987548828125,-0.1402425318956375,-0.6701531410217285,-0.43246859312057495
1761379576832014000,3.60601416015625,-0.09394467622041702,-0.2912434935569763,-0.4410953223705292
1761379576842028500,3.616028564453125,0.09176301211118698,0.11331316828727722,-0.24336351454257965
1761379576852066300,3.62606640625,0.2998202443122864,0.3960631787776947,0.122739277780056
1761379576862101000,3.63610107421875,0.46274539828300476,0.5363556742668152,0.5564735531806946
1761379576872107800,3.646107666015625,0.5743931531906128,0.5489127039909363,0.8636714816093445
1761379576882143500,3.6561435546875,0.664141058921814,0.45192036032676697,1.1836929321289062
1761379576892169700,3.666169677734375,0.6640577912330627,0.33549290895462036,1.3296644687652588
1761379576902196000,3.676196044921875,0.6247878670692444,0.27030953764915466,1.2470444440841675
1761379576912211200,3.686211181640625,0.5845187306404114,0.30328425765037537,1.0354065895080566
1761379576922248200,3.696248291015625,0.5895316004753113,0.4392300844192505,0.7383009195327759
1761379576931773700,3.705773681640625,0.6402927041053772,0.7207976579666138,0.4441596269607544
1761379576941802200,3.71580224609375,0.7118045687675476,1.0211175680160522,0.24536198377609253
1761379576954811000,3.728810791015625,0.7449791431427002,1.2072415351867676,0.1709856390953064
1761379576964836900,3.7388369140625,0.6882225871086121,1.1624093055725098,0.2659462094306946
1761379576974864400,3.748864501953125,0.5726278424263,1.0196186304092407,0.4434102177619934
1761379576984888300,3.758888427734375,0.41929537057876587,0.8122276067733765,0.6657731533050537
1761379576994937600,3.7689375,0.266728937625885,0.559321403503418,0.9097195267677307
1761379577004958200,3.778958251953125,0.11346305161714554,0.32098737359046936,1.1450891494750977
1761379577014990000,3.788989990234375,-0.034007273614406586,0.12188992649316788,1.3406726121902466
1761379577025015300,3.799015380859375,-0.15514777600765228,0.003347434801980853,1.4580659866333008
1761379577035041000,3.809041015625,-0.23410393297672272,-0.024431278929114342,1.4889590740203857
1761379577045068000,3.819068115234375,-0.23876702785491943,0.018319295719265938,1.4516042470932007
1761379577055070500,3.829070556640625,-0.19318529963493347,0.09994008392095566,1.3358263969421387
1761379577065120300,3.839120361328125,-0.1303168088197708,0.16095998883247375,1.1458386182785034
1761379577075146200,3.849146240234375,-0.07054594159126282,0.18707332015037537,0.8781770467758179
1761379577085171500,3.85917138671875,-0.032042112201452255,0.23683518171310425,0.5561238527297974
1761379577095198500,3.869198486328125,-0.010758422315120697,0.3736303448677063,0.23453694581985474
1761379577105223400,3.879223388671875,-0.03064318560063839,0.6165608763694763,-0.09003101289272308
1761379577115249400,3.88924951171875,-0.11264701187610626,0.9253076314926147,-0.4067383110523224
1761379577125276400,3.8992763671875,-0.24404631555080414,1.184342384338379,-0.6440398097038269
1761379577135281400,3.909281494140625,-0.44684091210365295,1.2630821466445923,-0.8190223574638367
1761379577145327600,3.91932763671875,-0.7182995676994324,1.0041805505752563,-0.9515708088874817
1761379577155353300,3.929353271484375,-0.9411454796791077,0.48001548647880554,-0.9942048192024231
1761379577165380000,3.939380126953125,-0.9796992540359497,-0.10683479905128479,-0.9350501298904419
1761379577175407400,3.949407470703125,-0.834144115447998,-0.6104322075843811,-0.8312963247299194
1761379577185409300,3.9594091796875,-0.6700199246406555,-1.0087103843688965,-0.7858644723892212
1761379577195458600,3.96945849609375,-0.7395166158676147,-1.2978720664978027,-0.8863874077796936
1761379577205484800,3.97948486328125,-0.9106188416481018,-1.2289083003997803,-1.092779278755188
1761379577215511300,3.98951123046875,-1.0307434797286987,-0.9557176232337952,-1.355128288269043
1761379577225536000,3.999535888671875,-1.14284086227417,-0.7049764394760132,-1.5753761529922485
1761379577235562200,4.009562255859375,-1.2694772481918335,-0.35374557971954346,-1.6204582452774048
1761379577245563100,4.019563232421875,-1.2987381219863892,0.024397971108555794,-1.518669605255127
1761379577255614500,4.029614501953125,-1.2820175886154175,0.18226033449172974,-1.4550683498382568
1761379577265640200,4.03964013671875,-1.2603508234024048,0.16673889756202698,-1.487859845161438
1761379577275666700,4.049666748046875,-1.2108887434005737,0.10863342136144638,-1.5899982452392578
1761379577285692000,4.05969189453125,-1.119192361831665,0.1271858662366867,-1.7217472791671753
1761379577295677200,4.06967724609375,-0.9561173319816589,0.25663667917251587,-1.8209213018417358
1761379577305724000,4.079723876953125,-0.7091066241264343,0.4597310423851013,-1.8662365674972534
1761379577315771000,4.08977099609375,-0.4450756013393402,0.6679548025131226,-1.8368757963180542
1761379577325796600,4.099796630859375,-0.2945742607116699,0.8021020293235779,-1.719132661819458
1761379577335822600,4.109822509765625,-0.30085280537605286,0.8866372108459473,-1.5119746923446655
1761379577345848600,4.1198486328125,-0.3918830454349518,0.9567002058029175,-1.248443365097046
1761379577355874800,4.129874755859375,-0.4516039490699768,0.9683246612548828,-0.9018755555152893
1761379577365900300,4.139900390625,-0.43976300954818726,0.9150155186653137,-0.4415949285030365
1761379577375927000,4.149927001953125,-0.40157559514045715,0.761899471282959,0.13313131034374237
1761379577385953300,4.159953369140625,-0.37477946281433105,0.48536139726638794,0.7551047205924988
1761379577395979800,4.169979736328125,-0.3534125089645386,0.042983729392290115,1.302085518836975
1761379577406005000,4.1800048828125,-0.33207887411117554,-0.4679247736930847,1.6938186883926392
1761379577416031000,4.190031005859375,-0.3002699017524719,-0.9034076929092407,1.8950477838516235
1761379577426057200,4.20005712890625,-0.21283690631389618,-1.1977821588516235,1.9269400835037231
1761379577436083200,4.210083251953125,-0.1012224331498146,-1.2896617650985718,1.8355101346969604
1761379577446109700,4.220109619140625,-0.0019151991000398993,-1.1623259782791138,1.6797794103622437
1761379577456103700,4.230103759765625,0.07908939570188522,-0.8944312930107117,1.5150223970413208
1761379577466161400,4.240161376953125,0.1550312042236328,-0.5948441624641418,1.3680683374404907
1761379577476187600,4.250187744140625,0.2199980765581131,-0.3373248279094696,1.243630290031433
1761379577486191000,4.260191162109375,0.2566533386707306,-0.14040906727313995,1.1500353813171387
1761379577496240400,4.270240478515625,0.24897587299346924,0.0016653904458507895,1.0816378593444824
1761379577506265300,4.280265380859375,0.18552449345588684,0.08716654032468796,1.0169540643692017
1761379577516291600,4.29029150390625,0.06473372876644135,0.07722415775060654,0.9456586837768555
1761379577526295000,4.300294921875,-0.06298507004976273,-0.028578100726008415,0.8905509114265442
1761379577536344300,4.31034423828125,-0.18479172885417938,-0.20067955553531647,0.844369649887085
1761379577546369500,4.32036962890625,-0.2757387161254883,-0.37138208746910095,0.7995539903640747
1761379577556396000,4.33039599609375,-0.29820480942726135,-0.48752641677856445,0.7678616046905518
1761379577566422500,4.340422607421875,-0.25342246890068054,-0.5244314670562744,0.7421479821205139
1761379577576447700,4.35044775390625,-0.16402430832386017,-0.4301370680332184,0.7275591492652893
1761379577586474500,4.360474609375,-0.08110451698303223,-0.23646879196166992,0.7024117708206177
1761379577596500000,4.3705,-0.06708192825317383,0.008876531384885311,0.6145623922348022
1761379577606525700,4.380525634765625,-0.11689376085996628,0.19789835810661316,0.4820805788040161
1761379577616552700,4.390552734375,-0.19463418424129486,0.22699272632598877,0.36268875002861023
1761379577626540800,4.400540771484375,-0.2780369520187378,0.02817840687930584,0.30891329050064087
1761379577636603600,4.410603759765625,-0.35874176025390625,-0.31805628538131714,0.38726991415023804
1761379577646630700,4.420630615234375,-0.4327017664909363,-0.5612698793411255,0.5530428886413574
1761379577656633600,4.430633544921875,-0.43921342492103577,-0.6158280968666077,0.6455719470977783
1761379577666660000,4.44066015625,-0.3132266402244568,-0.6192754507064819,0.5538422465324402
1761379577676685800,4.450685791015625,-0.11291347444057465,-0.6718851327896118,0.2515239119529724
1761379577686733800,4.46073388671875,-0.023065658286213875,-0.7976221442222595,-0.17498257756233215
1761379577696738800,4.47073876953125,-0.1707857996225357,-1.0320924520492554,-0.5388870239257812
1761379577706786600,4.48078662109375,-0.527629017829895,-1.2690441608428955,-0.6459716558456421
1761379577716813300,4.490813232421875,-0.9433437585830688,-1.406022548675537,-0.5400861501693726
1761379577726839000,4.500839111328125,-1.1933022737503052,-1.5329086780548096,-0.4268728792667389
1761379577736864300,4.5108642578125,-1.0970426797866821,-1.7535063028335571,-0.35304611921310425
1761379577746890200,4.52089013671875,-0.7083405256271362,-1.9515877962112427,-0.21343643963336945
1761379577756916500,4.53091650390625,-0.2335377037525177,-2.0115087032318115,0.07779038697481155
1761379577766942500,4.5409423828125,0.17340046167373657,-1.8712327480316162,0.5877662897109985
1761379577776968700,4.55096875,0.5019320249557495,-1.525131344795227,1.2659965753555298
1761379577786995500,4.560995361328125,0.8195719718933105,-1.1155951023101807,1.9497559070587158
1761379577797021000,4.57102099609375,1.0906975269317627,-0.7425809502601624,2.4181969165802
1761379577807046400,4.58104638671875,1.2836164236068726,-0.41266709566116333,2.599691152572632
1761379577817041400,4.59104150390625,1.3304637670516968,-0.2635480463504791,2.4539527893066406
1761379577827099400,4.601099365234375,1.1580458879470825,-0.37749406695365906,1.954718828201294
1761379577837125000,4.611125,0.7697268128395081,-0.692752480506897,1.205642819404602
1761379577847151900,4.62115185546875,0.25378885865211487,-1.1494358777999878,0.386270672082901
1761379577857177900,4.631177734375,-0.35970768332481384,-1.5679984092712402,-0.3546948730945587
1761379577877229800,4.651229736328125,-1.2544220685958862,-1.454035758972168,-1.1644244194030762
1761379577887255000,4.661255126953125,-1.310445785522461,-1.1306003332138062,-1.2158682346343994
1761379577897240800,4.67124072265625,-1.1025384664535522,-0.6597278118133545,-1.0285451412200928
1761379577907308000,4.68130810546875,-0.7471441030502319,-0.09527698904275894,-0.6346803307533264
1761379577917334800,4.691334716796875,-0.3811246156692505,0.3736969828605652,-0.10716787725687027
1761379577927360800,4.70136083984375,-0.14722052216529846,0.649402379989624,0.3673851490020752
1761379577937385700,4.7113857421875,0.016304172575473785,0.6466377973556519,0.8864540457725525
1761379577947413000,4.7214130859375,0.043266844004392624,0.44530877470970154,1.399377703666687
1761379577957438500,4.7314384765625,-0.05410853773355484,0.11218070238828659,1.6839096546173096
1761379577967441700,4.741441650390625,-0.13797760009765625,-0.21789969503879547,1.7002637386322021
1761379577977469200,4.75146923828125,-0.13716155290603638,-0.3441862463951111,1.465177297592163
1761379577987499300,4.761499267578125,-0.008759954012930393,-0.2020118683576584,1.13118314743042
1761379577997521200,4.771521240234375,0.18718989193439484,0.162042498588562,0.8516806960105896
1761379578007545600,4.781545654296875,0.33665868639945984,0.6312329769134521,0.6962831020355225
1761379578017560300,4.791560302734375,0.4003598690032959,1.032808542251587,0.6704362630844116
1761379578027606300,4.801606201171875,0.4102689325809479,1.2822507619857788,0.7267431020736694
1761379578037631000,4.811630859375,0.3928489685058594,1.2654469013214111,0.8247846364974976
1761379578047671800,4.821671875,0.31958842277526855,1.0153552293777466,0.9175468683242798
1761379578057698600,4.831698486328125,0.19873104989528656,0.6430072784423828,0.9677417278289795
1761379578067724800,4.841724853515625,0.06251876056194305,0.18830570578575134,0.960847020149231
1761379578077751000,4.8517509765625,-0.04563169926404953,-0.21273697912693024,0.8772611021995544
1761379578087776800,4.86177685546875,-0.049112364649772644,-0.3755788505077362,0.7656632661819458
1761379578097802200,4.87180224609375,0.04842955619096756,-0.24328024685382843,0.6785467267036438
1761379578107829500,4.88182958984375,0.2205643206834793,0.11154785752296448,0.6314994096755981
1761379578117854500,4.8918544921875,0.4635947346687317,0.5649337768554688,0.6301504373550415
1761379578127880700,4.901880615234375,0.7252942323684692,0.9475739002227783,0.6944345235824585
1761379578137900000,4.911900146484375,0.905006468296051,1.1665561199188232,0.8270162343978882
1761379578147933000,4.921932861328125,0.9443596601486206,1.1717021465301514,1.0106921195983887
1761379578157959000,4.931958984375,0.8320457339286804,0.9159647822380066,1.1795461177825928
1761379578167968300,4.94196826171875,0.6064519286155701,0.4001433849334717,1.2706929445266724
1761379578178011600,4.95201171875,0.3382907807826996,-0.11509513854980469,1.2085905075073242
1761379578188037600,4.96203759765625,0.12497090548276901,-0.38693681359291077,1.0410189628601074
1761379578198063400,4.9720634765625,0.032291922718286514,-0.41872912645339966,0.8620727062225342
1761379578208089600,4.982089599609375,0.13194888830184937,-0.267345130443573,0.763481616973877
1761379578218114800,4.99211474609375,0.3879527151584625,0.05549081042408943,0.740565836429596
1761379578228141300,5.002141357421875,0.6429240107536316,0.2291743904352188,0.7322388887405396
1761379578238167800,5.012167724609375,0.6666058301925659,0.05415849760174751,0.6885390281677246
1761379578248193300,5.022193359375,0.4871267080307007,-0.11676052957773209,0.6549980640411377
1761379578258220000,5.032219970703125,0.4057057797908783,-0.03903675451874733,0.6373615860939026
1761379578268245800,5.042245849609375,0.39866116642951965,-0.1358625590801239,0.40685489773750305
1761379578278272000,5.05227197265625,0.36207255721092224,-0.30155226588249207,-0.20441003143787384
1761379578288297500,5.06229736328125,0.3113114535808563,-0.23946650326251984,-1.1618763208389282
1761379578298349300,5.072349365234375,0.41295021772384644,0.24995845556259155,-2.1614770889282227
1761379578308349200,5.08234912109375,0.7027448415756226,0.9979852437973022,-2.845053195953369
1761379578318376700,5.092376708984375,1.0150221586227417,1.4901248216629028,-3.118393659591675
1761379578328402000,5.10240185546875,1.2136366367340088,1.4834299087524414,-3.057140588760376
1761379578338424600,5.112424560546875,1.3262337446212769,1.2983384132385254,-2.7262275218963623
1761379578348458800,5.122458740234375,1.409369945526123,1.106035828590393,-2.22461199760437
1761379578358480400,5.13248046875,1.4010097980499268,1.072394847869873,-1.5993577241897583
1761379578368483600,5.142483642578125,1.2088569402694702,1.2029781341552734,-0.9581657648086548
1761379578378532600,5.15253271484375,0.7856146693229675,1.2775377035140991,-0.46914049983024597
1761379578388535600,5.16253564453125,0.24997511506080627,1.202744960784912,-0.15812882781028748
1761379578398584600,5.17258447265625,-0.25370559096336365,0.9640445709228516,0.015021822415292263
1761379578408610000,5.182610107421875,-0.6221232414245605,0.6579957604408264,0.12218970060348511
1761379578418636300,5.19263623046875,-0.8244182467460632,0.4409787356853485,0.23900018632411957
1761379578428662300,5.202662353515625,-0.8710991740226746,0.26239892840385437,0.3969458341598511
1761379578438689000,5.21268896484375,-0.7833663821220398,0.014289050363004208,0.6064352989196777
1761379578448381400,5.22238134765625,-0.5651003122329712,-0.2739400863647461,0.8700999021530151
1761379578461247000,5.2352470703125,-0.15722951292991638,-0.6005231738090515,1.2312397956848145
1761379578471272700,5.245272705078125,0.10938284546136856,-0.723079264163971,1.446358323097229
1761379578481300500,5.255300537109375,0.27355703711509705,-0.6746163964271545,1.6209079027175903
1761379578491324700,5.26532470703125,0.31154459714889526,-0.4072878956794739,1.686824083328247
1761379578501322200,5.275322265625,0.2891450822353363,0.005629019811749458,1.573610782623291
1761379578511378000,5.2853779296875,0.24584494531154633,0.41538169980049133,1.3350436687469482
1761379578521404000,5.29540380859375,0.19879765808582306,0.7084737420082092,1.0600377321243286
1761379578531428900,5.305428955078125,0.1622423380613327,0.8288481831550598,0.796955943107605
1761379578541456000,5.315455810546875,0.1315658539533615,0.7727078795433044,0.5678815245628357
1761379578551482000,5.325482177734375,0.10868338495492935,0.5702130198478699,0.3831563889980316
1761379578561508000,5.335508056640625,0.10736772418022156,0.23671860992908478,0.22907446324825287
1761379578571534600,5.34553466796875,0.09501052647829056,-0.20540925860404968,0.07590849697589874
1761379578581560300,5.355560302734375,0.06406757235527039,-0.6122807860374451,-0.10828369110822678
1761379578591585300,5.365585205078125,-0.007694104220718145,-0.8106787800788879,-0.3694002628326416
1761379578601595600,5.375595703125,-0.08363591134548187,-0.695500373840332,-0.7149688005447388
1761379578611637500,5.385637451171875,-0.13396401703357697,-0.34005609154701233,-1.0836195945739746
1761379578621664000,5.3956640625,-0.17694774270057678,0.115245021879673,-1.4042572975158691
1761379578631648500,5.4056484375,-0.22004804015159607,0.5524100065231323,-1.5869172811508179
1761379578641689000,5.415689208984375,-0.2574860155582428,0.822969377040863,-1.579439640045166
1761379578651722200,5.42572216796875,-0.27370691299438477,0.8273659944534302,-1.4133169651031494
1761379578661768700,5.435768798828125,-0.262748658657074,0.647820234298706,-1.1401762962341309
1761379578671795200,5.445795166015625,-0.2268095314502716,0.4032742977142334,-0.8192389011383057
1761379578681821000,5.455821044921875,-0.1823769062757492,0.18284322321414948,-0.5334245562553406
1761379578691846100,5.46584619140625,-0.16369123756885529,0.006578292232006788,-0.33505991101264954
1761379578701873000,5.475872802734375,-0.19010432064533234,-0.12487097829580307,-0.2291577309370041
1761379578711897900,5.48589794921875,-0.2562369704246521,-0.17884628474712372,-0.18379248678684235
1761379578721924000,5.495924072265625,-0.3511642515659332,-0.14965198934078217,-0.16247549653053284
1761379578731950000,5.5059501953125,-0.4491724669933319,-0.03635547310113907,-0.11810949444770813
1761379578741976300,5.515976318359375,-0.5181529521942139,0.11374616622924805,-0.02438131719827652
1761379578751981300,5.525981201171875,-0.5411853194236755,0.22053100168704987,0.12015791982412338
1761379578762029300,5.536029296875,-0.5306933522224426,0.2702762186527252,0.3168405294418335
1761379578772054800,5.5460546875,-0.5086601972579956,0.23210547864437103,0.5443328619003296
1761379578782081800,5.556081787109375,-0.47591865062713623,0.08931489288806915,0.761283278465271
1761379578792106000,5.56610595703125,-0.42380857467651367,-0.11749330163002014,0.9295210242271423
1761379578802132500,5.576132568359375,-0.3834395110607147,-0.2980216145515442,1.023815393447876
1761379578812158700,5.58615869140625,-0.37955915927886963,-0.3635047674179077,1.0185362100601196
1761379578822184700,5.596184814453125,-0.4088200628757477,-0.2872798442840576,0.9155650734901428
1761379578832211000,5.6062109375,-0.44484245777130127,-0.025397205725312233,0.7474772334098816
1761379578842236400,5.616236328125,-0.4870767593383789,0.38004210591316223,0.5628020763397217
1761379578852262700,5.6262626953125,-0.534423828125,0.8508480191230774,0.4093363285064697
1761379578862289200,5.6362890625,-0.5634515881538391,1.2635483741760254,0.31777316331863403
1761379578872315400,5.6463154296875,-0.5475304126739502,1.4686578512191772,0.2701263427734375
1761379578882342000,5.656341796875,-0.4753357470035553,1.3758790493011475,0.20865677297115326
1761379578892367400,5.666367431640625,-0.43038687109947205,1.0097262859344482,0.06481699645519257
1761379578902375200,5.676375244140625,-0.47188839316368103,0.5273792147636414,-0.18733978271484375
1761379578912419000,5.686419189453125,-0.571728527545929,0.11407924443483353,-0.5120076537132263
1761379578922446000,5.696446044921875,-0.6379944682121277,-0.14820310473442078,-0.8764950037002563
1761379578932448000,5.706447998046875,-0.6025716066360474,-0.2922593653202057,-1.282533884048462
1761379578942497300,5.716497314453125,-0.455900639295578,-0.3733472526073456,-1.693252444267273
1761379578952523000,5.72652294921875,-0.3094795048236847,-0.4050229787826538,-2.03900408744812
1761379578962549800,5.7365498046875,-0.31445902585983276,-0.46619275212287903,-2.213270664215088
1761379578972575700,5.74657568359375,-0.46086350083351135,-0.6243215799331665,-2.1397769451141357
1761379578982601700,5.756601806640625,-0.5860675573348999,-0.9781837463378906,-1.9522539377212524
1761379578992628000,5.7666279296875,-0.5990409851074219,-1.4906576871871948,-1.921011209487915
1761379579002654200,5.776654296875,-0.5250642895698547,-1.8938820362091064,-2.0747101306915283
1761379579012679400,5.786679443359375,-0.40901991724967957,-1.9447097778320312,-2.2222304344177246
1761379579022684000,5.796683837890625,-0.2692769765853882,-1.518319845199585,-2.147387742996216
1761379579032732000,5.80673193359375,-0.13817745447158813,-0.7846986651420593,-1.7956572771072388
1761379579042777300,5.81677734375,-0.04649770259857178,-0.07272760570049286,-1.2848987579345703
1761379579052784000,5.8267841796875,0.027545558288693428,0.3776772618293762,-0.7842490077018738
1761379579062787600,5.83678759765625,0.10750095546245575,0.515005350112915,-0.34347012639045715
1761379579072835800,5.8468359375,0.16047702729701996,0.37041616439819336,0.034290388226509094
1761379579082868700,5.85686865234375,0.11810949444770813,0.04358327016234398,0.31340983510017395
1761379579092888300,5.866888427734375,-0.031709033995866776,-0.38851895928382874,0.4447425305843353
1761379579102894600,5.87689453125,-0.2432635873556137,-0.9082207083702087,0.43121954798698425
1761379579122966800,5.896966796875,-0.6068516373634338,-1.7221137285232544,0.2506246268749237
1761379579132992300,5.9069921875,-0.6421079635620117,-1.7900116443634033,0.15634685754776
1761379579143019000,5.91701904296875,-0.5317592024803162,-1.5934122800827026,0.09124674648046494
1761379579153044000,5.9270439453125,-0.30140236020088196,-1.2224799394607544,0.0671318918466568
1761379579163029200,5.937029296875,-0.025813551619648933,-0.7570698857307434,0.0901142805814743
1761379579173075500,5.947075439453125,0.2370017170906067,-0.24059896171092987,0.17013628780841827
1761379579183118000,5.9571181640625,0.4440097510814667,0.2152184098958969,0.2863638997077942
1761379579193148400,5.9671484375,0.5684977173805237,0.5375547409057617,0.3820405900478363
1761379579203152100,5.977152099609375,0.6385606527328491,0.6675550937652588,0.4353663921356201
1761379579213179000,5.987178955078125,0.6549647450447083,0.601372480392456,0.43558287620544434
1761379579223204400,5.997204345703125,0.6360792517662048,0.34958210587501526,0.3632050156593323
1761379579233230300,6.007230224609375,0.5912136435508728,0.004046898800879717,0.2082737386226654
1761379579243250700,6.017250732421875,0.5325585603713989,-0.3090631663799286,0.02213303931057453
1761379579253280800,6.02728076171875,0.4731041193008423,-0.497268944978714,-0.11026550084352493
1761379579263310300,6.037310302734375,0.4343838095664978,-0.4752691388130188,-0.15146726369857788
1761379579273333000,6.0473330078125,0.436315655708313,-0.25913476943969727,-0.09780838340520859
1761379579283383800,6.0573837890625,0.47023966908454895,0.04701397195458412,0.04621458426117897
1761379579293393000,6.067392822265625,0.5124573111534119,0.33904018998146057,0.269093781709671
1761379579303423700,6.077423828125,0.5256472229957581,0.5538422465324402,0.539636492729187
1761379579313460500,6.08746044921875,0.5121575593948364,0.6870901584625244,0.8017023205757141
1761379579323487000,6.097487060546875,0.4842455983161926,0.6959999799728394,1.0054794549942017
1761379579333513200,6.10751318359375,0.4361158013343811,0.5430505275726318,1.1295177936553955
1761379579343539500,6.11753955078125,0.37736082077026367,0.2838824689388275,1.2023786306381226
1761379579353565400,6.1275654296875,0.3047164976596832,0.07619161158800125,1.2383843660354614
1761379579363580700,6.13758056640625,0.2159012258052826,0.028128445148468018,1.2551881074905396
1761379579373617400,6.147617431640625,0.14410623908042908,0.19441768527030945,1.3018523454666138
1761379579383643600,6.1576435546875,0.09182962775230408,0.5907306671142578,1.4594483375549316
1761379579393669600,6.167669677734375,0.0700463205575943,1.0573397874832153,1.735803246498108
1761379579403695400,6.1776953125,0.19836466014385223,1.3639215230941772,2.0225002765655518
1761379579413721900,6.187721923828125,0.4688074290752411,1.4164478778839111,2.14404034614563
1761379579423748400,6.197748291015625,0.8137097954750061,1.1479703187942505,2.0284621715545654
1761379579433762800,6.2077626953125,0.994404673576355,0.4559172987937927,1.5741603374481201
1761379579443800000,6.217800048828125,0.4906073808670044,-0.2150019109249115,0.5751925706863403
1761379579453825800,6.22782568359375,-0.5215336680412292,-0.3007528781890869,-0.9681581258773804
1761379579463842000,6.237842041015625,-1.6996809244155884,0.13076646625995636,-2.722613573074341
1761379579473878300,6.247878173828125,-2.831463575363159,0.8395400047302246,-3.9346683025360107
1761379579483904000,6.257904052734375,-3.475336790084839,1.6607773303985596,-4.0985426902771
1761379579493917000,6.2679169921875,-3.360707998275757,2.0690977573394775,-3.4844632148742676
1761379579503956200,6.277956298828125,-2.4668097496032715,1.7846324443817139,-2.6616437435150146
1761379579513982700,6.287982666015625,-1.1429075002670288,1.2569701671600342,-2.008094549179077
1761379579524008400,6.298008544921875,0.09662595391273499,0.8905842304229736,-1.8024687767028809
1761379579534024200,6.308024169921875,0.9693238735198975,0.4761184751987457,-2.132032871246338
1761379579544060200,6.31806005859375,1.45746648311615,-0.17991213500499725,-2.7126545906066895
1761379579554086700,6.328086669921875,1.659977912902832,-0.923941969871521,-3.107985019683838
1761379579564102000,6.338101806640625,1.5359396934509277,-1.489375352859497,-3.093662738800049
1761379579574138400,6.348138427734375,1.1271029710769653,-1.5783072710037231,-2.6197259426116943
1761379579584173000,6.358173095703125,0.6044368147850037,-1.1623259782791138,-1.8152756690979004
1761379579594190300,6.3681904296875,0.13831068575382233,-0.5572063326835632,-0.9274393320083618
1761379579604224300,6.378224365234375,-0.1521833837032318,-0.07079575210809708,-0.16628924012184143
1761379579614242000,6.388241943359375,-0.2636646330356598,0.21443568170070648,0.3256005048751831
1761379579624273400,6.3982734375,-0.2703261971473694,0.33595922589302063,0.5358560681343079
1761379579634294800,6.408294677734375,-0.20657503604888916,0.3256005048751831,0.5034309029579163
1761379579644320800,6.41832080078125,-0.04178464785218239,0.2606336176395416,0.3495321571826935
1761379579654329300,6.428329345703125,0.204593226313591,0.27440640330314636,0.19003771245479584
1761379579664373200,6.438373291015625,0.4387637674808502,0.39096707105636597,0.07560873031616211
1761379579674387200,6.44838720703125,0.5897814035415649,0.5723280906677246,0.07014624774456024
1761379579684425200,6.45842529296875,0.6348135471343994,0.7477436661720276,0.1555141657590866
1761379579694442000,6.46844189453125,0.6182762384414673,0.876611590385437,0.2840156853199005
1761379579704454400,6.478454345703125,0.5894483327865601,1.006345510482788,0.4253573715686798
1761379579714503000,6.4885029296875,0.5522101521492004,1.1174936294555664,0.5601540803909302
1761379579724529200,6.498529052734375,0.47918280959129333,1.0971258878707886,0.6776474118232727
1761379579734550500,6.508550537109375,0.37261447310447693,0.8812580108642578,0.7666957974433899
1761379579744582400,6.51858251953125,0.27299079298973083,0.5378045439720154,0.7970059514045715
1761379579764633000,6.538633056640625,0.15165045857429504,-0.06120309978723526,0.6031877994537354
1761379579774659600,6.54865966796875,0.10493625700473785,-0.1600273698568344,0.43676531314849854
1761379579784685300,6.558685302734375,0.0810878649353981,-0.0917130559682846,0.33875706791877747
1761379579794712000,6.568712158203125,0.06958001106977463,0.06738170236349106,0.28792935609817505
1761379579804738800,6.57873876953125,0.07890620082616806,0.22679287195205688,0.25911810994148254
1761379579814764000,6.588763916015625,0.12120711803436279,0.37013304233551025,0.27125880122184753
1761379579824790000,6.5987900390625,0.1847417652606964,0.5380710363388062,0.32388514280319214
1761379579834816300,6.608816162109375,0.2202145904302597,0.5976586937904358,0.39386484026908875
1761379579844842800,6.6188427734375,0.15041807293891907,0.3257337212562561,0.5089932680130005
1761379579854867500,6.628867431640625,-0.01269027590751648,-0.31132808327674866,0.7246114015579224
1761379579864889000,6.63888916015625,-0.18510815501213074,-1.0558909177780151,0.9829301238059998
1761379579874920700,6.648920654296875,-0.2862306535243988,-1.3714157342910767,1.2680116891860962
