time,seconds_elapsed,z,y,x
1761379928787563000,0.15556298828125,0.05350899696350098,-0.015021822415292263,-0.02696267142891884
1761379928797393700,0.1653935546875,0.0501948706805706,0.012990045361220837,-0.03750459477305412
1761379928807637200,0.17563720703125,0.036089010536670685,0.027478942647576332,-0.05777239426970482
1761379928817662500,0.185662353515625,0.011341309174895287,0.028994448482990265,-0.07104555517435074
1761379928827699000,0.195698974609375,-0.014322358183562756,0.01185758039355278,-0.08098793774843216
1761379928837713400,0.20571337890625,-0.027478942647576332,-0.015671323984861374,-0.09091366827487946
1761379928847728600,0.215728759765625,-0.028877871111035347,-0.03936983272433281,-0.10035642981529236
1761379928857766100,0.22576611328125,-0.021217074245214462,-0.04546516016125679,-0.10873334109783173
1761379928867792600,0.235792724609375,-0.00634513795375824,-0.030026990920305252,-0.10994908213615417
1761379928877818400,0.245818359375,0.015538093633949757,-0.004629785660654306,-0.09699234366416931
1761379928887832800,0.255832763671875,0.03648870438337326,0.014921898953616619,-0.06413418799638748
1761379928897864700,0.26586474609375,0.04666424170136452,0.017753062769770622,-0.012756891548633575
1761379928907894800,0.275894775390625,0.05440830811858177,0.015771247446537018,0.041518185287714005
1761379928917910000,0.285909912109375,0.06593281030654907,0.006678215693682432,0.08743300288915634
1761379928927944400,0.2959443359375,0.07226129621267319,-0.0222163088619709,0.11712691187858582
1761379928937961200,0.305961181640625,0.07515907287597656,-0.05177699029445648,0.12368854880332947
1761379928947996700,0.31599658203125,0.07927259057760239,-0.06385107338428497,0.11078177392482758
1761379928958011100,0.32601123046875,0.0794890895485878,-0.06346803158521652,0.0837191790342331
1761379928968047600,0.336047607421875,0.07316060364246368,-0.05449157580733299,0.05106087401509285
1761379928978076700,0.34607666015625,0.060353752225637436,-0.04225095734000206,0.01903541386127472
1761379928988099600,0.356099609375,0.04904574900865555,-0.02942745015025139,-0.01160777173936367
1761379928998117600,0.36611767578125,0.036338821053504944,-0.021633422002196312,-0.036555320024490356
1761379929008129500,0.376129638671875,0.02621324546635151,0.00039969373028725386,-0.04270061105489731
1761379929018173700,0.386173583984375,0.021566806361079216,0.026579631492495537,-0.029743874445557594
1761379929028202800,0.39620263671875,0.017469946295022964,0.033091310411691666,-0.008110451512038708
1761379929038227500,0.4062275390625,0.01820271834731102,0.014322358183562756,0.013789433054625988
1761379929048248600,0.41624853515625,0.023148927837610245,-0.010242151096463203,0.02609666809439659
1761379929058278400,0.4262783203125,0.02604670636355877,-0.032874807715415955,0.02667955495417118
1761379929068304600,0.4363046875,0.024248085916042328,-0.049079056829214096,0.017852986231446266
1761379929078330000,0.446330078125,0.026579631492495537,-0.04846286401152611,0.0012157351011410356
1761379929088366300,0.456366455078125,0.03219199925661087,-0.04145156964659691,-0.020900649949908257
1761379929098381300,0.46638134765625,0.037088245153427124,-0.03835394233465195,-0.04906240478157997
1761379929108407000,0.476406982421875,0.04041902720928192,-0.04098526015877724,-0.06781470030546188
1761379929118421200,0.486421142578125,0.0407521054148674,-0.039303217083215714,-0.06584954261779785
1761379929128458200,0.496458251953125,0.04341673105955124,-0.028328292071819305,-0.03607235848903656
1761379929138484500,0.506484375,0.03848717361688614,-0.022815849632024765,0.01022549718618393
1761379929148510200,0.51651025390625,0.02842821553349495,-0.028128445148468018,0.05172702670097351
1761379929158532600,0.52653271484375,0.017986217513680458,-0.032874807715415955,0.07903943210840225
1761379929168551000,0.536551025390625,0.003630551276728511,-0.04025248810648918,0.08771611750125885
1761379929178587000,0.5465869140625,-0.011374616995453835,-0.04178464785218239,0.07920597493648529
1761379929188583700,0.556583740234375,-0.015338246710598469,-0.030343415215611458,0.06007063388824463
1761379929198638300,0.566638427734375,-0.010658498853445053,-0.023398736491799355,0.03570597246289253
1761379929208653600,0.576653564453125,-0.006378445774316788,-0.028411561623215675,0.010625191032886505
1761379929218678800,0.5866787109375,-0.005495788529515266,-0.0317256897687912,-0.004962863866239786
1761379929228715000,0.596715087890625,-0.005162710323929787,-0.033674195408821106,-0.007361026015132666
1761379929238741200,0.6067412109375,-0.011074846610426903,-0.03435700386762619,-0.0026313168928027153
1761379929248746500,0.61674658203125,-0.017103560268878937,-0.030110260471701622,0.007144525181502104
1761379929258795500,0.62679541015625,-0.015721285715699196,-0.027312403544783592,0.016170941293239594
1761379929268820500,0.636820556640625,-0.011674387380480766,-0.03069314733147621,0.025397205725312233
1761379929278844400,0.646844482421875,-0.007760719861835241,-0.03703828528523445,0.03543950989842415
1761379929288873500,0.65687353515625,-0.004746363032609224,-0.04689739644527435,0.04388304054737091
1761379929298897200,0.666897216796875,-0.003247511340305209,-0.05594046786427498,0.05069448798894882
1761379929308920800,0.6769208984375,-0.007777373772114515,-0.06078675389289856,0.05002833157777786
1761379929318926000,0.686926025390625,-0.015504785813391209,-0.05787231773138046,0.04038571938872337
1761379929328972000,0.696971923828125,-0.023981623351573944,-0.05044467747211456,0.016021056100726128
1761379929338998500,0.70699853515625,-0.03205876797437668,-0.040602218359708786,-0.01317323837429285
1761379929349014000,0.717013916015625,-0.032924771308898926,-0.021433575078845024,-0.03513973951339722
1761379929359051000,0.727051025390625,-0.028661370277404785,0.0021816615480929613,-0.04225095734000206
1761379929369078300,0.737078369140625,-0.02659628540277481,0.007760719861835241,-0.03778770938515663
1761379929379106600,0.7471064453125,-0.026080014184117317,-0.015171707607805729,-0.024481240659952164
1761379929389119000,0.757118896484375,-0.027961906045675278,-0.05014490708708763,-0.0082436827942729
1761379929399130600,0.767130615234375,-0.030293453484773636,-0.07790696620941162,-0.002314892830327153
1761379929409185500,0.777185546875,-0.031209418550133705,-0.08190390467643738,-0.011974157765507698
1761379929419187000,0.78718701171875,-0.027612173929810524,-0.05923793837428093,-0.03402392938733101
1761379929429228500,0.797228515625,-0.019651608541607857,-0.019301876425743103,-0.05785566568374634
1761379929439254500,0.807254638671875,-0.002847817726433277,0.03573928028345108,-0.07076244056224823
1761379929449286700,0.81728662109375,0.018402565270662308,0.07386007159948349,-0.060387060046195984
1761379929459306200,0.82730615234375,0.04156814515590668,0.07978885620832443,-0.027995213866233826
1761379929469331500,0.83733154296875,0.06015390530228615,0.044815659523010254,0.020900649949908257
1761379929479357400,0.847357421875,0.07027947902679443,-0.016104325652122498,0.06959667056798935
1761379929489383400,0.857383544921875,0.07287748903036118,-0.07367687672376633,0.09825804084539413
1761379929499408400,0.867408447265625,0.07364356517791748,-0.10225497931241989,0.10192190110683441
1761379929509434000,0.87743408203125,0.07054594159126282,-0.09689241647720337,0.0828198716044426
1761379929519456000,0.8874560546875,0.06571631133556366,-0.05790562555193901,0.05482465401291847
1761379929529485600,0.897485595703125,0.062268950045108795,0.0019651607144623995,0.03085968643426895
1761379929539511300,0.90751123046875,0.05995405837893486,0.04751358926296234,0.02075076475739479
1761379929549537300,0.917537353515625,0.05364222824573517,0.05903809145092964,0.02033441700041294
1761379929559552800,0.927552734375,0.04789663106203079,0.049611981958150864,0.029111025854945183
1761379929569588500,0.93758837890625,0.04369984567165375,0.029127679765224457,0.04419946298003197
1761379929579603200,0.947603271484375,0.03227526694536209,0.004296707455068827,0.054341692477464676
1761379929589635800,0.9576357421875,0.01144123263657093,-0.016504019498825073,0.0522766076028347
1761379929599661800,0.967661865234375,-0.009559341706335545,-0.01547147799283266,0.034623466432094574
1761379929609691100,0.977691162109375,-0.018885528668761253,0.007860642857849598,0.006944678258150816
1761379929619719000,0.987718994140625,-0.02291577309370041,0.02851148508489132,-0.0197515320032835
1761379929629742600,0.99774267578125,-0.025397205725312233,0.04111849144101143,-0.03502316027879715
1761379929639757600,1.007757568359375,-0.021433575078845024,0.050161562860012054,-0.03720482438802719
1761379929649784000,1.0177841796875,-0.011724349111318588,0.05344238132238388,-0.025280628353357315
1761379929659821300,1.0278212890625,-0.008759954012930393,0.042517419904470444,-0.007677450310438871
1761379929669847600,1.03784765625,-0.006245214492082596,0.02196650020778179,0.012557044625282288
1761379929679873800,1.047873779296875,-0.004929556045681238,0.008293644525110722,0.02468108758330345
1761379929689897500,1.0578974609375,-0.005728943273425102,0.0016986982664093375,0.02687940187752247
1761379929699917300,1.067917236328125,-0.006228560581803322,0.007794027682393789,0.019851455464959145
1761379929709938400,1.0779384765625,-0.007111217360943556,0.0300602987408638,0.00807714369148016
1761379929719963400,1.08796337890625,-0.014289050363004208,0.052709609270095825,0.0011324655497446656
1761379929730000100,1.098000244140625,-0.022349540144205093,0.07224463671445847,-0.003530627815052867
1761379929740024800,1.10802490234375,-0.028378253802657127,0.09521037340164185,-0.00654498441144824
1761379929750039800,1.118039794921875,-0.03898679092526436,0.10903311520814896,-0.006428407039493322
1761379929760080400,1.128080322265625,-0.05555742606520653,0.1039203628897667,-0.008709992282092571
1761379929770107100,1.138107177734375,-0.074143186211586,0.08222033083438873,-0.016587289050221443
1761379929780115200,1.148115234375,-0.08425210416316986,0.07106221467256546,-0.028361599892377853
1761379929790158800,1.158158935546875,-0.09004766494035721,0.06926359236240387,-0.03735470771789551
1761379929800186400,1.168186279296875,-0.09412787109613419,0.050910986959934235,-0.054624807089567184
1761379929810205400,1.178205322265625,-0.07224463671445847,0.07367687672376633,-0.0824035182595253
1761379929820219600,1.1882197265625,-0.0185357965528965,0.12790198624134064,-0.10605206340551376
1761379929830256600,1.198256591796875,0.02972722053527832,0.1691204011440277,-0.1287013739347458
1761379929840282000,1.2082822265625,0.07933920621871948,0.20807388424873352,-0.14327354729175568
1761379929850306600,1.218306640625,0.12352201342582703,0.19984686374664307,-0.13033345341682434
1761379929860333600,1.22833349609375,0.1435566544532776,0.14836964011192322,-0.09356163442134857
1761379929870358800,1.23835888671875,0.16434073448181152,0.09089701622724533,-0.03857044503092766
1761379929880384800,1.248384765625,0.1848083883523941,0.0037304747384041548,0.019968030974268913
1761379929890400500,1.258400390625,0.19491730630397797,-0.08581756800413132,0.0837191790342331
1761379929900428500,1.268428466796875,0.19490064680576324,-0.1491856724023819,0.14350669085979462
1761379929910461700,1.278461669921875,0.1717517226934433,-0.1834261119365692,0.18442533910274506
1761379929920488700,1.28848876953125,0.135712668299675,-0.19221937656402588,0.20192860066890717
1761379929930513200,1.29851318359375,0.10158882290124893,-0.16455723345279694,0.18669027090072632
1761379929940539400,1.308539306640625,0.07557541877031326,-0.09209609031677246,0.13591252267360687
1761379929950553600,1.3185537109375,0.04308365285396576,-0.011541156098246574,0.08130436390638351
1761379929960590600,1.328590576171875,0.0016487365355715156,0.04453254118561745,0.029660604894161224
1761379929970616000,1.338615966796875,-0.029993683099746704,0.0832362174987793,-0.004163476172834635
1761379929980641500,1.3486416015625,-0.03983613848686218,0.10107254981994629,-0.01607101783156395
1761379929990667500,1.35866748046875,-0.03973621875047684,0.09284552186727524,-0.006977986078709364
1761379930000683300,1.368683349609375,-0.03267496079206467,0.08621726185083389,0.016837097704410553
1761379930010718700,1.37871875,-0.01703694462776184,0.09720884263515472,0.056256890296936035
1761379930020736500,1.388736572265625,-0.004130168352276087,0.10132236033678055,0.10358728468418121
1761379930030771200,1.398771240234375,0.004879594314843416,0.08225363492965698,0.14737039804458618
1761379930040798700,1.408798828125,0.012124042958021164,0.04764682054519653,0.17180168628692627
1761379930050822700,1.41882275390625,0.03102622553706169,0.033874042332172394,0.17046937346458435
1761379930060848400,1.428848388671875,0.05549081042408943,0.032092075794935226,0.15213342010974884
1761379930070874000,1.4388740234375,0.0762915387749672,0.021650075912475586,0.12800191342830658
1761379930080890600,1.448890625,0.08446860313415527,-0.0019984685350209475,0.10075612366199493
1761379930090924500,1.458924560546875,0.08280321210622787,-0.028078483417630196,0.07505914568901062
1761379930100938500,1.4689384765625,0.07216136902570724,-0.05294276401400566,0.05840524286031723
1761379930110964500,1.478964599609375,0.05399195849895477,-0.060470327734947205,0.04926225170493126
1761379930121001000,1.4890009765625,0.032708268612623215,-0.05214337632060051,0.045481812208890915
1761379930131037200,1.499037109375,0.015071784146130085,-0.03252507746219635,0.042267609387636185
1761379930141052400,1.509052490234375,0.002814509905874729,-0.011074846610426903,0.03752124682068825
1761379930151081700,1.519081787109375,-0.009059724397957325,0.002981049008667469,0.03055991604924202
1761379930161110000,1.529110107421875,-0.0230490043759346,0.0038637060206383467,0.02103388123214245
1761379930171103700,1.539103759765625,-0.03572262451052666,-0.006861408706754446,0.0054624807089567184
1761379930181159400,1.549159423828125,-0.04346669092774391,-0.022349540144205093,-0.020017992705106735
1761379930191184100,1.55918408203125,-0.046064700931310654,-0.030010337010025978,-0.05389203503727913
1761379930201183500,1.56918359375,-0.03712155297398567,-0.020817380398511887,-0.08423545211553574
1761379930211222300,1.57922216796875,-0.028378253802657127,-0.01160777173936367,-0.09784168750047684
1761379930221258000,1.589258056640625,-0.024731049314141273,-0.007244448643177748,-0.08994773775339127
1761379930231284000,1.599283935546875,-0.020134570077061653,-0.011491194367408752,-0.06350133568048477
1761379930241310000,1.60931005859375,-0.01244046725332737,-0.022949080914258957,-0.028045175597071648
1761379930251335000,1.6193349609375,-0.006728177424520254,-0.03637212887406349,0.002331546740606427
1761379930261358300,1.6293583984375,-0.002981049008667469,-0.04561504349112511,0.01673717424273491
1761379930271386600,1.63938671875,-0.0013489662669599056,-0.045731622725725174,0.015071784146130085
1761379930281417700,1.649417724609375,-0.00046630934230051935,-0.04100191220641136,0.0019318530103191733
1761379930291438600,1.6594384765625,-0.0026146629825234413,-0.0280118677765131,-0.016420749947428703
1761379930301458400,1.66945849609375,-0.009192955680191517,-0.006111983209848404,-0.03210872784256935
1761379930311489300,1.6794892578125,-0.020850688219070435,0.008043835870921612,-0.044232770800590515
1761379930321515000,1.689514892578125,-0.030176876112818718,0.010192189365625381,-0.04822970926761627
1761379930331529700,1.69952978515625,-0.02914433367550373,0.010358728468418121,-0.039553023874759674
1761379930341566500,1.70956640625,-0.020734110847115517,0.004679747391492128,-0.018102794885635376
1761379930351592400,1.719592529296875,-0.011457886546850204,-0.012557044625282288,0.008393567986786366
1761379930361617700,1.72961767578125,-0.0016820443561300635,-0.030793070793151855,0.033091310411691666
1761379930371635700,1.7396357421875,0.009925727732479572,-0.03768778592348099,0.0515105277299881
1761379930381669000,1.749669189453125,0.014488897286355495,-0.03605570271611214,0.05612365901470184
1761379930391695000,1.759695068359375,0.016687212511897087,-0.030176876112818718,0.047863323241472244
1761379930401710300,1.76971044921875,0.01986810937523842,-0.019268568605184555,0.032541729509830475
1761379930411746300,1.779746337890625,0.027645481750369072,-0.01102488487958908,0.015071784146130085
1761379930421772500,1.7897724609375,0.04053560271859169,-0.00004996171628590673,0.00046630934230051935
1761379930431796700,1.799796630859375,0.04989510029554367,0.009142993949353695,0.0001498851488577202
1761379930441824000,1.809823974609375,0.04584819823503494,0.003197549842298031,0.011041538789868355
1761379930451850800,1.819850830078125,0.03299138695001602,-0.01260700635612011,0.028961140662431717
1761379930461852700,1.829852783203125,0.02224961668252945,-0.0259634368121624,0.04349999874830246
1761379930471902000,1.83990185546875,0.015171707607805729,-0.030709801241755486,0.045198697596788406
1761379930481925000,1.849925048828125,0.00954268779605627,-0.027645481750369072,0.02529728226363659
1761379930491950600,1.85995068359375,0.00920960959047079,-0.012906775809824467,-0.005629019811749458
1761379930501986800,1.86998681640625,0.010775076225399971,0.004063552711158991,-0.040435679256916046
1761379930512001800,1.880001708984375,0.009043070487678051,0.013473008759319782,-0.06966328620910645
1761379930522028500,1.890028564453125,0.0075608729384839535,0.02208307757973671,-0.0840022936463356
1761379930532049700,1.900049560546875,0.0053459033370018005,0.0280118677765131,-0.07597511261701584
1761379930542083300,1.910083251953125,0.0014155819080770016,0.027445634827017784,-0.05289280042052269
1761379930552104000,1.92010400390625,0.0006994639988988638,0.023232197389006615,-0.02066749520599842
1761379930562119200,1.930119140625,-0.0012823506258428097,0.0075941807590425014,0.006844754796475172
1761379930572166400,1.94016650390625,-0.002381508471444249,-0.012973391450941563,0.020900649949908257
1761379930582184700,1.950184814453125,-0.003097626380622387,-0.03294142335653305,0.018485834822058678
1761379930592209000,1.960208984375,-0.00018319295486435294,-0.04576493054628372,-0.0017153521766886115
1761379930602223400,1.970223388671875,0.0044465926475822926,-0.03945310041308403,-0.0296772588044405
1761379930612259600,1.980259521484375,0.006778139155358076,-0.018236026167869568,-0.05673985555768013
1761379930622285600,1.99028564453125,0.00584552064538002,0.008726646192371845,-0.07404325902462006
1761379930632300800,2.00030078125,0.007077909540385008,0.02726244181394577,-0.07356029748916626
1761379930642337000,2.0103369140625,0.006111983209848404,0.024414625018835068,-0.06450057029724121
1761379930652361700,2.02036181640625,-0.0010325420880690217,0.008643376640975475,-0.0432501919567585
1761379930662373000,2.030373046875,-0.007727412041276693,-0.010192189365625381,-0.01753656193614006
1761379930672413200,2.0404130859375,-0.013689509592950344,-0.02826167643070221,0.0020484302658587694
1761379930682439700,2.050439697265625,-0.016470711678266525,-0.03615562617778778,0.012140696868300438
1761379930692465700,2.060465576171875,-0.01820271834731102,-0.03272492438554764,0.013856048695743084
1761379930702470000,2.070469970703125,-0.020517610013484955,-0.02238284796476364,0.007361026015132666
1761379930712497400,2.080497314453125,-0.015021822415292263,-0.004629785660654306,0.00011657733557512984
1761379930722542300,2.090542236328125,-0.004629785660654306,-0.0018652373692020774,-0.0045132082886993885
1761379930732556800,2.100556884765625,0.0012823506258428097,-0.004746363032609224,-0.009242917411029339
1761379930742593800,2.11059375,0.0082436827942729,0.003097626380622387,-0.008859877474606037
1761379930752620300,2.120620361328125,0.010941615328192711,0.013706163503229618,0.004163476172834635
1761379930762645000,2.13064501953125,0.004912902135401964,0.003214203519746661,0.023065658286213875
1761379930772661200,2.1406611328125,-0.0013989279977977276,-0.013156584464013577,0.03852048143744469
1761379930782697000,2.150697021484375,0.0016154287150129676,-0.02296573482453823,0.042317572981119156
1761379930792707800,2.160707763671875,0.006844754796475172,-0.02917764149606228,0.034456927329301834
1761379930802748000,2.170747802734375,0.0020650841761380434,-0.03377411887049675,0.015454824082553387
1761379930812774000,2.18077392578125,-0.004962863866239786,-0.021799961104989052,-0.0018818912794813514
1761379930822802700,2.190802734375,-0.0072111408226192,0.002931087277829647,-0.012140696868300438
1761379930832818000,2.20081787109375,-0.0045298621989786625,0.03817075118422508,-0.006928024347871542
1761379930842824700,2.21082470703125,0.0005828866851516068,0.05027813836932182,0.012623660266399384
1761379930852880000,2.2208798828125,0.003164242021739483,0.025230666622519493,0.032591693103313446
1761379930862902000,2.230902099609375,0.005229325965046883,-0.022116385400295258,0.044982198625802994
1761379930872927200,2.24092724609375,0.008510145358741283,-0.05812212824821472,0.04056891053915024
1761379930882943200,2.250943115234375,0.00920960959047079,-0.066648930311203,0.021700037643313408
1761379930892979200,2.260979248046875,0.0005329249543137848,-0.05615696683526039,-0.004946209955960512
1761379930902993700,2.27099365234375,-0.014355666004121304,-0.04071879759430885,-0.031076187267899513
1761379930913030400,2.281030517578125,-0.02463112585246563,-0.0185357965528965,-0.052076760679483414
1761379930923057000,2.291056884765625,-0.0255470909178257,0.010641844943165779,-0.06263533234596252
1761379930933075000,2.301074951171875,-0.024897588416934013,0.0354728177189827,-0.05730608478188515
1761379930943112000,2.31111181640625,-0.028211714699864388,0.03852048143744469,-0.04216768592596054
1761379930953123000,2.321123046875,-0.032958079129457474,0.01978483982384205,-0.027145864441990852
1761379930963137800,2.3311376953125,-0.03440696746110916,-0.0053958650678396225,-0.018402565270662308
1761379930973165000,2.3411650390625,-0.03315792605280876,-0.025363897904753685,-0.021017227321863174
1761379930983211800,2.351211669921875,-0.030276799574494362,-0.03184226527810097,-0.029277564957737923
1761379930993228300,2.361228271484375,-0.02989375963807106,-0.029077718034386635,-0.039386484771966934
1761379931003261400,2.371261474609375,-0.03299138695001602,-0.018236026167869568,-0.0448489673435688
1761379931013277000,2.38127685546875,-0.03488992899656296,-0.0045132082886993885,-0.04086868092417717
1761379931023312600,2.391312744140625,-0.036721859127283096,-0.004629785660654306,-0.030076952651143074
1761379931033339100,2.401339111328125,-0.040302447974681854,-0.01177431084215641,-0.012623660266399384
1761379931043364600,2.411364501953125,-0.04333345964550972,-0.015488131903111935,0.013906010426580906
1761379931053390000,2.42139013671875,-0.04756355285644531,-0.02125038206577301,0.04041902720928192
1761379931063424500,2.431424560546875,-0.05375880375504494,-0.02814509905874729,0.055624041706323624
1761379931073441500,2.441441650390625,-0.055257655680179596,-0.030010337010025978,0.05877162888646126
1761379931083467300,2.45146728515625,-0.05695635452866554,-0.028211714699864388,0.052626337856054306
1761379931093482800,2.461482666015625,-0.06306833773851395,-0.025813551619648933,0.036505360156297684
1761379931103507500,2.471507568359375,-0.06874731928110123,-0.015638016164302826,0.011091500520706177
1761379931113540600,2.48154052734375,-0.06200248748064041,0.007893950678408146,-0.015704631805419922
1761379931123570000,2.49156982421875,-0.05051129311323166,0.03185892105102539,-0.0350564680993557
1761379931133589000,2.501589111328125,-0.04270061105489731,0.03437365964055061,-0.041651416569948196
1761379931143620600,2.51162060546875,-0.03657197579741478,0.02571362815797329,-0.03687174618244171
1761379931153636000,2.521635986328125,-0.03052660822868347,0.01698698289692402,-0.019601646810770035
1761379931163655000,2.531655029296875,-0.027778713032603264,0.006228560581803322,0.0007827335502952337
1761379931173698000,2.541697998046875,-0.029910413548350334,-0.01047530584037304,0.01703694462776184
1761379931183723800,2.551723876953125,-0.029160987585783005,-0.02288246527314186,0.025164050981402397
1761379931193749000,2.5617490234375,-0.02626320719718933,-0.024997511878609657,0.02659628540277481
1761379931203767000,2.57176708984375,-0.020634187385439873,-0.02233288623392582,0.019151991233229637
1761379931213805000,2.58180517578125,-0.01292342972010374,-0.020817380398511887,-0.00008326952229253948
1761379931223829000,2.5918291015625,-0.002981049008667469,-0.010658498853445053,-0.020467648282647133
1761379931233834000,2.601833984375,0.005079440772533417,0.0005662327748723328,-0.03222530707716942
1761379931243879200,2.611879150390625,0.0026979325339198112,0.0045132082886993885,-0.03330780938267708
1761379931253905700,2.62190576171875,0.0007660796400159597,0.006594946142286062,-0.023282159119844437
1761379931263913500,2.63191357421875,0.0010325420880690217,0.01119142398238182,-0.010525267571210861
1761379931273955600,2.64195556640625,0.004746363032609224,0.016520673409104347,-0.003397396532818675
1761379931283969800,2.6519697265625,0.00481297867372632,0.013722817413508892,0.0038803599309176207
1761379931294006500,2.662006591796875,-0.00019984686514362693,0.0012157351011410356,0.015854516997933388
1761379931304023300,2.672023193359375,-0.004146822262555361,-0.015354900620877743,0.03114280290901661
1761379931314060000,2.68206005859375,0.0003497319994494319,-0.031542494893074036,0.03802086412906647
1761379931324089300,2.69208935546875,0.010958269238471985,-0.04338342323899269,0.03497320041060448
1761379931334122500,2.70212255859375,0.02091730386018753,-0.03612231835722923,0.023948315531015396
1761379931344123000,2.712122802734375,0.025114089250564575,-0.01417247299104929,0.01144123263657093
1761379931354176800,2.7221767578125,0.01598774828016758,0.004979517310857773,-0.0009326186846010387
1761379931364181200,2.73218115234375,0.0037970903795212507,0.015138399787247181,-0.016720520332455635
1761379931374207200,2.742207275390625,-0.0003164241788908839,0.02526397444307804,-0.03454019874334335
1761379931384227600,2.7522275390625,0.0011158116394653916,0.037804365158081055,-0.05071114003658295
1761379931394254000,2.762254150390625,0.006511676590889692,0.05349234119057655,-0.04879594221711159
1761379931404289300,2.772289306640625,0.007810681592673063,0.05589050427079201,-0.02571362815797329
1761379931414315300,2.782315185546875,0.0019651607144623995,0.026829440146684647,0.0053459033370018005
1761379931424340000,2.792340087890625,0.0013489662669599056,-0.010175535455346107,0.029210949316620827
1761379931434363100,2.802363037109375,0.010758422315120697,-0.030176876112818718,0.03637212887406349
1761379931444391700,2.8123916015625,0.011824272572994232,-0.03712155297398567,0.018985452130436897
1761379931454417700,2.822417724609375,0.010908307507634163,-0.025330590084195137,-0.009342840872704983
1761379931464438800,2.832438720703125,0.012756891548633575,-0.0020317763555794954,-0.036971669644117355
1761379931474459000,2.842458984375,0.008959800936281681,0.01590447872877121,-0.06023717299103737
1761379931484494800,2.852494873046875,0.002964395098388195,0.031575802713632584,-0.07057924568653107
1761379931494516200,2.86251611328125,0.0053292494267225266,0.037587862461805344,-0.06614930927753448
1761379931504547600,2.872547607421875,0.007410987745970488,0.029610643163323402,-0.049079056829214096
1761379931514571500,2.882571533203125,0.005179364234209061,0.01292342972010374,-0.022849157452583313
1761379931524595500,2.892595458984375,0.004280053544789553,-0.0044465926475822926,0.002448124112561345
1761379931534623000,2.902623046875,0.010441998019814491,-0.01244046725332737,0.023098966106772423
1761379931544638200,2.91263818359375,0.01119142398238182,-0.012990045361220837,0.033590927720069885
1761379931554674400,2.92267431640625,0.012357197701931,-0.00601205974817276,0.028328292071819305
1761379931564704000,2.9327041015625,0.014139165170490742,0.008610068820416927,0.013406393118202686
1761379931574725400,2.942725341796875,0.015105091966688633,0.01392266433686018,-0.00704460171982646
1761379931584751000,2.952751220703125,0.012573698535561562,0.010075611993670464,-0.029444104060530663
1761379931594778600,2.962778564453125,0.008926493115723133,0.013955972157418728,-0.05021152272820473
1761379931604793300,2.97279345703125,0.018002871423959732,0.04351665452122688,-0.07642477005720139
1761379931614829300,2.982829345703125,0.017803024500608444,0.060020674020051956,-0.08290313929319382
1761379931624856600,2.992856689453125,0.0053125955164432526,0.046314507722854614,-0.06408422440290451
1761379931634872800,3.002872802734375,-0.0061785988509655,0.027645481750369072,-0.034173812717199326
1761379931644893400,3.0128935546875,-0.003280819160863757,0.0012656967155635357,-0.006495022680610418
1761379931654931000,3.022930908203125,-0.0006495022680610418,-0.01383939478546381,0.008426875807344913
1761379931664957000,3.03295703125,-0.0038137442898005247,-0.02324885129928589,0.014988514594733715
1761379931674982700,3.042982666015625,-0.007810681592673063,-0.023015696555376053,0.016587289050221443
1761379931685008400,3.05300830078125,-0.01135796308517456,-0.010491959750652313,0.01673717424273491
1761379931695020500,3.0630205078125,-0.01160777173936367,0.0054624807089567184,0.011624425649642944
1761379931705049000,3.073049072265625,-0.010591883212327957,0.009259571321308613,0.0011158116394653916
1761379931715089000,3.0830888671875,-0.010192189365625381,0.005079440772533417,-0.009342840872704983
1761379931725110000,3.093110107421875,-0.007327718194574118,0.003330780891701579,-0.018136102706193924
1761379931735123500,3.10312353515625,-0.006195252761244774,-0.003447358263656497,-0.022566040977835655
1761379931745176800,3.1131767578125,-0.007710758130997419,-0.00704460171982646,-0.026329822838306427
1761379931755204600,3.12320458984375,-0.0045298621989786625,0.004879594314843416,-0.027379019185900688
1761379931765215000,3.133215087890625,-0.0001498851488577202,0.020434340462088585,-0.020684149116277695
1761379931775239700,3.14323974609375,-0.004063552711158991,0.017436638474464417,-0.009825804270803928
1761379931785266000,3.153265869140625,-0.009126340039074421,0.008193721063435078,-0.0011657733703032136
1761379931795291600,3.163291748046875,-0.0026146629825234413,0.00987576600164175,0.003031010739505291
1761379931805318000,3.17331787109375,0.007111217360943556,0.008460183627903461,0.002964395098388195
1761379931815343900,3.18334375,0.007660796400159597,-0.002414816292002797,0.0016320826252922416
1761379931825370000,3.1933701171875,0.002931087277829647,-0.014239088632166386,-0.003497319994494319
1761379931835395800,3.203395751953125,-0.003980283159762621,-0.016354134306311607,-0.01433901209384203
1761379931845421300,3.21342138671875,-0.012007465586066246,-0.006328484043478966,-0.02671286277472973
1761379931855447300,3.223447265625,-0.012507082894444466,0.022699272260069847,-0.06078675389289856
1761379931865472300,3.23347216796875,-0.006611600052565336,0.058005549013614655,-0.09402794390916824
1761379931875475500,3.243475341796875,-0.011424578726291656,0.0703960582613945,-0.09685911238193512
1761379931885501000,3.2535009765625,-0.02070080302655697,0.06763150542974472,-0.0807381272315979
1761379931895526700,3.263526611328125,-0.01392266433686018,0.04078541323542595,-0.05181029811501503
1761379931905552400,3.273552490234375,0.003464012173935771,0.002314892830327153,-0.017819678410887718
1761379931915579400,3.283579345703125,0.02421477809548378,-0.03432369604706764,0.008643376640975475
1761379931925604900,3.29360498046875,0.040852028876543045,-0.05297607183456421,0.02429804764688015
1761379931935617500,3.303617431640625,0.04394965618848801,-0.05167706683278084,0.030959609895944595
1761379931945643800,3.313643798828125,0.037554554641246796,-0.04175134003162384,0.03460681438446045
1761379931955689000,3.32368896484375,0.026646247133612633,-0.02429804764688015,0.03963629528880119
1761379931965714000,3.3337138671875,0.024364663287997246,-0.0074942572973668575,0.0510275661945343
1761379931975739600,3.34373974609375,0.03055991604924202,-0.008010528050363064,0.060886677354574203
1761379931985758700,3.3537587890625,0.041135143488645554,-0.024914242327213287,0.06406757235527039
1761379931995805700,3.3638056640625,0.05072779580950737,-0.04128503054380417,0.06106986850500107
1761379932005832400,3.37383251953125,0.049412135034799576,-0.04876263439655304,0.04879594221711159
1761379932015857700,3.383857666015625,0.03565600886940956,-0.04156814515590668,0.024364663287997246
1761379932025883600,3.393883544921875,0.021766653284430504,-0.011707695201039314,-0.0074942572973668575
1761379932035909000,3.4039091796875,0.02108384296298027,0.028827909380197525,-0.036805130541324615
1761379932045915400,3.413915283203125,0.029077718034386635,0.05827201157808304,-0.04621458426117897
1761379932055959600,3.42395947265625,0.036588627845048904,0.05585719645023346,-0.03047664649784565
1761379932065984800,3.43398486328125,0.03785432502627373,0.02346535213291645,0.0025313934311270714
1761379932076006400,3.44400634765625,0.03853713721036911,-0.01916864514350891,0.03798755630850792
1761379932086037200,3.454037353515625,0.03757121041417122,-0.05161045119166374,0.0576225109398365
1761379932096040200,3.464040283203125,0.03299138695001602,-0.06190256401896477,0.05465811491012573
1761379932106088700,3.474088623046875,0.02931087277829647,-0.042767226696014404,0.029294218868017197
1761379932116109600,3.484109619140625,0.02759552001953125,-0.004213437903672457,-0.010325420647859573
1761379932126140400,3.494140380859375,0.026329822838306427,0.0354062020778656,-0.046647585928440094
1761379932136166400,3.50416650390625,0.02784532867372036,0.05695635452866554,-0.0646338015794754
1761379932146192100,3.514192138671875,0.027245787903666496,0.0539419986307621,-0.0584552064538002
1761379932156217000,3.524217041015625,0.02033441700041294,0.03430704399943352,-0.03628885746002197
1761379932166243300,3.534243408203125,0.01047530584037304,0.006195252761244774,-0.004862940404564142
1761379932176248000,3.544248046875,-0.004396630916744471,-0.017519908025860786,0.024114854633808136
1761379932186294000,3.5542939453125,-0.019318530336022377,-0.024264739826321602,0.03570597246289253
1761379932196319700,3.56431982421875,-0.024947550147771835,-0.012507082894444466,0.01886887475848198
1761379932206322700,3.57432275390625,-0.017186829820275307,0.01342304702848196,-0.014688744209706783
1761379932216349400,3.584349365234375,0.00003330780964461155,0.03928656131029129,-0.04409953951835632
1761379932226396700,3.594396728515625,0.017769716680049896,0.05585719645023346,-0.04976186901330948
1761379932236423200,3.604423095703125,0.026113322004675865,0.05002833157777786,-0.030043644830584526
1761379932246447600,3.614447509765625,0.023115620017051697,0.026612939313054085,0.004429938737303019
1761379932256472800,3.624472900390625,0.016770482063293457,0.0025480473414063454,0.0403357557952404
1761379932266499300,3.634499267578125,0.008043835870921612,-0.012973391450941563,0.06075344607234001
1761379932276525800,3.64452587890625,-0.00003330780964461155,-0.01530493889003992,0.053325802087783813
1761379932286550000,3.654550048828125,0.0053125955164432526,0.003314126981422305,0.019734878093004227
1761379932296577300,3.664577392578125,0.018352603539824486,0.03853713721036911,-0.021650075912475586
1761379932306602200,3.674602294921875,0.028528138995170593,0.07066252082586288,-0.05122740939259529
1761379932316628500,3.68462841796875,0.026779478415846825,0.07795692980289459,-0.05569065734744072
1761379932326654200,3.694654296875,0.017586523666977882,0.06584954261779785,-0.03382408246397972
1761379932336679200,3.70467919921875,0.009309533052146435,0.05828866735100746,-0.0010658499086275697
1761379932346688300,3.714688232421875,0.004629785660654306,0.0750424936413765,0.02521401271224022
1761379932356730400,3.72473046875,0.00662825396284461,0.11123143136501312,0.034790005534887314
1761379932366739000,3.734739013671875,0.011391270905733109,0.14570501446723938,0.027462288737297058
1761379932376779500,3.744779541015625,0.015404862351715565,0.16533996164798737,0.01325650792568922
1761379932386807600,3.7548076171875,0.02354862168431282,0.17794696986675262,-0.0020983919966965914
1761379932396833300,3.764833251953125,0.03175899758934975,0.15929460525512695,0.003480666084215045
1761379932406859500,3.774859619140625,0.018152756616473198,0.11324655264616013,0.004396630916744471
1761379932416884700,3.784884765625,0.03385739028453827,0.12533728778362274,0.021483536809682846
1761379932426910700,3.79491064453125,0.022232962772250175,0.08496822416782379,0.010408690199255943
1761379932436937200,3.804937255859375,0.016587289050221443,0.023948315531015396,0.006511676590889692
1761379932446962200,3.814962158203125,0.006528330501168966,0.003497319994494319,0.012307235971093178
1761379932456987400,3.8249873046875,0.015687977895140648,-0.012873467989265919,0.00979249645024538
1761379932467013000,3.83501318359375,-0.004746363032609224,-0.01941845379769802,0.017519908025860786
1761379932477038800,3.845038818359375,-0.02374846860766411,-0.04354996234178543,0.019601646810770035
1761379932487064600,3.855064697265625,-0.019018759950995445,-0.04887920990586281,0.020817380398511887
1761379932497090300,3.86509033203125,-0.010208843275904655,-0.0329081155359745,0.011474540457129478
1761379932507120600,3.87512060546875,-0.010092265903949738,-0.007977220229804516,0.0018818912794813514
1761379932517142300,3.885142333984375,-0.013106622733175755,0.004246745724231005,0.0012823506258428097
1761379932527167000,3.8951669921875,-0.015371554531157017,-0.003147588111460209,0.011424578726291656
1761379932537192700,3.905192626953125,-0.013323123566806316,-0.02254938706755638,0.022183001041412354
1761379932547232800,3.915232666015625,-0.006744831334799528,-0.04236753284931183,0.023598583415150642
1761379932557221600,3.9252216796875,-0.00472970912232995,-0.05490792542695999,0.015787901356816292
1761379932567270400,3.9352705078125,-0.01005895808339119,-0.05305933952331543,-0.0004996171337552369
1761379932577299700,3.9452998046875,-0.014888591133058071,-0.03439031168818474,-0.016520673409104347
1761379932587321000,3.955321044921875,-0.014472243376076221,-0.009526033885776997,-0.024431278929114342
1761379932597346600,3.9653466796875,-0.010325420647859573,0.014272396452724934,-0.022449463605880737
1761379932607372500,3.97537255859375,-0.006611600052565336,0.021816615015268326,-0.015288284979760647
1761379932617398800,3.985398681640625,-0.003164242021739483,0.017336715012788773,-0.003913667518645525
1761379932627424000,3.995424072265625,-0.0025480473414063454,0.002981049008667469,0.010292112827301025
1761379932637449200,4.00544921875,-0.009059724397957325,-0.013556278310716152,0.02141692116856575
1761379932647475200,4.01547509765625,-0.013789433054625988,-0.02504747360944748,0.023831738159060478
1761379932657501700,4.025501708984375,-0.012057427316904068,-0.026396438479423523,0.013939318247139454
1761379932667527000,4.03552685546875,-0.0017486599972471595,-0.016387442126870155,-0.005912136286497116
1761379932677535200,4.04553515625,0.016054363921284676,0.004929556045681238,-0.02429804764688015
1761379932687578000,4.055578125,0.03132599592208862,0.034756697714328766,-0.03389069810509682
1761379932697603800,4.065603759765625,0.038387250155210495,0.04851282387971878,-0.02942745015025139
1761379932707593700,4.07559375,0.03284149989485741,0.04701397195458412,-0.011074846610426903
1761379932717655300,4.0856552734375,0.02563035860657692,0.03808747977018356,0.014139165170490742
1761379932727672800,4.0956728515625,0.017353368923068047,0.023348774760961533,0.039303217083215714
1761379932737706500,4.10570654296875,0.007311064284294844,0.004046898800879717,0.057172853499650955
1761379932747721500,4.115721435546875,0.0002831163874361664,-0.01458882074803114,0.05753923952579498
1761379932757758200,4.12575830078125,0.0037471286486834288,-0.014955206774175167,0.04584819823503494
1761379932767783400,4.135783447265625,0.014855283312499523,-0.007394333835691214,0.02997702918946743
1761379932777809400,4.145809326171875,0.02288246527314186,0.0006994639988988638,0.018352603539824486
1761379932787835100,4.155835205078125,0.024314701557159424,0.0001332312385784462,0.016021056100726128
1761379932797862000,4.16586181640625,0.018968798220157623,-0.005179364234209061,0.023065658286213875
1761379932807865000,4.175864990234375,0.011674387380480766,-0.009775842539966106,0.030160222202539444
1761379932817911300,4.185911376953125,0.013872702606022358,-0.015254977159202099,0.034590158611536026
1761379932827937500,4.1959375,0.022199654951691628,-0.024864280596375465,0.03513973951339722
1761379932837964300,4.20596435546875,0.023515313863754272,-0.022316232323646545,0.03767113387584686
1761379932847965700,4.215965576171875,0.023831738159060478,-0.018768951296806335,0.05054460093379021
1761379932858015200,4.22601513671875,0.010708460584282875,-0.028045175597071648,0.06027048081159592
1761379932868041200,4.236041259765625,-0.010991577059030533,-0.02329881303012371,0.05710623785853386
1761379932878066400,4.24606640625,-0.023831738159060478,-0.0075608729384839535,0.03482331335544586
1761379932888092400,4.256092529296875,-0.028578100726008415,0.013722817413508892,-0.002947741188108921
1761379932898117600,4.26611767578125,-0.030326761305332184,0.03578924015164375,-0.04191787913441658
1761379932908144000,4.27614404296875,-0.032125383615493774,0.04434935003519058,-0.07302737236022949
1761379932918170000,4.286170166015625,-0.03682178258895874,0.046147968620061874,-0.0898311659693718
1761379932928195000,4.296195068359375,-0.03449023514986038,0.04997836798429489,-0.08763284981250763
1761379932938221000,4.306220947265625,-0.02826167643070221,0.046197932213544846,-0.062485452741384506
1761379932948237600,4.316237548828125,-0.029527373611927032,0.02792859822511673,-0.02158346027135849
1761379932958272000,4.32627197265625,-0.03064318560063839,0.0045465161092579365,0.02066749520599842
1761379932968297200,4.336297119140625,-0.028461523354053497,-0.013289815746247768,0.049828484654426575
1761379932978301700,4.3463017578125,-0.02258269488811493,-0.015354900620877743,0.06158614158630371
1761379932988349000,4.356348876953125,-0.013806086964905262,-0.009142993949353695,0.05873832106590271
1761379932998374400,4.36637451171875,-0.008993108756840229,-0.010358728468418121,0.04250076413154602
1761379933008415700,4.376415771484375,-0.007011293899267912,-0.007843988947570324,0.016254210844635963
1761379933018425600,4.386425537109375,0.0011324655497446656,0.005046132951974869,-0.010758422315120697
1761379933028452400,4.396452392578125,0.006928024347871542,0.009509379975497723,-0.024348009377717972
1761379933038476500,4.4064765625,-0.00019984686514362693,-0.003713820828124881,-0.01908537559211254
1761379933048503300,4.41650341796875,-0.013239854015409946,-0.022366194054484367,-0.0004330015217419714
1761379933058529000,4.426529052734375,-0.026279861107468605,-0.0255470909178257,0.03194218873977661
1761379933068554500,4.436554443359375,-0.040468987077474594,-0.020217839628458023,0.07319391518831253
1761379933078579700,4.446579833984375,-0.052626337856054306,-0.02238284796476364,0.10843357443809509
1761379933088605200,4.456605224609375,-0.05152717977762222,-0.030293453484773636,0.12050765752792358
1761379933098613500,4.466613525390625,-0.0324917696416378,-0.022566040977835655,0.11189758777618408
1761379933108656400,4.476656494140625,-0.008993108756840229,-0.019485069438815117,0.08523468673229218
1761379933118683000,4.486682861328125,0.004779670853167772,-0.027362365275621414,0.051210757344961166
1761379933128685800,4.496685791015625,0.011824272572994232,-0.02817840687930584,0.02075076475739479
1761379933138711800,4.5067119140625,0.01637078821659088,-0.015971094369888306,-0.005245979875326157
1761379933148760000,4.516760009765625,0.017669793218374252,0.0026646247133612633,-0.02529728226363659
1761379933158786000,4.5267861328125,0.01269027590751648,0.017819678410887718,-0.03983613848686218
1761379933168811000,4.53681103515625,0.011091500520706177,0.024348009377717972,-0.04493223503232002
1761379933178814700,4.546814697265625,0.018302641808986664,0.025397205725312233,-0.038970138877630234
1761379933188867300,4.556867431640625,0.024181470274925232,0.02366519905626774,-0.019351838156580925
1761379933198909200,4.5669091796875,0.025996744632720947,0.017353368923068047,0.0038637060206383467
1761379933208891000,4.576890869140625,0.0317256897687912,0.003697166917845607,0.01720348373055458
1761379933218940200,4.586940185546875,0.038886867463588715,-0.01582120917737484,0.025647012516856194
1761379933228965000,4.596965087890625,0.04583154618740082,-0.03437365964055061,0.028694678097963333
1761379933238991000,4.6069912109375,0.04731374233961105,-0.0358891636133194,0.019684916362166405
1761379933249016600,4.6170166015625,0.04191787913441658,-0.026196591556072235,0.0009992342675104737
1761379933259041800,4.627041748046875,0.03335777297616005,-0.006844754796475172,-0.018269333988428116
1761379933269068800,4.63706884765625,0.026113322004675865,0.014788667671382427,-0.025114089250564575
1761379933279094500,4.647094482421875,0.023015696555376053,0.02951071970164776,-0.018902182579040527
1761379933289119200,4.657119140625,0.02341539040207863,0.03848717361688614,-0.0022149693686515093
1761379933299145700,4.667145751953125,0.026896055787801743,0.044898927211761475,0.016720520332455635
1761379933309188600,4.677188720703125,0.03513973951339722,0.047280434519052505,0.0358225479722023
1761379933319196400,4.687196533203125,0.04121841490268707,0.03798755630850792,0.04749693721532822
1761379933329222400,4.697222412109375,0.03803751990199089,0.01723679155111313,0.054291728883981705
1761379933339226000,4.70722607421875,0.03497320041060448,0.003114280290901661,0.05167706683278084
1761379933349273900,4.71727392578125,0.04115179926156998,-0.0021316998172551394,0.04188457131385803
1761379933359285500,4.727285400390625,0.0572061613202095,-0.0074609494768083096,0.027445634827017784
1761379933369325000,4.737324951171875,0.08451856672763824,-0.034790005534887314,0.026163283735513687
1761379933379331300,4.747331298828125,0.111214779317379,-0.08478502929210663,0.05056125670671463
1761379933389376000,4.7573759765625,0.112397201359272,-0.11104823648929596,0.09347836673259735
1761379933399402500,4.767402587890625,0.10645175725221634,-0.11882561445236206,0.15118414163589478
1761379933409435100,4.77743505859375,0.08683346211910248,-0.13379746675491333,0.20024655759334564
1761379933419454000,4.787453857421875,0.06604938954114914,-0.15441501140594482,0.23054000735282898
1761379933429478700,4.797478759765625,0.04842955619096756,-0.18214376270771027,0.2228458970785141
1761379933439504600,4.807504638671875,0.02842821553349495,-0.16928693652153015,0.17456622421741486
1761379933449530000,4.817530029296875,0.01202411949634552,-0.11332982033491135,0.09985681623220444
1761379933459555300,4.827555419921875,0.0022482771892100573,-0.06716519594192505,0.016254210844635963
1761379933469582000,4.83758203125,-0.010242151096463203,-0.01712021417915821,-0.04608135297894478
1761379933479608000,4.847608154296875,-0.01756986975669861,0.027245787903666496,-0.07519237697124481
1761379933489633500,4.857633544921875,-0.020134570077061653,0.05515773221850395,-0.08187059313058853
1761379933499658200,4.867658203125,-0.019718224182724953,0.048579439520835876,-0.06445061415433884
1761379933509662000,4.877661865234375,-0.019018759950995445,0.011174770072102547,-0.02642974629998207
1761379933519710200,4.887710205078125,-0.01127469353377819,-0.006778139155358076,0.01538820844143629
1761379933529736400,4.897736328125,-0.015438170172274113,-0.04771343618631363,0.04311696067452431
1761379933539761400,4.907761474609375,-0.02488093450665474,-0.07184494286775589,0.05923793837428093
1761379933549787400,4.917787353515625,-0.027395673096179962,-0.08123774826526642,0.05202679708600044
1761379933559790000,4.9277900390625,-0.02521401271224022,-0.06045367568731308,0.017969563603401184
1761379933569838600,4.937838623046875,-0.019151991233229637,-0.01745329238474369,-0.026896055787801743
1761379933579864600,4.947864501953125,-0.014522205106914043,0.016470711678266525,-0.06584954261779785
1761379933589890300,4.957890380859375,-0.010775076225399971,0.03364088758826256,-0.08929824084043503
1761379933599916300,4.967916259765625,-0.007943912409245968,0.032625000923871994,-0.09772511571645737
1761379933609942000,4.97794189453125,-0.007893950678408146,0.015854516997933388,-0.09211274981498718
1761379933619967500,4.987967529296875,-0.014055895619094372,-0.006811446975916624,-0.08203713595867157
1761379933629992200,4.9979921875,-0.028827909380197525,-0.024114854633808136,-0.06858077645301819
1761379933640019000,5.00801904296875,-0.04250076413154602,-0.025863513350486755,-0.05405857414007187
1761379933650044400,5.01804443359375,-0.048912517726421356,-0.024614471942186356,-0.04023583233356476
1761379933660031000,5.028031005859375,-0.04466577246785164,-0.024064892902970314,-0.030326761305332184
1761379933670095400,5.038095458984375,-0.031009571626782417,-0.014572166837751865,-0.02003464661538601
1761379933680121300,5.048121337890625,-0.009309533052146435,0.003031010739505291,-0.005728943273425102
1761379933690123500,5.05812353515625,0.007144525181502104,0.00799387414008379,0.011341309174895287
1761379933700149800,5.068149658203125,0.012290582060813904,-0.00816041324287653,0.022516079246997833
1761379933710197800,5.07819775390625,0.013806086964905262,-0.02826167643070221,0.025330590084195137
1761379933720223700,5.0882236328125,0.017669793218374252,-0.03668855130672455,0.015854516997933388
1761379933730230500,5.09823046875,0.021133804693818092,-0.024830972775816917,0.00008326952229253948
1761379933740274700,5.108274658203125,0.020384378731250763,-0.007394333835691214,-0.008393567986786366
1761379933750301700,5.1183017578125,0.014305704273283482,-0.0022982389200478792,-0.010325420647859573
1761379933760326400,5.128326416015625,0.01022549718618393,-0.009742534719407558,-0.012057427316904068
1761379933770352000,5.13835205078125,0.015005168505012989,0.0008160413126461208,-0.011824272572994232
1761379933780377900,5.1483779296875,0.026562977582216263,0.026662901043891907,-0.002797855995595455
1761379933790403300,5.1584033203125,0.021316997706890106,0.02881125546991825,0.023015696555376053
1761379933800428800,5.1684287109375,0.005579058080911636,0.007960566319525242,0.05399195849895477
1761379933810454800,5.178454833984375,0.0022482771892100573,-0.01135796308517456,0.07445960491895676
1761379933820458500,5.18845849609375,0.009326186962425709,-0.022599348798394203,0.07314395159482956
1761379933830507000,5.198507080078125,0.012124042958021164,-0.028111791238188744,0.05014490708708763
1761379933840532500,5.208532470703125,0.005495788529515266,-0.025280628353357315,0.013522970490157604
1761379933850557400,5.218557373046875,0.0011324655497446656,-0.011058192700147629,-0.02609666809439659
1761379933860560600,5.228560546875,0.0017819678178057075,0.008460183627903461,-0.054924577474594116
1761379933870586400,5.23858642578125,0.00687806261703372,0.02543051354587078,-0.0680311992764473
1761379933880634400,5.24863427734375,0.013739471323788166,0.038803599774837494,-0.06648238748311996
1761379933890622000,5.2586220703125,0.0197515320032835,0.03803751990199089,-0.04929555952548981
1761379933900687000,5.26868701171875,0.010342074558138847,0.021433575078845024,-0.022282924503087997
1761379933910712000,5.278712158203125,-0.008526799269020557,0.0026479708030819893,0.008110451512038708
1761379933920737500,5.288737548828125,-0.018652373924851418,-0.013323123566806316,0.029327526688575745
1761379933930763300,5.29876318359375,-0.01866902783513069,-0.027562212198972702,0.02468108758330345
1761379933940789000,5.3087890625,-0.010375382378697395,-0.030659839510917664,-0.005728943273425102
1761379933950814700,5.318814697265625,0.0008326952229253948,-0.011890888214111328,-0.04566500708460808
1761379933960839700,5.328839599609375,0.003064318560063839,0.015687977895140648,-0.076158307492733
1761379933970866700,5.33886669921875,-0.009359494782984257,0.0238816998898983,-0.08466845005750656
1761379933980892700,5.348892578125,-0.019385145977139473,0.020401032641530037,-0.06811447441577911
1761379933990894600,5.35889453125,-0.014189126901328564,0.019135337322950363,-0.03970291092991829
1761379934000942800,5.36894287109375,0.0011657733703032136,0.016803789883852005,-0.010608537122607231
1761379934010945300,5.3789453125,0.012124042958021164,0.003480666084215045,0.011491194367408752
1761379934020984300,5.388984375,0.015121745876967907,-0.017353368923068047,0.02224961668252945
1761379934031020500,5.3990205078125,0.018435873091220856,-0.029527373611927032,0.018968798220157623
1761379934041024500,5.4090244140625,0.021366959437727928,-0.02174999937415123,0.0014488897286355495
1761379934051070500,5.419070556640625,0.023948315531015396,-0.0018319295486435294,-0.02191653847694397
1761379934061098000,5.429097900390625,0.027295749634504318,0.023448698222637177,-0.04363323003053665
1761379934071122700,5.439122802734375,0.033041346818208694,0.04120175912976265,-0.049445442855358124
1761379934081148700,5.449148681640625,0.033757466822862625,0.04098526015877724,-0.036338821053504944
1761379934091174700,5.459174560546875,0.02826167643070221,0.02726244181394577,-0.008510145358741283
1761379934101200100,5.4692001953125,0.02141692116856575,0.005046132951974869,0.024897588416934013
1761379934111224800,5.479224853515625,0.016354134306311607,-0.012906775809824467,0.05360892042517662
1761379934121251600,5.48925146484375,0.013356431387364864,-0.023115620017051697,0.0650501549243927
1761379934131276800,5.49927685546875,0.012140696868300438,-0.024348009377717972,0.05743931606411934
1761379934141303300,5.50930322265625,0.011890888214111328,-0.01945176161825657,0.03437365964055061
1761379934151327700,5.51932763671875,0.011757656931877136,-0.01590447872877121,0.0017653139075264335
1761379934161332500,5.52933251953125,0.010242151096463203,-0.006045367568731308,-0.028378253802657127
1761379934171380700,5.539380615234375,0.005196018144488335,0.003630551276728511,-0.04416615515947342
1761379934181406700,5.54940673828125,-0.005545750260353088,0.01227392815053463,-0.04543185234069824
1761379934191407000,5.559406982421875,-0.016437403857707977,0.02279919572174549,-0.028494831174612045
1761379934201434600,5.5694345703125,-0.020217839628458023,0.033707503229379654,-0.003547281725332141
1761379934211482000,5.579482177734375,-0.020883996039628983,0.029077718034386635,0.018385911360383034
1761379934221502700,5.589502685546875,-0.023365428671240807,0.00626186840236187,0.031209418550133705
1761379934231536400,5.599536376953125,-0.0197515320032835,-0.016270864754915237,0.03324119374155998
1761379934241561300,5.609561279296875,-0.015321592800319195,-0.03327450156211853,0.021849922835826874
1761379934251586800,5.6195869140625,-0.012457121163606644,-0.03732139989733696,0.0010991577291861176
1761379934261610000,5.62960986328125,-0.010958269238471985,-0.030360069125890732,-0.021799961104989052
1761379934271630800,5.639630859375,-0.01538820844143629,-0.018968798220157623,-0.044149503111839294
1761379934281662500,5.649662353515625,-0.023615237325429916,-0.004346669185906649,-0.059887442737817764
1761379934291688000,5.65968798828125,-0.02712921053171158,0.010625191032886505,-0.06974655389785767
1761379934301714200,5.669714111328125,-0.02041768655180931,0.027961906045675278,-0.06593281030654907
1761379934311739400,5.679739501953125,-0.010175535455346107,0.03167572617530823,-0.04633116349577904
1761379934321765000,5.68976513671875,-0.0024980856105685234,0.018602412194013596,-0.016520673409104347
1761379934331790300,5.699790283203125,0.002781202085316181,-0.002747894264757633,0.015588055364787579
1761379934341815800,5.70981591796875,0.01325650792568922,-0.024947550147771835,0.03803751990199089
1761379934351842300,5.71984228515625,0.024098200723528862,-0.04186791554093361,0.04469908028841019
1761379934361866800,5.72986669921875,0.031792305409908295,-0.04195118695497513,0.03668855130672455
1761379934371893500,5.7398935546875,0.03978617861866951,-0.028294984251260757,0.019468415528535843
1761379934381919200,5.749919189453125,0.04223430156707764,-0.014488897286355495,-0.003480666084215045
1761379934391923500,5.75992333984375,0.03928656131029129,-0.005479134619235992,-0.023765122517943382
1761379934401995300,5.769995361328125,0.03322454169392586,0.0010491959983482957,-0.03497320041060448
1761379934411996200,5.77999609375,0.02233288623392582,0.0022482771892100573,-0.03522300720214844
1761379934421998600,5.78999853515625,0.0044632465578615665,0.0026146629825234413,-0.027162518352270126
1761379934432047900,5.8000478515625,-0.016637250781059265,0.007893950678408146,-0.013189892284572124
1761379934442073000,5.810072998046875,-0.035506125539541245,0.017353368923068047,-0.006894716527312994
1761379934452099000,5.82009912109375,-0.049745213240385056,0.025996744632720947,-0.012140696868300438
1761379934462123800,5.830123779296875,-0.05222664400935173,0.03657197579741478,-0.02538055181503296
1761379934472150800,5.84015087890625,-0.05219333618879318,0.046314507722854614,-0.04015256464481354
1761379934482176000,5.850176025390625,-0.053159262984991074,0.055007848888635635,-0.04300038143992424
1761379934492201500,5.860201416015625,-0.056173622608184814,0.06175268068909645,-0.03184226527810097
1761379934502228000,5.87022802734375,-0.06693204492330551,0.060353752225637436,-0.01194084994494915
1761379934512253200,5.880253173828125,-0.07222798466682434,0.0498451367020607,0.0025980090722441673
1761379934522279000,5.89027880859375,-0.05753923952579498,0.03718816861510277,-0.0007660796400159597
1761379934532304100,5.90030419921875,-0.03717151656746864,0.021050535142421722,-0.01317323837429285
1761379934542329600,5.91032958984375,-0.02646305412054062,0.010658498853445053,-0.028028521686792374
1761379934552332500,5.92033251953125,-0.020634187385439873,0.011291347444057465,-0.04446592554450035
1761379934562381000,5.930381103515625,-0.013223200105130672,0.018019525334239006,-0.052659645676612854
1761379934572392000,5.940391845703125,-0.003147588111460209,0.01530493889003992,-0.04947875067591667
1761379934582431700,5.950431640625,0.003164242021739483,0.005812212824821472,-0.03615562617778778
1761379934592443400,5.960443359375,0.013955972157418728,0.0016154287150129676,-0.018136102706193924
1761379934602484200,5.970484130859375,0.02025114744901657,-0.005862174555659294,0.0007993874605745077
1761379934612509700,5.980509765625,0.016004402190446854,-0.022516079246997833,0.010641844943165779
1761379934622512600,5.9905126953125,0.014122511260211468,-0.02856144681572914,0.00874330010265112
1761379934632560000,6.00056005859375,0.010775076225399971,-0.023615237325429916,-0.0017986217280849814
1761379934642586400,6.01058642578125,0,-0.021783307194709778,-0.013806086964905262
1761379934652578800,6.020578857421875,-0.010591883212327957,-0.014355666004121304,-0.028794601559638977
1761379934662637800,6.030637939453125,-0.013189892284572124,0.008127105422317982,-0.042101070284843445
1761379934672663800,6.040663818359375,-0.006478368770331144,0.03798755630850792,-0.0448489673435688
1761379934682688800,6.050688720703125,0.00016653904458507895,0.05414184555411339,-0.037138208746910095
1761379934692715000,6.060715087890625,0.00920960959047079,0.043982964009046555,-0.022432809695601463
1761379934702740700,6.07074072265625,0.01728675328195095,0.015604709275066853,-0.0037471286486834288
1761379934712766000,6.080765869140625,0.018002871423959732,-0.01753656193614006,0.014305704273283482
1761379934722769700,6.090769775390625,0.014955206774175167,-0.04956202208995819,0.022865811362862587
1761379934732819000,6.10081884765625,0.010708460584282875,-0.07286083698272705,0.017969563603401184
1761379934742843400,6.110843505859375,0.009176301769912243,-0.07222798466682434,-0.0014821975491940975
1761379934752851200,6.120851318359375,0.01883556693792343,-0.03875363618135452,-0.024980857968330383
1761379934762895400,6.130895263671875,0.028278330340981483,-0.008343606255948544,-0.04275057464838028
1761379934772920600,6.140920654296875,0.029960375279188156,0.004196783993393183,-0.050994258373975754
1761379934782945800,6.15094580078125,0.029160987585783005,-0.004296707455068827,-0.04701397195458412
1761379934792951800,6.160951904296875,0.028528138995170593,-0.030376723036170006,-0.03948640823364258
1761379934802997800,6.170997802734375,0.028361599892377853,-0.04881259426474571,-0.03728809207677841
1761379934813023000,6.18102294921875,0.032425154000520706,-0.04847951605916023,-0.0382540188729763
1761379934823049700,6.1910498046875,0.03532293066382408,-0.03815409541130066,-0.041434913873672485
1761379934833074700,6.20107470703125,0.03643874451518059,-0.03643874451518059,-0.0370049774646759
1761379934843100200,6.21110009765625,0.03097626380622387,-0.03916998580098152,-0.03322454169392586
1761379934853126000,6.2211259765625,0.029827143996953964,-0.026662901043891907,-0.02413150854408741
1761379934863151600,6.231151611328125,0.02784532867372036,-0.012323889881372452,-0.013406393118202686
1761379934873177600,6.241177490234375,0.022482771426439285,-0.011291347444057465,-0.003364088712260127
1761379934883203000,6.251203125,0.022266270592808723,-0.016587289050221443,0.008210374973714352
1761379934893206300,6.261206298828125,0.023915007710456848,-0.02429804764688015,0.01662059687077999
1761379934903254800,6.2712548828125,0.02279919572174549,-0.03052660822868347,0.02108384296298027
1761379934913280300,6.2812802734375,0.02709590271115303,-0.027362365275621414,0.02083403430879116
1761379934923284700,6.29128466796875,0.03149253502488136,-0.027828674763441086,0.016670558601617813
1761379934933331500,6.30133154296875,0.029044410213828087,-0.02956068143248558,0.014555512927472591
1761379934943357700,6.311357666015625,0.0267961323261261,-0.02563035860657692,0.017586523666977882
1761379934953405700,6.32140576171875,0.02712921053171158,-0.010974923148751259,0.02792859822511673
1761379934963408000,6.331407958984375,0.029111025854945183,-0.0054125189781188965,0.03966960310935974
1761379934973434000,6.34143408203125,0.03144257143139839,-0.010775076225399971,0.047696784138679504
1761379934983460400,6.35146044921875,0.0358891636133194,-0.023865045979619026,0.045481812208890915
1761379934993485000,6.361485107421875,0.03703828528523445,-0.03615562617778778,0.031375955790281296
1761379935003511800,6.37151171875,0.03440696746110916,-0.0407521054148674,0.011324655264616013
1761379935013536800,6.381536865234375,0.027229133993387222,-0.03572262451052666,-0.0103087667375803
1761379935023562500,6.3915625,0.017586523666977882,-0.02095061168074608,-0.027961906045675278
1761379935033577200,6.4015771484375,0.012940083630383015,-0.005579058080911636,-0.03803751990199089
1761379935043614200,6.4116142578125,0.008510145358741283,0.006578292232006788,-0.03590581938624382
1761379935053639400,6.421639404296875,-0.0013822740875184536,0.0010658499086275697,-0.01828598789870739
1761379935063665200,6.4316650390625,-0.01458882074803114,-0.010725114494562149,0.0025313934311270714
1761379935073691400,6.44169140625,-0.02321554347872734,-0.02196650020778179,0.013539624400436878
1761379935083694000,6.451694091796875,-0.027812020853161812,-0.025696974247694016,0.010691806674003601
1761379935093742600,6.46174267578125,-0.030826378613710403,-0.020684149116277695,-0.004696401301771402
1761379935103768800,6.471768798828125,-0.02926091104745865,-0.006944678258150816,-0.02806182950735092
1761379935113794000,6.4817939453125,-0.019301876425743103,0.007027947809547186,-0.05230991542339325
1761379935123811000,6.49181103515625,-0.003563935635611415,0.015221669338643551,-0.07111217081546783
1761379935133822700,6.50182275390625,0.008426875807344913,0.012124042958021164,-0.07714089006185532
1761379935143870500,6.511870361328125,0.014888591133058071,-0.005978751927614212,-0.06518338620662689
1761379935153874200,6.521874267578125,0.013572932220995426,-0.03159245848655701,-0.038603752851486206
1761379935163899600,6.531899658203125,0.010741768404841423,-0.05126071721315384,-0.01210738904774189
1761379935173926100,6.541926025390625,0.008227028883993626,-0.059337861835956573,0.003530627815052867
1761379935183952000,6.551951904296875,0.004946209955960512,-0.05815543606877327,0.012590352445840836
1761379935193977000,6.56197705078125,-0.0018652373692020774,-0.05580723658204079,0.015288284979760647
1761379935204003600,6.572003662109375,-0.005912136286497116,-0.05101091042160988,0.008593414910137653
1761379935214029000,6.582029052734375,-0.004096860531717539,-0.04071879759430885,-0.005828866735100746
1761379935224043300,6.592043212890625,0.00039969373028725386,-0.02316558174788952,-0.024781011044979095
1761379935234068700,6.60206884765625,0.0053459033370018005,-0.004429938737303019,-0.04163476079702377
1761379935244113200,6.612113037109375,0.009659265168011189,0.010658498853445053,-0.04951205849647522
1761379935254119200,6.622119140625,0.008759954012930393,0.00954268779605627,-0.04418281093239784
1761379935264164000,6.6321640625,-0.0005828866851516068,-0.00671152351424098,-0.03377411887049675
1761379935274205700,6.642205810546875,-0.006062021479010582,-0.024014931172132492,-0.022183001041412354
1761379935284205300,6.652205322265625,-0.002314892830327153,-0.024164816364645958,-0.015138399787247181
1761379935294256000,6.662256103515625,0.003047664649784565,-0.00962595734745264,-0.014039241708815098
1761379935304273200,6.672273193359375,0.00009992343257181346,0.00696133216843009,-0.01712021417915821
1761379935314307000,6.68230712890625,-0.003280819160863757,0.021516844630241394,-0.01723679155111313
1761379935324333600,6.69233349609375,-0.0044799004681408405,0.024331355467438698,-0.01383939478546381
1761379935334358800,6.70235888671875,-0.0008493491332046688,0.022482771426439285,-0.012740237638354301
1761379935344384300,6.71238427734375,0.01022549718618393,0.016220903024077415,-0.010441998019814491
1761379935354388000,6.722387939453125,0.022149693220853806,0.00004996171628590673,-0.005112748593091965
1761379935364436200,6.732436279296875,0.03064318560063839,-0.014105857349932194,0.0013156584464013577
1761379935374461400,6.74246142578125,0.023182235658168793,-0.031375955790281296,0.012357197701931
1761379935384487700,6.75248779296875,0.01005895808339119,-0.04812978580594063,0.029610643163323402
1761379935394513400,6.762513427734375,-0.002781202085316181,-0.05497454106807709,0.048279669135808945
1761379935404538400,6.772538330078125,-0.011341309174895287,-0.05763916298747063,0.05765581876039505
1761379935414551000,6.782551025390625,-0.009675919078290462,-0.04613131657242775,0.05570731312036514
1761379935424589000,6.792589111328125,-0.003497319994494319,-0.02931087277829647,0.041984494775533676
1761379935434616800,6.802616943359375,-0.0016154287150129676,-0.013955972157418728,0.024397971108555794
1761379935444641800,6.812641845703125,-0.004080206621438265,0.0011990811908617616,0.005662327632308006
1761379935454650000,6.822650146484375,-0.006445060949772596,0.010725114494562149,-0.01252373680472374
1761379935464693000,6.83269287109375,-0.009559341706335545,0.016254210844635963,-0.026313168928027153
1761379935474718500,6.842718505859375,-0.00920960959047079,0.01953503116965294,-0.03192553669214249
1761379935484723500,6.852723388671875,-0.00626186840236187,0.018236026167869568,-0.03299138695001602
1761379935494770400,6.8627705078125,-0.006295176222920418,0.009692572988569736,-0.028744639828801155
1761379935504795600,6.872795654296875,-0.011491194367408752,0.0012990045361220837,-0.015254977159202099
1761379935514821000,6.882821044921875,-0.015354900620877743,-0.006078675389289856,-0.004946209955960512
1761379935524846300,6.892846435546875,-0.017603177577257156,-0.010891653597354889,-0.00018319295486435294
1761379935534872300,6.902872314453125,-0.013972626067698002,-0.00481297867372632,-0.006644907873123884
1761379935544898600,6.912898681640625,-0.003247511340305209,0.011491194367408752,-0.02316558174788952
1761379935554924000,6.922924072265625,0.008177067153155804,0.028078483417630196,-0.040802065283060074
1761379935564949500,6.932949462890625,0.011907542124390602,0.03319123387336731,-0.04663093388080597
1761379935574975000,6.94297509765625,0.011507848277688026,0.02045099437236786,-0.04459915682673454
1761379935585001200,6.953001220703125,0.0082436827942729,0,-0.03602239489555359
1761379935595026200,6.963026123046875,0.004246745724231005,-0.01628751866519451,-0.019651608541607857
1761379935605052200,6.97305224609375,-0.007810681592673063,-0.025080781430006027,0.0027145864441990852
1761379935615078100,6.983078125,-0.015071784146130085,-0.02559705078601837,0.022116385400295258
1761379935625103000,6.99310302734375,-0.009492726065218449,-0.00970922689884901,0.033124618232250214
1761379935635129600,7.003129638671875,-0.002864471636712551,0.009592649526894093,0.036305513232946396
1761379935645155000,7.013155029296875,0.0018152756383642554,0.014322358183562756,0.03593912720680237
1761379935655161300,7.023161376953125,0.008643376640975475,0.023648545145988464,0.025813551619648933
1761379935665197600,7.033197509765625,0.018069487065076828,0.03427373617887497,0.008859877474606037
1761379935675232500,7.043232421875,0.01850248873233795,0.027195826172828674,-0.009276225231587887
1761379935685237800,7.05323779296875,0.01958499290049076,0.03743797913193703,-0.025447167456150055
1761379935695285000,7.063284912109375,0.010575229302048683,0.05382541939616203,-0.03397396579384804
1761379935705309200,7.07330908203125,0.0054624807089567184,0.04789663106203079,-0.030826378613710403
1761379935715335200,7.083335205078125,0.0026313168928027153,0.048446208238601685,-0.009076378308236599
1761379935725360600,7.093360595703125,0.0014322358183562756,0.05274291709065437,0.014938552863895893
1761379935735385900,7.1033857421875,0.003613897366449237,0.03357427194714546,0.03683843836188316
1761379935745412000,7.113412109375,0.003980283159762621,0.006678215693682432,0.046614278107881546
1761379935755437600,7.1234375,0.009076378308236599,0.0026646247133612633,0.04136829823255539
1761379935765464000,7.133464111328125,0.015804555267095566,0.0296772588044405,0.01786964014172554
1761379935775489300,7.1434892578125,0.01227392815053463,0.06701531261205673,-0.006145291030406952
1761379935785501400,7.15350146484375,0.002398162381723523,0.07727412134408951,-0.0218332689255476
1761379935795525600,7.163525634765625,0.00874330010265112,0.09539356827735901,-0.041851263493299484
1761379935805565700,7.173565673828125,0.019601646810770035,0.11026550084352493,-0.05410853773355484
1761379935815569000,7.18356884765625,0.02784532867372036,0.11736007034778595,-0.06465046107769012
1761379935825617400,7.193617431640625,0.027195826172828674,0.12458786368370056,-0.06674885004758835
1761379935835634700,7.203634765625,0.013073314912617207,0.12748564779758453,-0.05430838465690613
1761379935845669000,7.213669189453125,0.0061785988509655,0.11131469905376434,-0.0329747311770916
1761379935855714600,7.223714599609375,0.009609303437173367,0.07257771492004395,-0.002398162381723523
1761379935865720600,7.233720458984375,0.027795366942882538,0.03850382938981056,0.016670558601617813
1761379935875746600,7.24374658203125,0.05052794888615608,0.029494065791368484,0.02989375963807106
1761379935885771500,7.253771484375,0.049412135034799576,0.024997511878609657,0.04404957965016365
1761379935895797200,7.26379736328125,0.061802640557289124,-0.04871267080307007,0.029494065791368484
1761379935905822200,7.273822265625,0.07434303313493729,-0.07189490646123886,0.02504747360944748
1761379935915849000,7.283848876953125,0.06198583543300629,-0.08072147518396378,0.02191653847694397
1761379935925874400,7.29387451171875,0.05017821490764618,-0.09174636006355286,0.01127469353377819
1761379935935900700,7.303900634765625,0.047363705933094025,-0.05857178196310997,0
1761379935945925600,7.313925537109375,0.03345769643783569,-0.03798755630850792,-0.024414625018835068
1761379935955950800,7.323950927734375,0.009859112091362476,-0.012623660266399384,-0.05743931606411934
1761379935965976000,7.33397607421875,-0.013622893951833248,0.026446400210261345,-0.08283652365207672
1761379935976003000,7.344003173828125,-0.04729709029197693,0.08533460646867752,-0.07620827108621597
1761379935986042400,7.35404248046875,-0.07850650697946548,0.10618529468774796,-0.052626337856054306
