time,seconds_elapsed,z,y,x
1761379945716951800,0.117951904296875,0.06109428405761719,0.003125905990600586,0.004493355751037598
1761379945736992000,0.137991943359375,0.14604568481445312,0.030344605445861816,0.1084321141242981
1761379945757054200,0.15805419921875,0.039600372314453125,0.008052647113800049,0.10345005989074707
1761379945777103000,0.17810302734375,-0.16310787200927734,0.013016998767852783,0.027365028858184814
1761379945797143800,0.198143798828125,-0.14323043823242188,-0.03426915407180786,0.035029053688049316
1761379945817205800,0.218205810546875,-0.0650634765625,-0.06675678491592407,0.004088878631591797
1761379945837250600,0.23825048828125,-0.05377006530761719,-0.1152004599571228,0.0721161961555481
1761379945857309200,0.25830908203125,-0.07919502258300781,-0.03393867611885071,0.08156508207321167
1761379945877360000,0.278360107421875,-0.15421676635742188,-0.006359517574310303,0.09233194589614868
1761379945897412000,0.298412109375,-0.20025348663330078,0.013769388198852539,0.07046079635620117
1761379945917465300,0.31846533203125,-0.036545753479003906,-0.03775373101234436,0.025455474853515625
1761379945937506300,0.33850634765625,0.34056663513183594,-0.06777569651603699,0.05365103483200073
1761379945957555000,0.358554931640625,0.29355716705322266,-0.06315997242927551,0.008388340473175049
1761379945977619500,0.378619384765625,-0.14279937744140625,-0.05584299564361572,-0.07324016094207764
1761379945997667300,0.398667236328125,-0.36312007904052734,0.008831918239593506,-0.07809460163116455
1761379946017720800,0.418720947265625,-0.028512954711914062,-0.06242898106575012,0.10265219211578369
1761379946037770500,0.4387705078125,0.12073993682861328,-0.036211609840393066,0.18157553672790527
1761379946057827800,0.458827880859375,-0.127227783203125,0.025579214096069336,0.07604974508285522
1761379946077873000,0.478872802734375,-0.4119987487792969,0.03607511520385742,0.06839102506637573
1761379946097924600,0.498924560546875,-0.36610984802246094,0.007234096527099609,0.1028628945350647
1761379946117976000,0.51897607421875,0.08051395416259766,-0.09507593512535095,0.20353996753692627
1761379946138017500,0.539017578125,0.2629709243774414,-0.10888117551803589,0.13756102323532104
1761379946158079000,0.559078857421875,0.12271404266357422,-0.05272597074508667,-0.024675488471984863
1761379946178130400,0.57913037109375,-0.15341472625732422,0.009597718715667725,-0.02421361207962036
1761379946198170400,0.59917041015625,-0.32989501953125,0.01536649465560913,0.028234481811523438
1761379946218230300,0.619230224609375,-0.12996673583984375,0.0016533732414245605,0.019922912120819092
1761379946238273000,0.63927294921875,0.20584774017333984,-0.04793694615364075,0.07045114040374756
1761379946258335500,0.65933544921875,0.22894573211669922,-0.0360352098941803,0.059071898460388184
1761379946278387000,0.679386962890625,-0.1405315399169922,0.009394019842147827,-0.053989946842193604
1761379946298440700,0.699440673828125,-0.3771181106567383,0.02406543493270874,-0.04120558500289917
1761379946318501600,0.719501708984375,-0.14932918548583984,-0.03162500262260437,0.03309589624404907
1761379946338541800,0.739541748046875,0.06822776794433594,-0.025564044713974,0.06721049547195435
1761379946358592300,0.75959228515625,0.017587661743164062,-0.04611051082611084,0.10108029842376709
1761379946378643500,0.7796435546875,-0.12498092651367188,-0.04670792818069458,0.04234212636947632
1761379946398684700,0.7996845703125,-0.04172992706298828,-0.03976622223854065,0.0034114718437194824
1761379946418743000,0.819742919921875,0.1275320053100586,-0.06531769037246704,-0.020997583866119385
1761379946438778600,0.839778564453125,0.09716129302978516,-0.033939868211746216,-0.006798207759857178
1761379946458841600,0.859841552734375,-0.13452529907226562,-0.02294674515724182,0.0613672137260437
1761379946478900500,0.879900390625,-0.3034811019897461,-0.0075473785400390625,0.01950293779373169
1761379946498952200,0.8999521484375,-0.0017118453979492188,-0.02333664894104004,-0.05032980442047119
1761379946518993200,0.9199931640625,0.25127601623535156,-0.057859212160110474,-0.046071767807006836
1761379946539055000,0.94005517578125,0.1388263702392578,-0.05000120401382446,-0.0016829371452331543
1761379946559105500,0.96010546875,-0.05999755859375,-0.016201049089431763,0.06451416015625
1761379946579157000,0.980156982421875,-0.24695587158203125,-0.00030097365379333496,0.06929415464401245
1761379946599209000,1.000208984375,-0.32154178619384766,0.033621519804000854,0.002751290798187256
1761379946619260000,1.020260009765625,-0.16943836212158203,-0.05075198411941528,0.04153996706008911
1761379946639311600,1.0403115234375,-0.005615234375,-0.07362571358680725,0.07614582777023315
1761379946659362800,1.06036279296875,-0.05476856231689453,-0.08295398950576782,0.1208646297454834
1761379946679412000,1.080411865234375,-0.13576889038085938,-0.05812975764274597,0.14401322603225708
1761379946699444500,1.100444580078125,0.025970458984375,-0.08537223935127258,0.12222087383270264
1761379946719518000,1.12051806640625,0.09677791595458984,-0.03246846795082092,0.0008947253227233887
1761379946739541500,1.14054150390625,0.08513641357421875,0.009086430072784424,-0.027126729488372803
1761379946759619300,1.160619384765625,0.04991912841796875,-0.020264536142349243,0.04538154602050781
1761379946779670500,1.18067041015625,-0.04427528381347656,-0.00096893310546875,-0.05301499366760254
1761379946799706000,1.2007060546875,-0.050864219665527344,-0.020277470350265503,-0.10371649265289307
1761379946819769000,1.22076904296875,-0.04967498779296875,-0.04160654544830322,-0.038015007972717285
1761379946839820000,1.240820068359375,-0.2047748565673828,-0.0037505030632019043,-0.03560638427734375
1761379946859878000,1.2608779296875,-0.2604379653930664,0.0005244314670562744,0.020057082176208496
1761379946879927600,1.280927490234375,0.1461925506591797,-0.0396733283996582,0.16346579790115356
1761379946899968000,1.300968017578125,0.32502174377441406,-0.09777712821960449,0.14304602146148682
1761379946920030500,1.321030517578125,0.0457763671875,-0.0675109326839447,0.049459755420684814
1761379946940073200,1.3410732421875,-0.20845890045166016,-0.07094869017601013,0.014507472515106201
1761379946960132900,1.3611328125,-0.24905776977539062,-0.0396026074886322,-0.025938868522644043
1761379946980184600,1.3811845703125,-0.05513477325439453,-0.10559064149856567,0.027644991874694824
1761379947000227300,1.401227294921875,-0.07323646545410156,-0.07838910818099976,0.08968549966812134
1761379947020287200,1.421287353515625,-0.23271751403808594,-0.030765920877456665,0.16884732246398926
1761379947040337700,1.441337646484375,-0.2988739013671875,0.031203001737594604,0.1477389931678772
1761379947060389400,1.461389404296875,-0.04913043975830078,-0.0016157329082489014,0.10225927829742432
1761379947080444200,1.481444091796875,0.20052528381347656,-0.06492829322814941,0.06397563219070435
1761379947100473600,1.5014736328125,0.2507190704345703,-0.07342192530632019,0.01283961534500122
1761379947120534300,1.5215341796875,0.13909053802490234,-0.058971285820007324,0.046921730041503906
1761379947140585000,1.5415849609375,0.05086994171142578,-0.061491191387176514,0.07240527868270874
1761379947160646100,1.561646240234375,0.004094123840332031,-0.013561040163040161,-0.031180977821350098
1761379947180697300,1.581697265625,0.08133983612060547,-0.022226303815841675,-0.02433609962463379
1761379947200742100,1.6017421875,0.00033283233642578125,-0.03827604651451111,0.021038174629211426
1761379947220779500,1.621779541015625,-0.34063243865966797,-0.06790432333946228,0.06381648778915405
1761379947240840700,1.6418408203125,-0.5522575378417969,-0.017347782850265503,0.024486184120178223
1761379947260903200,1.661903076171875,-0.17415618896484375,-0.06511044502258301,0.12794244289398193
1761379947280954600,1.68195458984375,0.16502857208251953,-0.06334280967712402,0.21575266122817993
1761379947300996900,1.701996826171875,0.00046253204345703125,-0.014441132545471191,0.11617136001586914
1761379947321057300,1.722057373046875,-0.24185466766357422,-0.011179357767105103,0.022486329078674316
1761379947341109000,1.74210888671875,-0.1715555191040039,-0.013684689998626709,-0.04265099763870239
1761379947361148700,1.762148681640625,-0.0008955001831054688,-0.034224122762680054,-0.011280298233032227
1761379947381211600,1.782211669921875,0.05339527130126953,-0.06577059626579285,0.06301748752593994
1761379947401252400,1.80225244140625,0.11147785186767578,-0.031164169311523438,0.1155785322189331
1761379947421314300,1.822314208984375,0.1252737045288086,0.009877562522888184,0.12369531393051147
1761379947441365200,1.842365234375,-0.05901813507080078,0.044362038373947144,0.04063326120376587
1761379947461417500,1.86241748046875,-0.11507129669189453,-0.05117917060852051,-0.03730881214141846
1761379947481469200,1.88246923828125,0.006848335266113281,-0.1252630054950714,-0.029729247093200684
1761379947501514800,1.9025146484375,0.0678863525390625,-0.09708130359649658,-0.026106178760528564
1761379947521570800,1.92257080078125,-0.11178016662597656,-0.04337054491043091,0.00221174955368042
1761379947541621800,1.942621826171875,-0.35919952392578125,-0.018866270780563354,0.0336567759513855
1761379947561667300,1.962667236328125,-0.15217876434326172,-0.058525919914245605,0.09711378812789917
1761379947581728000,1.98272802734375,0.09239387512207031,-0.06379565596580505,0.10913926362991333
1761379947601764400,2.002764404296875,0.0057773590087890625,-0.01968565583229065,0.050175249576568604
1761379947621837000,2.022837158203125,-0.11193180084228516,-0.027744531631469727,0.03656363487243652
1761379947641878500,2.04287841796875,0.1492137908935547,-0.09251326322555542,0.053922176361083984
1761379947661929700,2.0629296875,0.3668537139892578,-0.12585675716400146,0.02829796075820923
1761379947681988600,2.082988525390625,0.1813526153564453,-0.07410869002342224,0.0007811188697814941
1761379947702013700,2.103013671875,-0.1837291717529297,-0.007836341857910156,0.04768717288970947
1761379947722084400,2.12308447265625,-0.5828485488891602,0.004895329475402832,0.055473148822784424
1761379947742124500,2.14312451171875,-0.4176139831542969,0.038029879331588745,-0.008854210376739502
1761379947762177300,2.16317724609375,0.12370491027832031,-0.053665488958358765,0.11806243658065796
1761379947782238500,2.183238525390625,0.36383628845214844,-0.0987110435962677,0.16507649421691895
1761379947802269700,2.203269775390625,0.11649703979492188,-0.06196293234825134,0.013331949710845947
1761379947822340900,2.2233408203125,-0.34488582611083984,-0.016070455312728882,-0.11225831508636475
1761379947842392600,2.243392578125,-0.2989511489868164,-0.008495688438415527,0.018224895000457764
1761379947862434600,2.2634345703125,0.1956930160522461,-0.024383723735809326,0.14877814054489136
1761379947882496800,2.283496826171875,0.5935440063476562,-0.06499317288398743,0.12405645847320557
1761379947902537200,2.303537109375,0.3031148910522461,-0.039153337478637695,-0.030952036380767822
1761379947922596600,2.3235966796875,-0.28821372985839844,0.010126590728759766,-0.18630439043045044
1761379947942660400,2.343660400390625,-0.6254796981811523,-0.009756386280059814,-0.16414254903793335
1761379947962689300,2.363689208984375,-0.4582967758178711,-0.02788412570953369,-0.038010358810424805
1761379947982743300,2.383743408203125,-0.15879249572753906,-0.0664898157119751,0.12333065271377563
1761379948002800600,2.403800537109375,-0.08533477783203125,-0.004050791263580322,0.12143343687057495
1761379948022854400,2.4238544921875,-0.1028604507446289,-0.015059888362884521,0.12193334102630615
1761379948042905300,2.4439052734375,-0.10680866241455078,-0.020586282014846802,0.10892325639724731
1761379948062947000,2.463947021484375,0.032034873962402344,-0.06818309426307678,0.057297706604003906
1761379948083008800,2.4840087890625,0.2321186065673828,-0.08699464797973633,-0.04269886016845703
1761379948103060000,2.50406005859375,0.16798877716064453,-0.03576013445854187,-0.06095045804977417
1761379948123111700,2.524111572265625,-0.19952011108398438,0.0026429295539855957,0.005193233489990234
1761379948143163000,2.544162841796875,-0.37970829010009766,0.015003204345703125,0.04328101873397827
1761379948163218200,2.56421826171875,-0.0700693130493164,0.011142849922180176,0.0660940408706665
1761379948183265000,2.58426513671875,0.3198108673095703,-0.0245894193649292,0.053946614265441895
1761379948203296800,2.604296875,0.28637218475341797,-0.043592095375061035,0.0826306939125061
1761379948223368200,2.6243681640625,-0.2279491424560547,-0.033113181591033936,0.03993910551071167
1761379948243409200,2.6444091796875,-0.5297956466674805,-0.06076544523239136,0.015174806118011475
1761379948263456000,2.6644560546875,-0.2766885757446289,-0.06103157997131348,0.027644038200378418
1761379948283501000,2.6845009765625,0.1292877197265625,-0.07924160361289978,0.1873684525489807
1761379948303552800,2.704552734375,0.06377792358398438,-0.05585959553718567,0.18047577142715454
1761379948323592000,2.724592041015625,-0.203033447265625,-0.07164263725280762,0.15871161222457886
1761379948343643100,2.74464306640625,-0.3354787826538086,-0.0994408130645752,0.17103469371795654
1761379948363714000,2.764714111328125,-0.035477638244628906,-0.10460102558135986,0.0329899787902832
1761379948383758000,2.784758056640625,0.21355342864990234,-0.11072957515716553,0.02226799726486206
1761379948403836200,2.804836181640625,0.17380428314208984,-0.029872000217437744,0.024402379989624023
1761379948423881200,2.824881103515625,-0.13814640045166016,-0.01709386706352234,0.04678231477737427
1761379948443935000,2.84493505859375,-0.1035013198852539,0.016845762729644775,-0.05026054382324219
1761379948463984400,2.864984375,0.12163448333740234,-0.02808701992034912,0.003723621368408203
1761379948484025300,2.885025390625,0.03750133514404297,-0.026187539100646973,-0.012614130973815918
1761379948504087300,2.90508740234375,-0.2633838653564453,-0.0077748894691467285,-0.05667191743850708
1761379948524138000,2.925137939453125,-0.27588558197021484,-0.029960721731185913,-0.051914751529693604
1761379948544189200,2.945189208984375,0.14416980743408203,-0.08691626787185669,0.004720866680145264
1761379948564240600,2.96524072265625,0.39655208587646484,-0.08654159307479858,0.04397892951965332
1761379948584292400,2.985292236328125,0.2759275436401367,-0.04829370975494385,0.07925933599472046
1761379948604343600,3.005343505859375,-0.20607757568359375,-0.02056419849395752,0.034845948219299316
1761379948624395000,3.02539501953125,-0.48703765869140625,0.01351618766784668,0.015210568904876709
1761379948644434700,3.0454345703125,-0.2859220504760742,-0.030606627464294434,0.06313073635101318
1761379948664499200,3.065499267578125,0.044231414794921875,-0.04882317781448364,0.11137241125106812
1761379948684551700,3.0855517578125,0.1447162628173828,-0.021563827991485596,0.11375463008880615
1761379948704600000,3.10560009765625,-0.09829330444335938,0.013001412153244019,0.031552672386169434
1761379948724651800,3.12565185546875,-0.2937793731689453,0.025730878114700317,-0.049761295318603516
1761379948744682000,3.145681884765625,0.0036945343017578125,-0.060293614864349365,-0.05331528186798096
1761379948764756000,3.165755859375,0.2773113250732422,-0.11918807029724121,0.040167272090911865
1761379948784807200,3.18580712890625,0.37003231048583984,-0.09878385066986084,0.040445029735565186
1761379948804861000,3.20586083984375,0.1442718505859375,-0.02727264165878296,0.005565226078033447
1761379948824911000,3.2259111328125,-0.2270050048828125,0.004033803939819336,-0.0630948543548584
1761379948844949800,3.24594970703125,-0.33966732025146484,-0.06948015093803406,-0.09419888257980347
1761379948865002200,3.266002197265625,-0.1400604248046875,-0.0978044867515564,-0.10042452812194824
1761379948885065700,3.286065673828125,-0.06983566284179688,-0.12011829018592834,0.027823030948638916
1761379948905119000,3.306118896484375,-0.20798683166503906,-0.0471823513507843,0.11886048316955566
1761379948925166600,3.32616650390625,-0.0894174575805664,-0.023600757122039795,0.11295080184936523
1761379948945207000,3.34620703125,0.17647266387939453,-0.07993441820144653,0.17336875200271606
1761379948965258500,3.366258544921875,-0.05920219421386719,-0.004161745309829712,0.06565052270889282
1761379948985321000,3.386321044921875,-0.3712940216064453,-0.0023334920406341553,0.00847393274307251
1761379949005372400,3.406372314453125,-0.31868648529052734,-0.020646780729293823,-0.047321975231170654
1761379949025425700,3.42642578125,0.12912654876708984,-0.07705959677696228,0.03938615322113037
1761379949045463800,3.4464638671875,0.1651763916015625,-0.03900173306465149,-0.0011759400367736816
1761379949065526300,3.4665263671875,-0.19297218322753906,-0.007699787616729736,-0.020531654357910156
1761379949085577700,3.48657763671875,-0.21961402893066406,-0.018980830907821655,0.050665855407714844
1761379949105618000,3.506617919921875,0.19853973388671875,-0.0468403697013855,0.03535270690917969
1761379949125668900,3.5266689453125,0.3206977844238281,-0.0713859498500824,-0.00232088565826416
1761379949145731600,3.546731689453125,0.008749961853027344,-0.04980441927909851,-0.015732169151306152
1761379949165771500,3.566771484375,-0.29368019104003906,-0.04615458846092224,0.028249084949493408
1761379949185834200,3.586834228515625,-0.3128242492675781,-0.034592658281326294,0.014895856380462646
1761379949205885400,3.606885498046875,-0.05277442932128906,0.0022953152656555176,0.11814737319946289
1761379949225925600,3.626925537109375,0.09557151794433594,-0.03125658631324768,0.23090237379074097
1761379949245987800,3.64698779296875,-0.05479621887207031,0.0012472271919250488,0.11699950695037842
1761379949266039600,3.66703955078125,-0.16980552673339844,-0.042350202798843384,0.028375983238220215
1761379949286091300,3.68709130859375,-0.15145587921142578,-0.07130089402198792,-0.04393112659454346
1761379949306142200,3.70714208984375,0.022520065307617188,-0.10014614462852478,-0.0482824444770813
1761379949326204700,3.72720458984375,0.16471099853515625,-0.07645416259765625,0.10109293460845947
1761379949346245400,3.747245361328125,0.22231006622314453,-0.048616230487823486,0.18012559413909912
1761379949366284500,3.767284423828125,-0.11919975280761719,0.028310269117355347,0.054942190647125244
1761379949386347500,3.787347412109375,-0.3269805908203125,0.02174028754234314,0.01669776439666748
1761379949406398700,3.807398681640625,-0.0910787582397461,-0.048828065395355225,-0.043736934661865234
1761379949426446600,3.827446533203125,0.0865621566772461,-0.04483973979949951,0.008133471012115479
1761379949446501600,3.847501708984375,0.18129444122314453,-0.14559036493301392,0.20308202505111694
1761379949466552600,3.867552490234375,-0.12874126434326172,-0.02313762903213501,0.04499614238739014
1761379949486604500,3.8876044921875,-0.38897228240966797,0.056810081005096436,-0.055492937564849854
1761379949506644700,3.907644775390625,-0.28581809997558594,0.03409552574157715,0.046266138553619385
1761379949526688800,3.927688720703125,-0.10912704467773438,-0.058489054441452026,0.09321749210357666
1761379949546758100,3.947758056640625,0.06256580352783203,-0.09984514117240906,-0.020070135593414307
1761379949566798800,3.967798828125,0.21297836303710938,-0.1336452066898346,-0.036779940128326416
1761379949586860800,3.98786083984375,0.08507823944091797,-0.06354677677154541,-0.016981124877929688
1761379949606912300,4.007912353515625,-0.1045980453491211,-0.028552472591400146,0.026952505111694336
1761379949626956000,4.0279560546875,0.007803916931152344,-0.011187821626663208,0.04791855812072754
1761379949647015000,4.048014892578125,0.13603782653808594,-0.004037797451019287,0.12907612323760986
1761379949667067100,4.068067138671875,0.006134986877441406,0.004652112722396851,0.08956658840179443
1761379949687118600,4.08811865234375,-0.2661905288696289,0.015303701162338257,0.03796738386154175
1761379949707169000,4.1081689453125,-0.3179197311401367,-0.030854344367980957,-0.01170206069946289
1761379949727209700,4.128209716796875,-0.2440805435180664,0.0014832615852355957,-0.05658519268035889
1761379949747272000,4.14827197265625,0.019727706909179688,-0.06905192136764526,-0.040516793727874756
1761379949767319000,4.168319091796875,0.15352153778076172,-0.05904373526573181,0.10518616437911987
1761379949787384300,4.18838427734375,0.20055294036865234,-0.04110860824584961,0.15180456638336182
1761379949807404000,4.208404052734375,0.10561847686767578,0.009070605039596558,0.0695616602897644
1761379949827466500,4.228466552734375,-0.0631265640258789,-0.025197893381118774,0.02438795566558838
1761379949847528700,4.24852880859375,-0.1342926025390625,-0.05698210000991821,-0.02678614854812622
1761379949867580400,4.268580322265625,-0.09485912322998047,-0.07864919304847717,-0.036752939224243164
1761379949887633000,4.2886328125,-0.08905696868896484,-0.06986597180366516,0.019724607467651367
1761379949907682800,4.308682861328125,-0.24292659759521484,-0.012003481388092041,0.07882857322692871
1761379949927740000,4.328739990234375,-0.4110832214355469,0.021422237157821655,0.0693889856338501
1761379949947785700,4.34878564453125,-0.32156944274902344,-0.005435168743133545,0.09218478202819824
1761379949967837000,4.3688369140625,-0.0540008544921875,-0.06342041492462158,0.0614965558052063
1761379949987889000,4.388888916015625,0.24746227264404297,-0.12370964884757996,0.06984776258468628
1761379950007940000,4.408940185546875,0.2551422119140625,-0.14779990911483765,0.10655969381332397
1761379950027979000,4.42897900390625,0.11234378814697266,-0.0514104962348938,-0.01095050573348999
1761379950048042800,4.449042724609375,-0.12681102752685547,0.022149473428726196,-0.052789151668548584
1761379950068093400,4.469093505859375,-0.16710662841796875,-0.031064212322235107,0.05709630250930786
1761379950088144600,4.48914453125,-0.17931079864501953,-0.0005222558975219727,0.033318519592285156
1761379950108196900,4.50919677734375,-0.10827159881591797,0.019893735647201538,0.018656611442565918
1761379950128242200,4.5292421875,-0.06759262084960938,0.021303176879882812,0.007776618003845215
1761379950148299500,4.549299560546875,-0.08380985260009766,0.01595976948738098,-0.02404087781906128
1761379950168350700,4.569350830078125,-0.08764457702636719,-0.0023195743560791016,-0.03353804349899292
1761379950188390700,4.589390625,0.09233760833740234,-0.01961544156074524,-0.059686481952667236
1761379950208453000,4.609453125,0.20023250579833984,-0.05034652352333069,0.045561790466308594
1761379950228486400,4.629486328125,0.15569114685058594,-0.025423645973205566,0.04688948392868042
1761379950248555500,4.649555419921875,0.2125835418701172,-0.12955257296562195,0.13209617137908936
1761379950268597500,4.669597412109375,0.000507354736328125,-0.032450199127197266,0.011725187301635742
1761379950288658000,4.689657958984375,-0.23463916778564453,-0.02510395646095276,0.053925156593322754
1761379950308709600,4.709709716796875,-0.2872791290283203,-0.060852110385894775,0.1397312879562378
1761379950328761600,4.72976171875,-0.29758358001708984,-0.03153863549232483,0.09304946660995483
1761379950348813000,4.74981298828125,-0.049750328063964844,-0.06378647685050964,0.0858338475227356
1761379950368846300,4.769846435546875,0.0639028549194336,-0.05877450108528137,0.06677621603012085
1761379950388905700,4.78990576171875,-0.04877185821533203,-0.02657163143157959,0.07074236869812012
1761379950408966100,4.809966064453125,-0.16380023956298828,-0.04686591029167175,0.11382615566253662
1761379950429006300,4.83000634765625,-0.1877269744873047,-0.016313672065734863,0.026796817779541016
1761379950449069300,4.8500693359375,0.09537124633789062,-0.09086833894252777,0.006163835525512695
1761379950469120000,4.8701201171875,0.32407665252685547,-0.11598357558250427,0.14817047119140625
1761379950489164800,4.890164794921875,0.16688823699951172,-0.06229454278945923,0.14071518182754517
1761379950509224000,4.910223876953125,-0.16522979736328125,-0.003532618284225464,0.037417829036712646
1761379950529262600,4.9302626953125,-0.2591876983642578,0.018508315086364746,0.061862945556640625
1761379950549326300,4.950326416015625,-0.1798553466796875,-0.02220502495765686,0.10010385513305664
1761379950569377300,4.970377197265625,-0.06310844421386719,-0.0975477546453476,0.07372432947158813
1761379950589430800,4.9904306640625,-0.1678485870361328,0.0039321184158325195,-0.06136345863342285
1761379950609479700,5.010479736328125,-0.1607379913330078,0.0015091001987457275,0.03645354509353638
1761379950629520100,5.03052001953125,0.025528907775878906,-0.0268363356590271,0.028610050678253174
1761379950649582800,5.050582763671875,0.0732879638671875,-0.007891714572906494,-0.041232943534851074
1761379950669634000,5.070634033203125,0.08924674987792969,-0.0682712197303772,-0.014938533306121826
1761379950689673700,5.090673828125,-0.0870065689086914,-0.044863611459732056,-0.0614507794380188
1761379950709737000,5.110737060546875,-0.10061168670654297,-0.02822887897491455,-0.036262571811676025
1761379950729788200,5.1307880859375,0.11503791809082031,-0.013915210962295532,0.03657186031341553
1761379950749841700,5.150841552734375,0.1413249969482422,-0.015902042388916016,0.03654956817626953
1761379950769893400,5.170893310546875,-0.08248615264892578,0.007827937602996826,-0.009007096290588379
1761379950789925600,5.190925537109375,-0.15782833099365234,-0.01624119281768799,-0.05653417110443115
1761379950809994000,5.210993896484375,-0.22612953186035156,-0.03923225402832031,-0.1117132306098938
1761379950830045700,5.231045654296875,-0.19425010681152344,-0.08515802025794983,-0.16442853212356567
1761379950850076400,5.251076416015625,-0.015448570251464844,-0.0993981659412384,-0.12223470211029053
1761379950870147600,5.271147705078125,0.10468387603759766,-0.07911396026611328,0.12527930736541748
1761379950890188000,5.29118798828125,0.06984138488769531,-0.06037130951881409,0.13791406154632568
1761379950910250500,5.31125048828125,-0.16806602478027344,0.017609715461730957,-0.012424886226654053
1761379950930302000,5.331302001953125,-0.05554962158203125,-0.015225768089294434,0.019234299659729004
1761379950950353400,5.351353515625,0.08862113952636719,-0.0911167562007904,0.12148129940032959
1761379950970403800,5.37140380859375,-0.0266876220703125,-0.04385828971862793,0.04368191957473755
1761379950990444300,5.3914443359375,-0.048821449279785156,-0.03034287691116333,0.06473290920257568
1761379951010507500,5.411507568359375,0.08878803253173828,-0.03291267156600952,0.09802192449569702
1761379951030546700,5.431546630859375,-0.014849662780761719,-0.010418951511383057,0.014473378658294678
1761379951050595600,5.451595703125,-0.1733245849609375,0.025417357683181763,-0.0003662109375
1761379951070657000,5.471656982421875,-0.2083587646484375,0.015150696039199829,0.04437673091888428
1761379951090701000,5.491701171875,-0.0982503890991211,-0.012395739555358887,0.16275042295455933
1761379951110763300,5.51176318359375,0.012854576110839844,-0.06569409370422363,0.22420674562454224
1761379951130815500,5.5318154296875,-0.015384674072265625,-0.05617764592170715,0.03992587327957153
1761379951150866700,5.55186669921875,-0.022993087768554688,-0.048816561698913574,-0.06666821241378784
1761379951170905900,5.57190576171875,-0.0051212310791015625,-0.03992575407028198,0.030342042446136475
1761379951190969300,5.59196923828125,-0.09797000885009766,-0.006928354501724243,0.05610579252243042
1761379951211020000,5.61202001953125,-0.07713603973388672,0.006383925676345825,0.07250571250915527
1761379951231060700,5.632060791015625,-0.11258316040039062,0.02321353554725647,0.08154547214508057
1761379951251123500,5.65212353515625,-0.21841907501220703,0.015190988779067993,0.06045210361480713
1761379951271152600,5.672152587890625,-0.2593803405761719,-0.04000094532966614,0.07298856973648071
1761379951291226400,5.692226318359375,-0.0930795669555664,-0.11252002418041229,-0.008539199829101562
1761379951311265800,5.712265869140625,0.2756643295288086,-0.11915795505046844,-0.13165819644927979
1761379951331328500,5.73232861328125,0.4022560119628906,-0.11629718542098999,0.10916739702224731
1761379951351380200,5.752380126953125,0.20019817352294922,-0.03130611777305603,0.24883884191513062
1761379951371420400,5.77242041015625,-0.1878347396850586,-0.007605165243148804,0.17302006483078003
1761379951391482600,5.792482666015625,-0.28229522705078125,-0.016349107027053833,-0.0030219554901123047
1761379951411534300,5.812534423828125,0.013631820678710938,-0.05978035926818848,-0.04123109579086304
1761379951431584800,5.832584716796875,0.08782482147216797,-0.08496317267417908,0.04961860179901123
1761379951451637000,5.852636962890625,-0.3108377456665039,-0.057626187801361084,-0.014363229274749756
1761379951471677000,5.872677001953125,-0.5023622512817383,-0.04645165801048279,-0.0427936315536499
1761379951491739400,5.892739501953125,-0.03780841827392578,-0.031606972217559814,0.0319826602935791
1761379951511790300,5.912790283203125,0.3446483612060547,-0.10210457444190979,0.11742299795150757
1761379951531832300,5.932832275390625,0.10218048095703125,-0.07930818200111389,-0.014783501625061035
1761379951551871000,5.95287109375,-0.28484058380126953,-0.03706467151641846,-0.0980948805809021
1761379951571927300,5.97292724609375,-0.3019733428955078,-0.06829491257667542,-0.0011945366859436035
1761379951591974100,5.99297412109375,-0.030244827270507812,-0.06889605522155762,0.05157548189163208
1761379951612013800,6.013013916015625,0.12331771850585938,-0.06249856948852539,0.021021783351898193
1761379951632083700,6.033083740234375,0.03286933898925781,-0.03093540668487549,-0.012682020664215088
1761379951652142600,6.053142578125,-0.17940139770507812,-0.02330872416496277,0.13063091039657593
1761379951672187000,6.073186767578125,-0.24494457244873047,0.010580062866210938,0.15944039821624756
1761379951692253000,6.0932529296875,-0.10196876525878906,-0.00672227144241333,0.11313384771347046
1761379951712304000,6.11330419921875,-0.12468814849853516,-0.025438278913497925,0.173281729221344
1761379951732345600,6.133345703125,-0.30005359649658203,0.024056553840637207,0.0746646523475647
1761379951752406800,6.15340673828125,-0.20749378204345703,-0.003473728895187378,-0.06446695327758789
1761379951772458200,6.173458251953125,-0.07412910461425781,-0.07983565330505371,-0.10567396879196167
1761379951792498000,6.193497802734375,0.15735626220703125,-0.1339823454618454,-0.21295225620269775
1761379951812561000,6.213560791015625,0.10080337524414062,-0.07591520249843597,-0.17908793687820435
1761379951832612000,6.233612060546875,0.6438713073730469,-0.09779247641563416,0.12157422304153442
1761379951852674000,6.253674072265625,0.3285055160522461,0.06850817799568176,-0.03392231464385986
1761379951872715300,6.27371533203125,-0.1101837158203125,0.11921404302120209,-0.020042777061462402
1761379951892766000,6.293765869140625,-0.1506938934326172,0.037142619490623474,0.12246459722518921
1761379951912817400,6.3138173828125,-0.12448883056640625,-0.0095883309841156,0.12526917457580566
1761379951932868600,6.33386865234375,-0.13210487365722656,-0.04611758887767792,0.05028897523880005
1761379951952920300,6.35392041015625,-0.07703781127929688,-0.10872650146484375,0.06480598449707031
1761379951972971800,6.3739716796875,0.04647350311279297,-0.057140037417411804,0.05689072608947754
1761379951993022500,6.3940224609375,0.09870719909667969,-0.04648660123348236,0.16791492700576782
1761379952013074400,6.414074462890625,-0.0008268356323242188,-0.04691512882709503,0.1760677695274353
1761379952033125400,6.43412548828125,-0.16623401641845703,-0.04396790266036987,0.1258736252784729
1761379952053178600,6.4541787109375,-0.060441017150878906,-0.06473420560359955,0.1022229790687561
1761379952073228300,6.474228271484375,0.04311561584472656,-0.03798273205757141,0.06595003604888916
1761379952093268200,6.494268310546875,-0.05623340606689453,-0.03499060869216919,0.0818893313407898
1761379952113341200,6.514341064453125,-0.2168741226196289,-0.019967854022979736,0.045772433280944824
1761379952133382700,6.534382568359375,-0.25803184509277344,-0.014840275049209595,-0.015591859817504883
1761379952153414100,6.5544140625,-0.19228839874267578,0.001104116439819336,-0.04763233661651611
1761379952173473800,6.574473876953125,-0.14538192749023438,-0.007938951253890991,0.05096018314361572
1761379952193536800,6.594536865234375,0.0025892257690429688,-0.10794192552566528,0.11749184131622314
1761379952213588000,6.614587890625,0.17377471923828125,-0.09770338237285614,0.0489841103553772
1761379952233628000,6.6346279296875,0.3939018249511719,-0.04820120334625244,-0.020973503589630127
1761379952253690600,6.654690673828125,0.2595071792602539,-0.004508525133132935,0.026335835456848145
1761379952273742000,6.6747421875,-0.3033018112182617,0.04178312420845032,0.013569951057434082
1761379952293793800,6.694793701171875,-0.4535484313964844,-0.09060722589492798,0.06125903129577637
1761379952313828000,6.714828125,-0.1675872802734375,0.04312032461166382,-0.1783689260482788
1761379952333884400,6.734884521484375,-0.1166238784790039,-0.028653383255004883,-0.1626632809638977
1761379952353936100,6.75493603515625,-0.16649913787841797,-0.053500086069107056,-0.02464115619659424
1761379952373998800,6.774998779296875,-0.2733116149902344,-0.0431172251701355,-0.056003570556640625
1761379952394050600,6.795050537109375,-0.14612674713134766,-0.06931664049625397,-0.06144070625305176
1761379952414101000,6.81510107421875,0.2392730712890625,-0.04647603631019592,-0.034717559814453125
1761379952434131200,6.835131103515625,0.4592885971069336,-0.11108972132205963,0.026329994201660156
1761379952454204200,6.8552041015625,0.2903461456298828,-0.08675073087215424,0.064117431640625
1761379952474255400,6.87525537109375,-0.11873149871826172,-0.04972675442695618,0.057521045207977295
1761379952494307000,6.89530712890625,-0.43861865997314453,0.01948368549346924,0.02295786142349243
1761379952514344200,6.91534423828125,-0.3759613037109375,0.04148191213607788,0.10350167751312256
1761379952534409700,6.93540966796875,-0.11621761322021484,-0.03532242774963379,0.15427780151367188
1761379952554448600,6.95544873046875,0.08174610137939453,-0.06031635403633118,0.05019313097000122
1761379952574512400,6.975512451171875,0.13137149810791016,-0.06376372277736664,0.025444507598876953
1761379952594563800,6.995563720703125,-0.04803466796875,-0.014897584915161133,-0.003689110279083252
1761379952614614500,7.015614501953125,-0.15399456024169922,-0.01963910460472107,0.0880994200706482
1761379952634665700,7.035665771484375,-0.12824630737304688,-0.017123937606811523,0.13830643892288208
1761379952654718200,7.05571826171875,-0.05471611022949219,-0.0034702718257904053,0.13585060834884644
1761379952674768600,7.0757685546875,-0.02469921112060547,-0.03133291006088257,0.09857392311096191
1761379952694822100,7.095822265625,0.06473636627197266,-0.06460648775100708,0.018339812755584717
1761379952714866200,7.1158662109375,0.1777963638305664,-0.08563953638076782,-0.011988341808319092
1761379952734922500,7.135922607421875,0.06821060180664062,-0.037599653005599976,0.07613331079483032
1761379952754970600,7.155970703125,-0.2457284927368164,-0.003948897123336792,0.11920166015625
1761379952775026000,7.17602587890625,-0.2970104217529297,0.03282034397125244,-0.001963794231414795
1761379952795076900,7.196076904296875,-0.14589595794677734,0.02652078866958618,-0.09135490655899048
1761379952815116500,7.216116455078125,0.03980445861816406,0.004074990749359131,-0.0699724555015564
1761379952835179800,7.2361796875,0.20972919464111328,-0.03273823857307434,-0.010181844234466553
1761379952855230500,7.25623046875,0.17545700073242188,0.009421736001968384,-0.016039013862609863
1761379952875282200,7.2762822265625,0.01526641845703125,-0.020943477749824524,0.06919395923614502
1761379952895333400,7.29633349609375,-0.07408428192138672,-0.08338572084903717,0.07901746034622192
1761379952915392500,7.316392578125,-0.07039737701416016,-0.1092907190322876,0.04675626754760742
1761379952935426800,7.3364267578125,-0.05800914764404297,-0.10493898391723633,0.06804722547531128
1761379952955495000,7.356494873046875,-0.13635921478271484,-0.09048639237880707,0.034933388233184814
1761379952975539000,7.3765390625,-0.2818021774291992,-0.06280842423439026,0.04759591817855835
1761379952995590700,7.396590576171875,-0.2847728729248047,-0.014392852783203125,0.1542055606842041
1761379953015629000,7.416629150390625,-0.2889842987060547,0.0209580659866333,0.1482539176940918
1761379953035692800,7.43669287109375,-0.19188880920410156,-0.0017864108085632324,0.017164111137390137
1761379953055744300,7.456744140625,0.12028789520263672,-0.04121825098991394,-0.09095531702041626
1761379953075796200,7.476796142578125,0.3113889694213867,-0.04226307570934296,-0.08122527599334717
1761379953095847000,7.496846923828125,0.18625640869140625,-0.010080575942993164,-0.07744032144546509
1761379953115887000,7.51688720703125,-0.06902694702148438,-0.008360549807548523,-0.036094069480895996
1761379953135939000,7.53693896484375,0.021253585815429688,-0.01561063528060913,-0.022283852100372314
1761379953155996700,7.55699658203125,0.1727457046508789,-0.014168009161949158,0.05916064977645874
1761379953176052200,7.57705224609375,0.03697967529296875,0.016817331314086914,0.07454198598861694
1761379953196104200,7.597104248046875,-0.23692989349365234,-0.03753271698951721,0.13247054815292358
1761379953216154000,7.617154052734375,-0.2816762924194336,-0.06555923819541931,0.09401321411132812
1761379953236207000,7.63720703125,-0.060741424560546875,-0.10930001735687256,0.05493515729904175
1761379953256257500,7.657257568359375,-0.010986328125,-0.109734907746315,0.0736570954322815
1761379953276308700,7.677308837890625,-0.22503089904785156,-0.04968152940273285,0.10955685377120972
1761379953296361000,7.69736083984375,-0.33762264251708984,-0.06960999965667725,0.1727336049079895
1761379953316397000,7.71739697265625,-0.18491649627685547,-0.058110252022743225,0.04670143127441406
1761379953336451800,7.737451904296875,0.10772895812988281,-0.06096354126930237,-0.04986298084259033
1761379953356504300,7.75750439453125,0.1443796157836914,-0.024470210075378418,-0.06188607215881348
1761379953376577500,7.77757763671875,-0.04511260986328125,0.03423240780830383,-0.012161552906036377
1761379953396616700,7.79761669921875,-0.04091835021972656,-0.03752139210700989,0.009989917278289795
1761379953416677400,7.817677490234375,0.02387714385986328,-0.019688501954078674,-0.10519564151763916
1761379953436720400,7.837720458984375,0.032469749450683594,-0.05465430021286011,-0.08865809440612793
1761379953456771800,7.857771728515625,-0.06664371490478516,-0.02110043168067932,-0.02260524034500122
1761379953476822500,7.877822509765625,-0.1577463150024414,-0.013114780187606812,0.12334966659545898
1761379953496873700,7.897873779296875,-0.11560440063476562,0.030328214168548584,0.09033435583114624
1761379953516925200,7.91792529296875,0.11136436462402344,-0.01081797480583191,0.06613385677337646
1761379953536976600,7.9379765625,0.15990066528320312,-0.07547223567962646,0.08310145139694214
1761379953557028600,7.958028564453125,-0.0503997802734375,-0.06097659468650818,0.04234719276428223
1761379953577068800,7.97806884765625,-0.261444091796875,-0.061018407344818115,-0.021980762481689453
1761379953597119200,7.998119140625,-0.3884468078613281,0.007032901048660278,0.08176428079605103
1761379953617170700,8.018170654296876,-0.1260089874267578,0.05810926854610443,0.13388514518737793
1761379953637233400,8.0382333984375,-0.00978851318359375,-0.010768845677375793,0.20267820358276367
1761379953657285400,8.058285400390625,-0.4946918487548828,0.10628019273281097,0.1047353744506836
1761379953677336000,8.078336181640625,-0.37484264373779297,-0.007625699043273926,0.15866410732269287
1761379953697375700,8.098375732421875,0.17746734619140625,-0.05315414071083069,0.05557751655578613
1761379953717428700,8.1184287109375,0.43599796295166016,-0.16793103516101837,0.11824041604995728
1761379953737490200,8.138490234375,0.5538654327392578,-0.12830621004104614,-0.05406457185745239
1761379953757541000,8.158541015625,0.33957576751708984,-0.13634027540683746,-0.17299479246139526
1761379953777583000,8.1785830078125,0.1697225570678711,-0.07282301038503647,-0.1521521806716919
1761379953797643800,8.198643798828124,-0.19674205780029297,0.019195452332496643,-0.09142595529556274
1761379953817695700,8.21869580078125,-0.4091482162475586,0.0671088844537735,0.07534778118133545
1761379953837747700,8.238747802734375,0.05968475341796875,0.0019922107458114624,0.25519710779190063
1761379953857798400,8.25879833984375,0.5633945465087891,-0.0696098804473877,0.06611073017120361
1761379953877849600,8.278849609375,0.19409561157226562,-0.06839960813522339,-0.1452355980873108
1761379953897900800,8.29890087890625,-0.42389583587646484,-0.026153281331062317,0.039837539196014404
1761379953917952500,8.318952392578124,-0.582056999206543,-0.0063790977001190186,-0.19796526432037354
1761379953938003500,8.33900341796875,-0.47280120849609375,-0.11932580173015594,-0.14494585990905762
1761379953958054700,8.3590546875,0.045601844787597656,-0.07769909501075745,-0.04378277063369751
1761379953978097000,8.379096923828126,0.14879798889160156,-0.03495904803276062,0.16235947608947754
1761379953998157800,8.39915771484375,0.15685367584228516,0.041940927505493164,0.05968737602233887
1761379954018197800,8.41919775390625,0.04919719696044922,0.015446245670318604,0.14486318826675415
1761379954038260700,8.4392607421875,0.11158370971679688,-0.02194291353225708,0.21044212579727173
1761379954058311700,8.459311767578125,-0.15768814086914062,-0.01149606704711914,-0.13622558116912842
1761379954078350800,8.479350830078126,-0.3041391372680664,-0.05987505614757538,-0.16433054208755493
1761379954098414300,8.499414306640626,-0.20212650299072266,-0.05508635938167572,-0.12924695014953613
1761379954118465500,8.519465576171875,-0.11548233032226562,-0.1195562332868576,0.04838508367538452
1761379954138517500,8.539517578125,0.0752878189086914,0.04686164855957031,-0.15493327379226685
1761379954158568700,8.559568603515626,-0.23965835571289062,-0.006628841161727905,0.1419222354888916
1761379954178614500,8.579614501953126,-0.4200592041015625,0.1095922589302063,0.1935596466064453
1761379954198670800,8.5996708984375,-0.27632999420166016,0.09756588935852051,0.22018617391586304
1761379954218678500,8.619678466796875,0.18870067596435547,-0.0577482134103775,0.633819043636322
