time,seconds_elapsed,z,y,x
1761379056033487400,0.1164873046875,-0.05462455749511719,-0.0038616061210632324,-0.0001445617526769638
1761379056053562000,0.13656201171875,-0.0424957275390625,0.003871917724609375,0.006750945001840591
1761379056073614300,0.1566142578125,-0.06430912017822266,0.001161336898803711,0.006619686260819435
1761379056093666300,0.176666259765625,-0.053002357482910156,0.0004693269729614258,0.00863933190703392
1761379056113717500,0.196717529296875,-0.05185413360595703,0.005614280700683594,0.004682060331106186
1761379056133772300,0.216772216796875,-0.05200958251953125,0.010173916816711426,0.008317733183503151
1761379056153823200,0.2368232421875,-0.05199909210205078,0.011986494064331055,0.0030011553317308426
1761379056173858600,0.256858642578125,-0.04607105255126953,-0.00839531421661377,-0.00009186007082462311
1761379056193954800,0.276954833984375,-0.05303955078125,-0.009666383266448975,0.0031425096094608307
1761379056213980400,0.29698046875,-0.054251670837402344,-0.008718788623809814,-0.003041014075279236
1761379056234033000,0.317032958984375,-0.04266834259033203,-0.0017496943473815918,0.005213771015405655
1761379056254085400,0.33708544921875,-0.04393577575683594,-0.00042498111724853516,0.009931670501828194
1761379056274137900,0.357137939453125,-0.05289649963378906,0.0058498382568359375,0.009083278477191925
1761379056294190600,0.377190673828125,-0.044808387756347656,0.006786942481994629,0.008111663162708282
1761379056314242800,0.397242919921875,-0.044562339782714844,-0.004341304302215576,0.009241120889782906
1761379056334295300,0.41729541015625,-0.05152320861816406,0.002100825309753418,-0.0011215973645448685
1761379056354348300,0.437348388671875,-0.052097320556640625,-0.009933531284332275,0.00499904528260231
1761379056374400800,0.45740087890625,-0.056191444396972656,-0.0029865503311157227,-0.0010962355881929398
1761379056394453000,0.477452880859375,-0.051390647888183594,0.00018924474716186523,0.004538938403129578
1761379056414505500,0.49750537109375,-0.05035591125488281,0.007256746292114258,0.005139267072081566
1761379056434558000,0.517557861328125,-0.03973579406738281,0.00965803861618042,0.006816640496253967
1761379056454610700,0.537610595703125,-0.047026634216308594,0.01092904806137085,0.0073305778205394745
1761379056474666000,0.557666015625,-0.05309104919433594,0.003523528575897217,0.005566487088799477
1761379056494715400,0.57771533203125,-0.05824756622314453,0.0017122626304626465,0.009092705324292183
1761379056514767600,0.597767578125,-0.05651283264160156,0.000864565372467041,-0.00157952681183815
1761379056534820400,0.6178203125,-0.056792259216308594,-0.009717762470245361,0.004217660054564476
1761379056554877000,0.637876953125,-0.05695152282714844,-0.009801685810089111,-0.0009777378290891647
1761379056574905000,0.657905029296875,-0.046588897705078125,0.0004075765609741211,0.0015166420489549637
1761379056594977500,0.6779775390625,-0.043829917907714844,0.006371140480041504,0.010307814925909042
1761379056615030300,0.6980302734375,-0.05091381072998047,0.0014178752899169922,0.010749705135822296
1761379056635082800,0.718082763671875,-0.05031394958496094,0.006644070148468018,0.0067150890827178955
1761379056655155200,0.7381552734375,-0.05593299865722656,0.0004304051399230957,0.0032063405960798264
1761379056675168300,0.758168212890625,-0.055042266845703125,0.0022162795066833496,0.0014022383838891983
1761379056695240400,0.778240478515625,-0.052337646484375,-0.004497170448303223,-0.0016622599214315414
1761379056715292400,0.79829248046875,-0.051201820373535156,0.0037750601768493652,0.0028337202966213226
1761379056735345200,0.81834521484375,-0.055520057678222656,-0.0004563331604003906,0.008082715794444084
1761379056755398000,0.83839794921875,-0.05296134948730469,0.004177868366241455,0.0017474628984928131
1761379056775450400,0.858450439453125,-0.054556846618652344,0.0029590725898742676,0.009862659499049187
1761379056795502600,0.878502685546875,-0.052857398986816406,0.0031040310859680176,0.005217988044023514
1761379056815555000,0.89855517578125,-0.05356884002685547,0.0032896995544433594,0.004846075549721718
1761379056835611600,0.918611572265625,-0.045055389404296875,-0.004036307334899902,0.00667291134595871
1761379056855660000,0.938659912109375,-0.051552772521972656,-0.001201927661895752,-5.476176738739014e-7
1761379056875713500,0.958713623046875,-0.047942161560058594,0.006397068500518799,0.0033893827348947525
1761379056895765200,0.97876513671875,-0.0471954345703125,0.0043215155601501465,0.007495718076825142
1761379056915817200,0.998817138671875,-0.048614501953125,0.002494335174560547,0.008925458416342735
1761379056935873500,1.01887353515625,-0.05592155456542969,-0.006303548812866211,0.002462344244122505
1761379056955902000,1.03890185546875,-0.039180755615234375,-0.002340555191040039,0.004439083859324455
1761379056975975200,1.05897509765625,-0.05553150177001953,0.0017435550689697266,0.007871763780713081
1761379056996027600,1.079027587890625,-0.04559326171875,-0.004327595233917236,0.00845506601035595
1761379057016080100,1.099080078125,-0.047385215759277344,0.002254307270050049,0.006472954526543617
1761379057036112000,1.11911181640625,-0.048858642578125,0.005465865135192871,0.0007943175733089447
1761379057056185600,1.139185546875,-0.056797027587890625,0.0029764175415039062,0.005234548822045326
1761379057076238300,1.15923828125,-0.04534721374511719,-0.0009073615074157715,0.009171850979328156
1761379057096290000,1.1792900390625,-0.05687236785888672,0.013559162616729736,0.008178874850273132
1761379057116342500,1.199342529296875,-0.062469482421875,0.001620948314666748,0.004397662356495857
1761379057136395300,1.219395263671875,-0.05326557159423828,0.006689727306365967,-0.003974931314587593
1761379057156448000,1.239447998046875,-0.04485607147216797,-0.008215188980102539,0.004201838746666908
1761379057176500200,1.259500244140625,-0.04754638671875,-0.010582566261291504,0.0035960227251052856
1761379057196552400,1.279552490234375,-0.04430198669433594,0.0011031627655029297,0.0029014069586992264
1761379057216605400,1.29960546875,-0.04519939422607422,-0.0015276074409484863,0.008694276213645935
1761379057236658200,1.319658203125,-0.04810333251953125,0.0022849440574645996,0.0011693015694618225
1761379057256693500,1.339693603515625,-0.049904823303222656,0.0036169886589050293,0.005907861515879631
1761379057276763100,1.35976318359375,-0.05594348907470703,0.00486600399017334,-0.003194466233253479
1761379057296815000,1.379815185546875,-0.05260467529296875,0.0040874481201171875,0.004866577684879303
1761379057316869600,1.39986962890625,-0.06241035461425781,-0.005782961845397949,-0.0002741161733865738
1761379057336899300,1.4198994140625,-0.05479717254638672,0.001079261302947998,0.0060370806604623795
1761379057356972500,1.43997265625,-0.05763435363769531,0.008224308490753174,0.014983700588345528
1761379057377025000,1.46002490234375,-0.03722953796386719,0.010551869869232178,0.0026624593883752823
1761379057397077200,1.4800771484375,-0.05529212951660156,0.00410228967666626,0.00938209518790245
1761379057417134800,1.500134765625,-0.04229927062988281,0.005379140377044678,0.002232905477285385
1761379057437167600,1.520167724609375,-0.055736541748046875,0.0023384690284729004,0.0040615517646074295
1761379057457235000,1.54023486328125,-0.053936004638671875,0.003031015396118164,0.003257572650909424
1761379057477287700,1.56028759765625,-0.05728912353515625,0.0006607174873352051,0.0007017366588115692
1761379057497340000,1.58033984375,-0.055572509765625,-0.006805241107940674,0.005978863686323166
1761379057517392400,1.600392333984375,-0.05841064453125,0.004886746406555176,0.009956777095794678
1761379057537413600,1.62041357421875,-0.048338890075683594,-0.0050508975982666016,-0.0041570886969566345
1761379057557497300,1.640497314453125,-0.045516014099121094,-0.0018585920333862305,0.006324458867311478
1761379057577550300,1.66055029296875,-0.05055999755859375,0.0016385912895202637,0.007430471479892731
1761379057597602800,1.680602783203125,-0.05392932891845703,0.009842872619628906,0.0013373736292123795
1761379057617660400,1.700660400390625,-0.054968833923339844,0.0013957619667053223,0.0036445017904043198
1761379057637708000,1.7207080078125,-0.05427742004394531,-0.00007253885269165039,-0.004721976816654205
1761379057657759500,1.740759521484375,-0.05430793762207031,-0.0038179755210876465,-0.0024494286626577377
1761379057677812500,1.7608125,-0.055602073669433594,0.006493330001831055,0.003120429813861847
1761379057697867300,1.7808671875,-0.055022239685058594,0.0085982084274292,-0.0009403396397829056
1761379057717899300,1.800899169921875,-0.04697418212890625,0.003435492515563965,0.004865508526563644
1761379057737947400,1.820947509765625,-0.04833030700683594,0.004767060279846191,0.001794947311282158
1761379057758022400,1.8410224609375,-0.048736572265625,0.0027555227279663086,0.01006641797721386
1761379057778075000,1.861074951171875,-0.056854248046875,-0.0015163421630859375,0.004973325878381729
1761379057798127400,1.88112744140625,-0.05237579345703125,0.0011816024780273438,0.0017185807228088379
1761379057818180900,1.901180908203125,-0.053917884826660156,-0.004239499568939209,0.005786944180727005
1761379057838233000,1.921233154296875,-0.05487060546875,0.0044942498207092285,0.0036452151834964752
1761379057858264000,1.94126416015625,-0.05279254913330078,0.003450155258178711,0.003194781020283699
1761379057878339300,1.96133935546875,-0.05871868133544922,0.005493283271789551,0.008287804201245308
1761379057898391800,1.981391845703125,-0.05294513702392578,-0.009388983249664307,0.005150899291038513
1761379057918444800,2.00144482421875,-0.042034149169921875,0.004525363445281982,0.009800948202610016
1761379057938505500,2.02150537109375,-0.06320953369140625,-0.003239929676055908,0.003918346017599106
1761379057958550300,2.04155029296875,-0.049223899841308594,0.0034653544425964355,-0.0014155656099319458
1761379057978604500,2.0616044921875,-0.056229591369628906,-0.0008684396743774414,0.0001196935772895813
1761379057998657800,2.08165771484375,-0.04440784454345703,0.006010293960571289,-0.00233352929353714
1761379058018706700,2.101706787109375,-0.057342529296875,-0.000013232231140136719,0.00681515596807003
1761379058038759700,2.121759765625,-0.04682731628417969,0.015165746212005615,0.007601788267493248
1761379058058811100,2.14181103515625,-0.058502197265625,0.010832488536834717,0.0048934463411569595
1761379058078867200,2.1618671875,-0.054085731506347656,0.0040590763092041016,0.005986854434013367
1761379058098894600,2.18189453125,-0.049869537353515625,0.008067905902862549,0.0029748044908046722
1761379058118965200,2.20196533203125,-0.05171966552734375,-0.0034366846084594727,-0.00023680739104747772
1761379058139021000,2.22202099609375,-0.049704551696777344,-0.013107657432556152,0.002698279917240143
1761379058159073500,2.242073486328125,-0.04996204376220703,-0.003976762294769287,0.007740294560790062
1761379058179126300,2.262126220703125,-0.0462188720703125,-0.006594300270080566,0.00007320195436477661
1761379058199179500,2.282179443359375,-0.04710578918457031,0.002977430820465088,-0.0023589059710502625
1761379058219231200,2.302231201171875,-0.052186012268066406,0.0031777024269104004,0.007710399106144905
1761379058239283500,2.322283447265625,-0.05691051483154297,0.0022315382957458496,0.005213938653469086
1761379058259336700,2.342336669921875,-0.05252552032470703,0.004410207271575928,0.007213417440652847
1761379058279389400,2.362389404296875,-0.05272388458251953,-0.005579352378845215,0.004168793559074402
1761379058299438000,2.38243798828125,-0.059691429138183594,0.010473430156707764,0.004179570823907852
1761379058319494000,2.402493896484375,-0.058441162109375,0.0060427188873291016,0.00588441826403141
1761379058339548000,2.4225478515625,-0.04676246643066406,0.00046432018280029297,0.007185745984315872
1761379058359602700,2.442602783203125,-0.048213958740234375,0.005886733531951904,0.008420860394835472
1761379058379653000,2.462653076171875,-0.04221820831298828,0.004926502704620361,0.009394198656082153
1761379058399704000,2.4827041015625,-0.051461219787597656,0.004156351089477539,0.008114762604236603
1761379058419756300,2.50275634765625,-0.05592155456542969,0.004645884037017822,0.009308310225605965
1761379058439808500,2.52280859375,-0.04911994934082031,0.0007898211479187012,0.0036096833646297455
1761379058459829200,2.542829345703125,-0.05241680145263672,-0.00014609098434448242,0.003294108435511589
1761379058479896300,2.562896240234375,-0.049033164978027344,-0.005615532398223877,0.004402700811624527
1761379058499946000,2.582946044921875,-0.05109119415283203,0.0007233619689941406,0.003289453685283661
1761379058520018700,2.603018798828125,-0.04467010498046875,-0.0017955303192138672,0.0035554636269807816
1761379058540071000,2.62307080078125,-0.048851966857910156,0.008612513542175293,0.006163693964481354
1761379058560124200,2.643124267578125,-0.049457550048828125,0.005531013011932373,0.01036413386464119
1761379058580176600,2.6631767578125,-0.05530548095703125,-0.0019766688346862793,0.007491474971175194
1761379058600229600,2.683229736328125,-0.05111122131347656,0.005248129367828369,0.007716907188296318
1761379058620281300,2.70328125,-0.060187339782714844,0.007637202739715576,0.00249575637280941
1761379058640333800,2.723333740234375,-0.05555248260498047,0.005384624004364014,0.009396757930517197
1761379058660386600,2.743386474609375,-0.055726051330566406,0.008505463600158691,0.00788787566125393
1761379058680439800,2.763439697265625,-0.05410480499267578,0.004452764987945557,0.0071174148470163345
1761379058700492300,2.7834921875,-0.053801536560058594,0.006574153900146484,-0.0007019918411970139
1761379058720545000,2.803544921875,-0.046898841857910156,0.00013518333435058594,0.0009017437696456909
1761379058740599000,2.82359912109375,-0.052753448486328125,-0.0025839805603027344,0.009027170017361641
1761379058760653600,2.843653564453125,-0.051659584045410156,0.005479156970977783,0.0018080733716487885
1761379058780703500,2.863703369140625,-0.05706501007080078,-0.007050037384033203,0.0071128904819488525
1761379058800746800,2.883746826171875,-0.05542945861816406,0.0009527206420898438,0.003750532865524292
1761379058820806000,2.903805908203125,-0.05099201202392578,0.006543338298797607,0.005679229274392128
1761379058840862000,2.923862060546875,-0.047011375427246094,-0.001233220100402832,0.0029947739094495773
1761379058860892700,2.943892578125,-0.047840118408203125,-0.00016742944717407227,0.005064679309725761
1761379058880960800,2.963960693359375,-0.05715751647949219,0.009149610996246338,0.008005399256944656
1761379058901016000,2.98401611328125,-0.05330944061279297,0.003525376319885254,0.0021064504981040955
1761379058921069000,3.004069091796875,-0.047710418701171875,0.0025864839553833008,0.003351746127009392
1761379058941120800,3.024120849609375,-0.042423248291015625,0.0008217096328735352,0.005233334377408028
1761379058961173800,3.044173828125,-0.048552513122558594,0.005246341228485107,0.0035812165588140488
1761379058981226800,3.064226806640625,-0.052056312561035156,-0.0016334056854248047,0.0019553806632757187
1761379059001258000,3.084258056640625,-0.05693340301513672,0.0019024014472961426,0.0013046860694885254
1761379059021331700,3.104331787109375,-0.057913780212402344,0.004014551639556885,0.000217486172914505
1761379059041384400,3.124384521484375,-0.05614757537841797,0.004653632640838623,0.00039251334965229034
1761379059061414000,3.144413818359375,-0.04637432098388672,0.005359232425689697,0.008004564791917801
1761379059081466000,3.164466064453125,-0.05985450744628906,0.0074037909507751465,0.004408510401844978
1761379059101542000,3.1845419921875,-0.05774974822998047,0.0073171257972717285,0.005316255614161491
1761379059121595000,3.204594970703125,-0.0485687255859375,-0.00590139627456665,0.0069161057472229
1761379059141646800,3.224646728515625,-0.06280994415283203,-0.0023983120918273926,0.00005153939127922058
1761379059161678800,3.244678955078125,-0.05610466003417969,-0.011935055255889893,0.0019006021320819855
1761379059181751300,3.264751220703125,-0.050362586975097656,-0.0028102993965148926,0.0070831794291734695
1761379059201804800,3.2848046875,-0.04486846923828125,-0.0066762566566467285,0.0017395596951246262
1761379059221857500,3.304857421875,-0.051321983337402344,0.001158595085144043,0.004025816917419434
1761379059241909500,3.324909423828125,-0.04590320587158203,-0.0027938485145568848,-0.001443745568394661
1761379059261961700,3.344961669921875,-0.053050994873046875,0.001120448112487793,0.005124455317854881
1761379059282014200,3.36501416015625,-0.04773998260498047,0.007430732250213623,-0.0011377111077308655
1761379059302066700,3.385066650390625,-0.05516529083251953,-0.0036870241165161133,0.0023694317787885666
1761379059322119400,3.405119384765625,-0.05437755584716797,0.0029829740524291992,-0.0035516340285539627
1761379059342172200,3.425172119140625,-0.05782318115234375,0.004032313823699951,0.0025791842490434647
1761379059362206500,3.44520654296875,-0.04739570617675781,0.01079946756362915,0.004580484703183174
1761379059382276900,3.46527685546875,-0.050154685974121094,0.007462739944458008,0.00024719908833503723
1761379059402328600,3.48532861328125,-0.05357170104980469,0.009838581085205078,-0.0004899259656667709
1761379059422381300,3.50538134765625,-0.052620887756347656,0.009019255638122559,0.0021509435027837753
1761379059442433800,3.525433837890625,-0.0546417236328125,-0.0007185935974121094,0.0049828942865133286
1761379059462486300,3.545486328125,-0.053806304931640625,0.00023305416107177734,0.005522949621081352
1761379059482539300,3.565539306640625,-0.06354713439941406,-0.00902557373046875,0.00003416091203689575
1761379059502592000,3.585592041015625,-0.045914649963378906,-0.006803333759307861,0.002457892522215843
1761379059522644200,3.605644287109375,-0.05237293243408203,-0.00010478496551513672,0.001928769052028656
1761379059542697000,3.625697021484375,-0.04832267761230469,0.0015973448753356934,0.0075793396681547165
1761379059562728000,3.64572802734375,-0.051093101501464844,0.005994081497192383,0.008260015398263931
1761379059582802000,3.665802001953125,-0.04696846008300781,0.005265355110168457,0.003933386877179146
1761379059602835500,3.68583544921875,-0.054556846618652344,0.005396783351898193,0.0017942525446414948
1761379059622907000,3.705906982421875,-0.053989410400390625,0.0007025003433227539,0.006772402673959732
1761379059642959000,3.725958984375,-0.062957763671875,0.009069263935089111,0.00415261834859848
1761379059662989000,3.745989013671875,-0.055953025817871094,0.001658797264099121,0.004984937608242035
1761379059683041300,3.766041259765625,-0.048583030700683594,0.004452168941497803,0.003425911068916321
1761379059703117300,3.786117431640625,-0.04961204528808594,0.004426002502441406,0.0032779518514871597
1761379059723169300,3.806169189453125,-0.04755973815917969,0.003998279571533203,0.007875034585595131
1761379059743222300,3.82622216796875,-0.04675006866455078,0.006874561309814453,0.002382848411798477
1761379059763273700,3.846273681640625,-0.0430755615234375,0.0037049055099487305,0.002074196934700012
1761379059783327200,3.8663271484375,-0.052581787109375,-0.0015233755111694336,0.0020316001027822495
1761379059803380000,3.8863798828125,-0.052420616149902344,-0.005719542503356934,-0.0010651610791683197
1761379059823432200,3.90643212890625,-0.057613372802734375,-0.005520880222320557,0.0013709180057048798
1761379059843462000,3.9264619140625,-0.05411815643310547,-0.0024605393409729004,0.0054774098098278046
1761379059863513900,3.946513916015625,-0.059212684631347656,0.0026862621307373047,0.007717065513134003
1761379059883588900,3.9665888671875,-0.04912090301513672,0.006754517555236816,0.0004707314074039459
1761379059903642000,3.98664208984375,-0.046601295471191406,0.006790459156036377,0.0008780602365732193
1761379059923694800,4.00669482421875,-0.053466796875,-0.00048726797103881836,0.005936110392212868
1761379059943746800,4.026746826171875,-0.056270599365234375,-0.0018061399459838867,0.00290016271173954
1761379059963799300,4.04679931640625,-0.056023597717285156,0.00207597017288208,0.0005605965852737427
1761379059983851300,4.066851318359375,-0.05140495300292969,0.004631996154785156,0.009085748344659805
1761379060003904500,4.086904541015625,-0.05444622039794922,0.003787517547607422,0.006935745477676392
1761379060023956700,4.106956787109375,-0.05061912536621094,-0.0029914379119873047,0.011357761919498444
1761379060043988000,4.126988037109375,-0.053444862365722656,-0.002798914909362793,0.004197863861918449
1761379060064061700,4.147061767578125,-0.05566215515136719,0.0018458366394042969,0.0034043602645397186
1761379060084114200,4.1671142578125,-0.041652679443359375,0.008114397525787354,0.009599214419722557
1761379060104167000,4.1871669921875,-0.051438331604003906,0.009563446044921875,0.004653876647353172
1761379060124219400,4.207219482421875,-0.059418678283691406,0.012921571731567383,0.003034088760614395
1761379060144272600,4.227272705078125,-0.05731678009033203,0.001666724681854248,0.00718468613922596
1761379060164324600,4.24732470703125,-0.05021190643310547,-0.004986286163330078,0.006011767312884331
1761379060184377000,4.267377197265625,-0.056458473205566406,-0.008234500885009766,0.002102011814713478
1761379060204429800,4.287429931640625,-0.04438495635986328,-0.001592874526977539,0.005672698840498924
1761379060224481800,4.307481689453125,-0.04339122772216797,-0.0006465911865234375,0.003765273839235306
1761379060244514300,4.327514404296875,-0.0450286865234375,-0.0003548264503479004,0.002649247646331787
1761379060264611000,4.347611083984375,-0.05188274383544922,0.0023967623710632324,0.012511955574154854
1761379060284639000,4.367638916015625,-0.05342674255371094,0.00390857458114624,0.00398147851228714
1761379060304691500,4.38769140625,-0.055901527404785156,-0.003971874713897705,0.0019091889262199402
1761379060324743400,4.407743408203125,-0.05323982238769531,0.00014215707778930664,0.006342597305774689
1761379060344796700,4.427796630859375,-0.061547279357910156,-0.010890185832977295,0.0026909075677394867
1761379060364850200,4.44785009765625,-0.056507110595703125,0.001072704792022705,-0.0017257053405046463
1761379060384901400,4.4679013671875,-0.05542278289794922,0.008503735065460205,-0.0015631075948476791
1761379060404954400,4.487954345703125,-0.04283332824707031,0.008270800113677979,0.0009780414402484894
1761379060424998700,4.50799853515625,-0.05239105224609375,0.017088711261749268,0.009192127734422684
1761379060445038000,4.5280380859375,-0.05227088928222656,0.006952106952667236,0.0043210480362176895
1761379060465111000,4.548111083984375,-0.05933952331542969,0.002429366111755371,0.00482717901468277
1761379060485163500,4.56816357421875,-0.05982494354248047,0.0009145140647888184,0.003656979650259018
1761379060505216000,4.588216064453125,-0.057181358337402344,-0.0017096400260925293,0.0016566086560487747
1761379060525269200,4.608269287109375,-0.05814170837402344,-0.004188120365142822,0.005125386640429497
1761379060545298000,4.6282978515625,-0.05173683166503906,-0.0031055212020874023,0.0038453564047813416
1761379060565374500,4.64837451171875,-0.048623085021972656,-0.0031131505966186523,0.006685357540845871
1761379060585426200,4.66842626953125,-0.04582786560058594,0.0031537413597106934,0.006053553894162178
1761379060605478100,4.68847802734375,-0.04955005645751953,0.011376798152923584,0.007815849035978317
1761379060625531100,4.70853125,-0.04742145538330078,0.007866322994232178,0.0037434175610542297
1761379060645584600,4.728584716796875,-0.051445960998535156,-0.005702853202819824,0.006545834243297577
1761379060665636400,4.74863623046875,-0.056654930114746094,-0.003136157989501953,0.000944988802075386
1761379060685689300,4.768689453125,-0.06102466583251953,-0.0025821328163146973,0.004515390843153
1761379060705742000,4.7887421875,-0.05859947204589844,-0.000577390193939209,0.0015696510672569275
1761379060725794600,4.808794677734375,-0.05640602111816406,0.0022305846214294434,0.003100726753473282
1761379060745836000,4.8288359375,-0.054129600524902344,0.0056487321853637695,0.010538322851061821
1761379060765899500,4.8488994140625,-0.052181243896484375,0.010568082332611084,0.0025352705270051956
1761379060785952000,4.868951904296875,-0.04767608642578125,-0.0010200142860412598,0.0038565658032894135
1761379060806004200,4.889004150390625,-0.04895591735839844,-0.001192629337310791,0.00823812186717987
1761379060826056200,4.90905615234375,-0.054627418518066406,-0.001312851905822754,0.002729194238781929
1761379060846099200,4.92909912109375,-0.045983314514160156,0.0012739300727844238,0.005252141505479813
1761379060866160600,4.94916064453125,-0.04391670227050781,0.0001308917999267578,0.0022836104035377502
1761379060886215700,4.969215576171875,-0.05221748352050781,0.0004760622978210449,0.008046654984354973
1761379060906267100,4.98926708984375,-0.057338714599609375,-0.0024817585945129395,-0.00020824559032917023
1761379060926318300,5.009318359375,-0.043494224548339844,0.0019128918647766113,0.004285413771867752
1761379060946371600,5.02937158203125,-0.04876899719238281,-0.0025209784507751465,0.00039211660623550415
1761379060966423800,5.049423828125,-0.06430912017822266,0.0026913881301879883,-0.002726929262280464
1761379060986476300,5.069476318359375,-0.05888652801513672,0.00022518634796142578,0.006126474589109421
1761379061006520800,5.089520751953125,-0.04803657531738281,0.005608618259429932,0.003865908831357956
1761379061026571000,5.109571044921875,-0.05977821350097656,0.007462680339813232,0.003770209848880768
1761379061046634000,5.129634033203125,-0.05104637145996094,0.0009952187538146973,0.007305126637220383
1761379061066687500,5.1496875,-0.050640106201171875,0.00768965482711792,0.006094230338931084
1761379061086738200,5.16973828125,-0.05829143524169922,0.006379246711730957,0.010272568091750145
1761379061106791400,5.18979150390625,-0.05706501007080078,0.0015342235565185547,0.009437251836061478
1761379061126845000,5.209844970703125,-0.04316234588623047,0.0017732977867126465,0.007941454648971558
1761379061146896400,5.229896484375,-0.05706501007080078,-0.005631625652313232,0.00014857202768325806
1761379061166949000,5.24994921875,-0.0503997802734375,-0.007099628448486328,0.0014007333666086197
1761379061187002400,5.27000244140625,-0.0492095947265625,-0.006114482879638672,0.004639251157641411
1761379061207053800,5.2900537109375,-0.05320549011230469,0.006582438945770264,0.0036139488220214844
1761379061227106600,5.3101064453125,-0.0568695068359375,0.004946589469909668,0.010818148031830788
1761379061247168800,5.330168701171875,-0.05179119110107422,-0.0059392452239990234,0.006812138482928276
1761379061267212000,5.3502119140625,-0.048069000244140625,-0.001239001750946045,0.0011312533169984818
1761379061287263700,5.370263671875,-0.04661846160888672,0.0025313496589660645,0.005136542022228241
1761379061307316700,5.390316650390625,-0.06814289093017578,0.0047032833099365234,-0.0009946208447217941
1761379061327369000,5.410368896484375,-0.054533958435058594,0.0063478946685791016,0.009356578812003136
1761379061347421400,5.43042138671875,-0.050716400146484375,0.006225466728210449,0.009713871404528618
1761379061367474700,5.450474609375,-0.0433349609375,0.0013428330421447754,0.011305056512355804
1761379061387526100,5.470526123046875,-0.046993255615234375,0.002088010311126709,0.002931995317339897
1761379061407579100,5.4905791015625,-0.04722404479980469,0.0048531293869018555,0.0033457037061452866
1761379061427631600,5.510631591796875,-0.05013275146484375,0.002558112144470215,0.0037937890738248825
1761379061447684000,5.53068408203125,-0.042545318603515625,-0.0010118484497070312,0.000271528959274292
1761379061467736300,5.550736328125,-0.05091285705566406,-0.005603790283203125,0.003541989251971245
1761379061487766000,5.57076611328125,-0.05619049072265625,-0.0086594820022583,-0.00041067972779273987
1761379061507841300,5.59084130859375,-0.043234825134277344,-0.007525265216827393,0.005937913432717323
1761379061527885300,5.61088525390625,-0.048763275146484375,-0.007545888423919678,0.009516747668385506
1761379061547947000,5.630947021484375,-0.048645973205566406,-0.0021772384643554688,0.006787128746509552
1761379061567998700,5.650998779296875,-0.04976844787597656,0.0027584433555603027,0.004420062527060509
1761379061588051500,5.671051513671875,-0.05209922790527344,-0.0006949901580810547,0.007284561172127724
1761379061608104200,5.691104248046875,-0.05229377746582031,0.0022246837615966797,0.011364946141839027
1761379061628157200,5.7111572265625,-0.054108619689941406,-0.0009235143661499023,0.00415375642478466
1761379061648209000,5.731208984375,-0.052353858947753906,-0.0005082488059997559,0.004767518490552902
1761379061668261000,5.75126123046875,-0.05789756774902344,0.0051430463790893555,0.005439635366201401
1761379061688291600,5.77129150390625,-0.054421424865722656,0.0009896159172058105,0.005510672926902771
1761379061708366800,5.791366943359375,-0.055054664611816406,0.004895150661468506,0.005034023895859718
1761379061728419000,5.811419189453125,-0.05269432067871094,0.0037055611610412598,0.0077745262533426285
1761379061748471800,5.831471923828125,-0.05321025848388672,-0.0006216764450073242,0.006132433190941811
1761379061768523300,5.851523193359375,-0.047283172607421875,0.0015429854393005371,0.002993842586874962
1761379061788577500,5.87157763671875,-0.046698570251464844,-0.005573093891143799,0.0022166669368743896
1761379061808629200,5.891629150390625,-0.05620574951171875,-0.0031579136848449707,0.002686740830540657
1761379061828682500,5.9116826171875,-0.05211448669433594,-0.0005861520767211914,0.006966626271605492
1761379061848734700,5.931734619140625,-0.04595184326171875,0.0011397600173950195,0.0037934035062789917
1761379061868786400,5.951786376953125,-0.054442405700683594,-0.004292130470275879,0.0036481600254774094
1761379061888818200,5.971818115234375,-0.051589012145996094,0.006104588508605957,-0.002383355051279068
1761379061908891400,5.991891357421875,-0.053826332092285156,-0.004796385765075684,-0.0019232816994190216
1761379061928943600,6.011943603515625,-0.04679679870605469,0.0004852414131164551,0.003980617970228195
1761379061948997000,6.0319970703125,-0.05730724334716797,-0.011854290962219238,0.007694317027926445
1761379061969049900,6.0520498046875,-0.04466438293457031,0.007168292999267578,-0.0009897369891405106
1761379061989101800,6.072101806640625,-0.05458831787109375,0.007826268672943115,0.004498714581131935
1761379062009154300,6.092154296875,-0.045578956604003906,0.0041648149490356445,0.005847383290529251
1761379062029207000,6.11220703125,-0.045235633850097656,0.005125224590301514,-0.0004895217716693878
1761379062049258800,6.1322587890625,-0.05484199523925781,0.005568563938140869,0.00825347937643528
1761379062069335300,6.152335205078125,-0.057145118713378906,0.004300832748413086,0.0051356349140405655
1761379062089363500,6.172363525390625,-0.052535057067871094,-0.007199406623840332,0.0005421340465545654
1761379062109417200,6.192417236328125,-0.055098533630371094,-0.011315643787384033,-0.0008820891380310059
1761379062129469700,6.2124697265625,-0.04519081115722656,-0.011974334716796875,0.0035642869770526886
1761379062149521200,6.232521240234375,-0.047537803649902344,-0.004628956317901611,-0.0037196222692728043
1761379062169574100,6.25257421875,-0.04719829559326172,0.001980900764465332,0.004741497337818146
1761379062189612300,6.2726123046875,-0.047181129455566406,0.0016146302223205566,0.003968100994825363
1761379062209679000,6.29267919921875,-0.046504974365234375,0.004691898822784424,0.0037477854639291763
1761379062229731600,6.312731689453125,-0.04552745819091797,-0.0039942264556884766,0.0027798227965831757
1761379062249783800,6.33278369140625,-0.05396842956542969,0.004900634288787842,0.00485968217253685
1761379062269836500,6.35283642578125,-0.07171344757080078,-0.008765339851379395,-0.0031305477023124695
1761379062289889000,6.372888916015625,-0.051360130310058594,-0.005392014980316162,-0.0005442537367343903
1761379062309942000,6.39294189453125,-0.051001548767089844,0.004795551300048828,-0.004003165289759636
1761379062329994200,6.412994140625,-0.048885345458984375,0.0031769275665283203,0.001620786264538765
1761379062350046500,6.43304638671875,-0.047119140625,0.0054822564125061035,0.005900803953409195
1761379062370099200,6.45309912109375,-0.05753803253173828,0.01060396432876587,0.0012860819697380066
1761379062390128400,6.47312841796875,-0.05152606964111328,0.004970371723175049,-0.0005948133766651154
1761379062410204400,6.493204345703125,-0.05534934997558594,-0.00033229589462280273,0.006799349561333656
1761379062430255900,6.513255859375,-0.055225372314453125,-0.004402041435241699,0.0012775212526321411
1761379062450308600,6.53330859375,-0.056427955627441406,-0.008681237697601318,0.00144878588616848
1761379062470361900,6.55336181640625,-0.05572223663330078,-0.0048729777336120605,-0.00041565485298633575
1761379062490414000,6.5734140625,-0.051924705505371094,-0.0006470084190368652,0.003803405910730362
1761379062510466600,6.593466552734375,-0.0442962646484375,0.0017855167388916016,0.00447857566177845
1761379062530519600,6.61351953125,-0.0459136962890625,0.007747828960418701,0.0045022983103990555
1761379062550573300,6.6335732421875,-0.058559417724609375,0.000986635684967041,0.003314454108476639
1761379062570624800,6.653624755859375,-0.051967620849609375,0.0021570324897766113,-0.002561379224061966
1761379062590681900,6.673681884765625,-0.053913116455078125,-0.0027605295181274414,-0.0007354095578193665
1761379062610732500,6.693732666015625,-0.05528068542480469,-0.010198712348937988,0.0019617248326539993
1761379062630782200,6.7137822265625,-0.04919910430908203,0.000052034854888916016,0.00746564008295536
1761379062650834200,6.733834228515625,-0.05598735809326172,0.004616796970367432,0.006005698814988136
1761379062670884900,6.753884765625,-0.05366802215576172,0.0038799047470092773,0.004901453852653503
1761379062690939600,6.773939697265625,-0.05122947692871094,0.006086826324462891,-0.0009513963013887405
1761379062710992000,6.793991943359375,-0.04389762878417969,0.0014696717262268066,-0.00007561780512332916
1761379062731044400,6.81404443359375,-0.05332469940185547,-0.0029219388961791992,0.0029698461294174194
1761379062751096600,6.8340966796875,-0.048689842224121094,-0.0006116032600402832,0.0014450233429670334
1761379062771148800,6.854148681640625,-0.05348777770996094,0.001996338367462158,0.000027058646082878113
1761379062791201800,6.874201904296875,-0.0491485595703125,-0.0001920461654663086,0.002528952434659004
1761379062811254500,6.894254638671875,-0.054668426513671875,-0.006753444671630859,-0.004556538537144661
1761379062831307300,6.914307373046875,-0.04804706573486328,-0.005502164363861084,0.005142154172062874
1761379062851358700,6.934358642578125,-0.037448883056640625,-0.006619691848754883,0.008240852504968643
1761379062871379500,6.95437939453125,-0.051502227783203125,0.002910614013671875,0.005877353250980377
1761379062891464000,6.9744638671875,-0.048259735107421875,-0.0057648420333862305,0.0024754516780376434
1761379062911517000,6.994516845703125,-0.05572223663330078,-0.0006723403930664062,-0.0014727525413036346
1761379062931568600,7.014568603515625,-0.04897499084472656,0.0011319518089294434,0.00587061420083046
1761379062951621400,7.034621337890625,-0.05632972717285156,0.0035942792892456055,0.003459746018052101
1761379062971673600,7.054673583984375,-0.05372428894042969,-0.0028815269470214844,0.0077070314437150955
1761379062991725600,7.0747255859375,-0.053707122802734375,0.001640021800994873,0.002444980666041374
1761379063011778600,7.094778564453125,-0.04846382141113281,-0.001255810260772705,0.00480109266936779
1761379063031832300,7.114832275390625,-0.05200767517089844,0.0000021457672119140625,0.007616417482495308
1761379063051884300,7.13488427734375,-0.05212879180908203,-0.0008438825607299805,0.0038781650364398956
1761379063071917300,7.154917236328125,-0.05510997772216797,0.0039299726486206055,0.0037379413843154907
1761379063091989200,7.1749892578125,-0.051959991455078125,0.005118608474731445,-0.0005774945020675659
1761379063112042000,7.1950419921875,-0.053394317626953125,-0.007397770881652832,0.0034333784133195877
1761379063132094200,7.21509423828125,-0.054619789123535156,-0.005456268787384033,-0.0025960057973861694
1761379063152146400,7.235146484375,-0.051642417907714844,-0.013263523578643799,-0.006266556680202484
1761379063172199000,7.255198974609375,-0.05091571807861328,-0.009604930877685547,-0.004232402890920639
1761379063192251100,7.275251220703125,-0.045574188232421875,-0.006448805332183838,0.003851143643260002
1761379063212304600,7.2953046875,-0.052318572998046875,-0.0011125802993774414,0.001967756077647209
1761379063232334300,7.315334228515625,-0.045365333557128906,0.004037618637084961,0.008658392354846
1761379063252385800,7.3353857421875,-0.048590660095214844,0.002961277961730957,0.004342870786786079
1761379063272453000,7.355453125,-0.0451202392578125,0.00043314695358276367,0.0018569845706224442
1761379063292514300,7.375514404296875,-0.056476593017578125,-0.010438740253448486,0.0070919133722782135
1761379063312567300,7.3955673828125,-0.057918548583984375,-0.003913998603820801,-0.0009339433163404465
1761379063332614400,7.415614501953125,-0.05327892303466797,0.003879070281982422,0.005086833611130714
1761379063352649000,7.43564892578125,-0.042446136474609375,0.0057656168937683105,0.00033774226903915405
1761379063372723500,7.455723388671875,-0.04511260986328125,0.0015305876731872559,0.008518265560269356
1761379063392776400,7.4757763671875,-0.049757957458496094,0.005431830883026123,0.006344173103570938
1761379063412829000,7.495828857421875,-0.055441856384277344,0.005508065223693848,0.009019212797284126
1761379063432882000,7.5158818359375,-0.06058979034423828,-0.002248525619506836,0.004041500389575958
1761379063452934100,7.53593408203125,-0.05623054504394531,-0.009311139583587646,-0.006488313898444176
1761379063472986600,7.555986572265625,-0.05449199676513672,-0.012904226779937744,0.003350125625729561
1761379063493038300,7.576038330078125,-0.04812145233154297,-0.00609976053237915,0.0019024629145860672
1761379063513092000,7.596092041015625,-0.04560279846191406,-0.007081031799316406,0.007241770625114441
1761379063533109800,7.61610986328125,-0.036113739013671875,0.0021163225173950195,0.007282642647624016
1761379063553196300,7.6361962890625,-0.04354381561279297,0.00443112850189209,0.0036569591611623764
1761379063573248000,7.656248046875,-0.04770946502685547,0.0010938048362731934,0.0073006413877010345
1761379063593301500,7.676301513671875,-0.05350208282470703,0.002559065818786621,0.006159340962767601
1761379063613355000,7.69635498046875,-0.0525970458984375,-0.002321958541870117,0.007944483309984207
1761379063633407500,7.716407470703125,-0.054490089416503906,-0.0074656009674072266,0.00441022589802742
1761379063653459000,7.736458984375,-0.051360130310058594,-0.0020605921745300293,0.0014753751456737518
1761379063673511000,7.756510986328125,-0.054630279541015625,0.0009614825248718262,0.0035696346312761307
1761379063693563600,7.776563720703125,-0.061936378479003906,-0.0030408501625061035,0.010314349085092545
1761379063713596200,7.79659619140625,-0.05313396453857422,0.004213273525238037,0.004716182127594948
1761379063733668900,7.8166689453125,-0.047636985778808594,-0.0008764863014221191,0.011002006009221077
1761379063753722000,7.83672216796875,-0.057743072509765625,-0.002459228038787842,0.0008096061646938324
1761379063773774000,7.856774169921875,-0.052669525146484375,-0.0054250359535217285,0.0065475814044475555
1761379063793827600,7.87682763671875,-0.05075359344482422,-0.004301488399505615,0.0025291498750448227
1761379063813879800,7.8968798828125,-0.05393695831298828,-0.006990373134613037,0.00652628019452095
1761379063833934300,7.916934326171875,-0.05694866180419922,-0.0020194053649902344,0.012337848544120789
1761379063853984000,7.93698388671875,-0.047211647033691406,-0.0032271146774291992,0.004840875044465065
1761379063874037200,7.957037353515625,-0.11095523834228516,-0.007061362266540527,0.028153009712696075
1761379063894089200,7.977089111328125,0.028837203979492188,0.002463400363922119,-0.022520309314131737
1761379063914141200,7.99714111328125,-0.038826942443847656,-0.0029503703117370605,0.001763632521033287
1761379063934194000,8.01719384765625,-0.08021259307861328,-0.006993234157562256,0.012219119817018509
1761379063954246100,8.03724609375,-0.042819976806640625,0.007651925086975098,0.005200257524847984
1761379063974299100,8.057299072265625,-0.030271530151367188,0.0003884434700012207,-0.006964631378650665
1761379063994351600,8.0773515625,-0.036215782165527344,-0.008011221885681152,-0.0016236547380685806
1761379064014404000,8.097404052734374,-0.11683273315429688,-0.0033818483352661133,0.022791681811213493
