time,seconds_elapsed,z,y,x
1761379872385457000,0.185456787109375,-0.07264900207519531,-0.0069544315338134766,0.0001752059906721115
1761379872405493000,0.205492919921875,-0.26405811309814453,0.19976723194122314,0.26898136734962463
1761379872425555500,0.225555419921875,-0.5294151306152344,0.2552831172943115,0.64534592628479
1761379872445587700,0.245587646484375,-0.46255970001220703,0.26398777961730957,0.3738079071044922
1761379872465660200,0.26566015625,-0.13704490661621094,0.11073899269104004,0.24394214153289795
1761379872485711400,0.28571142578125,0.16306114196777344,-0.012702524662017822,0.296913206577301
1761379872505762800,0.3057626953125,-0.042510032653808594,-0.05339759588241577,0.3281908631324768
1761379872525814300,0.325814208984375,-0.321044921875,-0.08583921194076538,0.08920611441135406
1761379872545844500,0.345844482421875,-0.26882076263427734,-0.20570290088653564,-0.017184406518936157
1761379872565898000,0.36589794921875,-0.02852916717529297,-0.2713194489479065,0.008272826671600342
1761379872585969000,0.385968994140625,-0.07269477844238281,-0.2690121531486511,0.005825400352478027
1761379872606021000,0.406021240234375,-0.09458637237548828,-0.17733275890350342,-0.23591861128807068
1761379872626071600,0.426071533203125,-0.092864990234375,-0.14256244897842407,-0.31149306893348694
1761379872646123300,0.446123291015625,0.1067495346069336,-0.03888148069381714,-0.0812576413154602
1761379872666175000,0.466175048828125,-0.060997962951660156,-0.027195870876312256,0.24566781520843506
1761379872686228200,0.486228271484375,-0.33205509185791016,0.03448241949081421,0.3036304712295532
1761379872706269700,0.506269775390625,-0.3872871398925781,0.01069861650466919,0.15042829513549805
1761379872726329000,0.5263291015625,-0.167633056640625,-0.03629368543624878,0.021970272064208984
1761379872746338600,0.546338623046875,0.13191890716552734,-0.029857337474822998,0.09157156944274902
1761379872766432000,0.566431884765625,0.30326366424560547,-0.057678401470184326,0.12377674877643585
1761379872786487600,0.586487548828125,0.47606563568115234,0.021824389696121216,-0.13279560208320618
1761379872806512000,0.60651220703125,0.3986244201660156,0.09335905313491821,-0.1890941858291626
1761379872826586400,0.62658642578125,0.09207534790039062,0.10574966669082642,0.003775656223297119
1761379872846637800,0.646637939453125,-0.11548233032226562,0.1222124993801117,0.02557985484600067
1761379872866689300,0.666689208984375,-0.03790473937988281,0.026269376277923584,0.18755581974983215
1761379872886740700,0.68674072265625,0.12735271453857422,-0.11163130402565002,0.29441386461257935
1761379872906771000,0.70677099609375,-0.1175985336303711,-0.12012961506843567,0.1784115582704544
1761379872926858800,0.726858642578125,-0.3281269073486328,-0.08763831853866577,0.0007856786251068115
1761379872946887000,0.746886962890625,-0.3103446960449219,-0.1350976973772049,-0.18023258447647095
1761379872966946000,0.766946044921875,-0.30626869201660156,-0.2730832099914551,-0.2751619219779968
1761379872986977800,0.786977783203125,-0.36414623260498047,-0.276668906211853,-0.4428005814552307
1761379873007029200,0.807029296875,-0.2007465362548828,-0.23236778378486633,-0.3507286310195923
1761379873027080400,0.82708056640625,0.027475357055664062,-0.24057234823703766,-0.25092142820358276
1761379873047121000,0.847120849609375,0.08937454223632812,-0.18709638714790344,-0.3504924774169922
1761379873067195000,0.86719482421875,-0.03187370300292969,-0.09623613953590393,-0.2761717736721039
1761379873087255600,0.887255615234375,-0.1747303009033203,-0.04830025136470795,-0.06278930604457855
1761379873107286000,0.9072861328125,-0.052959442138671875,-0.07894262671470642,0.00548805296421051
1761379873127358500,0.9273583984375,-0.046210289001464844,-0.08596484363079071,-0.14676178991794586
1761379873147410400,0.947410400390625,-0.2462625503540039,-0.009083300828933716,-0.2250196486711502
1761379873167464700,0.967464599609375,-0.09554195404052734,0.05180618166923523,-0.058697253465652466
1761379873187491800,0.987491943359375,0.1063070297241211,0.02978953719139099,0.2265416979789734
1761379873207566600,1.007566650390625,0.35982418060302734,0.029945433139801025,0.17289292812347412
1761379873227615500,1.027615478515625,0.47408008575439453,-0.03248399496078491,-0.031327664852142334
1761379873247666700,1.047666748046875,0.1866283416748047,-0.079006627202034,-0.05331948399543762
1761379873267718400,1.067718505859375,-0.21446609497070312,-0.06628645956516266,0.04417383670806885
1761379873287770600,1.0877705078125,-0.28616905212402344,-0.04748302325606346,0.05174285173416138
1761379873307801900,1.1078017578125,-0.06096076965332031,-0.05976201221346855,-0.010663837194442749
1761379873327852500,1.1278525390625,0.019922256469726562,-0.004102446138858795,-0.06779810786247253
1761379873347893200,1.147893310546875,-0.08177661895751953,0.05403318256139755,0.04020962119102478
1761379873367976000,1.167975830078125,-0.27024269104003906,0.04365144670009613,0.086620032787323
1761379873388027100,1.188027099609375,-0.25781917572021484,-0.00394095852971077,0.0038676857948303223
1761379873408060700,1.208060791015625,-0.1682109832763672,-0.060507744550704956,-0.1872061789035797
1761379873428130600,1.228130615234375,-0.2163858413696289,-0.0705130398273468,-0.268611341714859
1761379873448183600,1.24818359375,-0.34665775299072266,-0.04226245731115341,-0.27760598063468933
1761379873468235000,1.268235107421875,-0.1459026336669922,-0.1026482880115509,-0.2687530517578125
1761379873488285200,1.28828515625,0.09609699249267578,-0.14086289703845978,-0.27732986211776733
1761379873508317200,1.308317138671875,0.1462726593017578,-0.15065062046051025,-0.09485900402069092
1761379873528387600,1.3283876953125,-0.06854438781738281,-0.14712584018707275,0.26693224906921387
1761379873548439600,1.348439453125,-0.06374931335449219,-0.22045522928237915,0.40208742022514343
1761379873568491800,1.36849169921875,0.18498611450195312,-0.31030622124671936,0.14366894960403442
1761379873588555000,1.388554931640625,0.3523273468017578,-0.25942397117614746,-0.23834329843521118
1761379873608552000,1.408552001953125,0.2722139358520508,-0.1320503056049347,-0.11746761947870255
1761379873628644900,1.428644775390625,-0.13694477081298828,-0.06562003493309021,0.22286707162857056
1761379873648695800,1.44869580078125,-0.34652233123779297,-0.09780222177505493,0.252455472946167
1761379873668749600,1.46874951171875,-0.25275230407714844,-0.11816760897636414,-0.08814844489097595
1761379873688801300,1.48880126953125,-0.12599563598632812,-0.09204220771789551,-0.427554726600647
1761379873708830000,1.508829833984375,-0.2600440979003906,-0.042466700077056885,-0.35045167803764343
1761379873728903400,1.5289033203125,-0.4566354751586914,-0.02845531702041626,0.058232322335243225
1761379873748956000,1.548955810546875,-0.39438438415527344,-0.03854280710220337,0.25052720308303833
1761379873769006800,1.5690068359375,-0.2111968994140625,-0.026777923107147217,-0.05190470814704895
1761379873789058300,1.589058349609375,0.01919269561767578,-0.014087498188018799,-0.22980523109436035
1761379873809087000,1.6090869140625,0.16842174530029297,0.02772808074951172,-0.2698238790035248
1761379873829165600,1.62916552734375,0.26145458221435547,0.009021520614624023,-0.05437731742858887
1761379873849215700,1.6492158203125,0.4070281982421875,0.032463014125823975,0.048641979694366455
1761379873869264600,1.6692646484375,0.3161754608154297,0.06654167175292969,0.07186028361320496
1761379873889315600,1.689315673828125,0.12731075286865234,0.04393768310546875,0.09812706708908081
1761379873909366300,1.7093662109375,0.2744436264038086,0.045633554458618164,-0.10838571190834045
1761379873929417700,1.729417724609375,0.3909492492675781,-0.04287654161453247,-0.12676358222961426
1761379873949477600,1.7494775390625,0.38361644744873047,-0.06506133079528809,-0.061520785093307495
1761379873969518800,1.769518798828125,0.08373165130615234,-0.14657270908355713,0.09547913074493408
1761379873989559300,1.789559326171875,-0.07058334350585938,-0.21312963962554932,-0.04685097932815552
1761379874009602300,1.809602294921875,0.09346866607666016,-0.21865224838256836,-0.2416553795337677
1761379874029676300,1.82967626953125,0.34494972229003906,-0.21901988983154297,-0.21404549479484558
1761379874049726500,1.8497265625,0.137298583984375,-0.16868996620178223,0.0057031214237213135
1761379874069779200,1.869779296875,-0.27964305877685547,-0.07816004753112793,0.16952405869960785
1761379874089808000,1.889807861328125,-0.4804553985595703,-0.010717034339904785,0.25293779373168945
1761379874109882000,1.909882080078125,-0.5206422805786133,0.03808969259262085,0.20223861932754517
1761379874129933000,1.92993310546875,-0.3076448440551758,0.018216490745544434,0.1295624077320099
1761379874149985000,1.949985107421875,-0.17982101440429688,-0.007511496543884277,0.19013378024101257
1761379874170039600,1.97003955078125,-0.22222423553466797,-0.040062546730041504,0.2464594691991806
1761379874190088000,1.990087890625,-0.209075927734375,-0.12004154920578003,0.1490328162908554
1761379874210164700,2.010164794921875,-0.04155540466308594,-0.1420382261276245,-0.15340395271778107
1761379874230192400,2.0301923828125,0.06729412078857422,-0.1100616455078125,-0.3223533630371094
1761379874250244600,2.05024462890625,0.023833274841308594,-0.10357725620269775,-0.19442324340343475
1761379874270292500,2.07029248046875,-0.09456062316894531,-0.0994463562965393,-0.07212172448635101
1761379874290345500,2.090345458984375,-0.1243896484375,-0.04446297883987427,-0.08927905559539795
1761379874310397000,2.11039697265625,-0.02808856964111328,-0.031236588954925537,-0.16509637236595154
1761379874330452000,2.130451904296875,0.11419010162353516,-0.04139387607574463,-0.1156703531742096
1761379874350496000,2.15049609375,0.10691547393798828,-0.09620726108551025,-0.07658463716506958
1761379874370533000,2.170533203125,0.577855110168457,-0.17353779077529907,-0.20681138336658478
1761379874390580000,2.190580078125,1.3443107604980469,-0.3105126619338989,-0.27113664150238037
1761379874410653000,2.21065283203125,1.2388477325439453,-0.3426949977874756,-0.24144545197486877
1761379874430705200,2.230705078125,0.4103565216064453,-0.3214349150657654,-0.11665907502174377
1761379874450756600,2.250756591796875,-0.390655517578125,-0.14902204275131226,-0.13099512457847595
1761379874470785500,2.27078564453125,-0.7090244293212891,0.013563454151153564,-0.12628179788589478
1761379874490859500,2.290859619140625,-0.8402423858642578,0.09624803066253662,-0.0673179030418396
1761379874510910200,2.31091015625,-0.8995208740234375,0.13593831658363342,0.006839308887720108
1761379874530962700,2.330962646484375,-0.7148866653442383,0.11751411855220795,0.042646244168281555
1761379874551014700,2.3510146484375,-0.3165149688720703,-0.03985999524593353,0.05916035175323486
1761379874571045400,2.37104541015625,-0.12870121002197266,-0.09828469902276993,-0.046154700219631195
1761379874591117600,2.39111767578125,-0.1319570541381836,-0.0988968089222908,-0.12314286828041077
1761379874611140000,2.41114013671875,-0.1602792739868164,-0.06194235756993294,-0.02542940527200699
1761379874631222500,2.431222412109375,-0.1960468292236328,-0.017971806228160858,0.11914461106061935
1761379874651271200,2.451271240234375,-0.13384151458740234,0.0018022432923316956,0.10627813637256622
1761379874671303000,2.471302978515625,-0.034447669982910156,-0.01996150240302086,0.05622053146362305
1761379874691377400,2.49137744140625,-0.10532093048095703,0.013659942895174026,0.03216175734996796
1761379874711424800,2.5114248046875,-0.15990352630615234,0.022667482495307922,0.10667834430932999
1761379874731481300,2.5314814453125,-0.0835409164428711,-0.03589393198490143,0.06898251920938492
1761379874751505700,2.551505615234375,-0.02735424041748047,-0.10141574591398239,-0.019606616348028183
1761379874771582000,2.57158203125,-0.0438079833984375,-0.1565970629453659,-0.07703480869531631
1761379874791634200,2.59163427734375,0.027225494384765625,-0.1805671602487564,-0.07656296342611313
1761379874811683300,2.611683349609375,0.11660003662109375,-0.21529215574264526,-0.08671338856220245
1761379874831733000,2.63173291015625,-0.03849506378173828,-0.18484178185462952,-0.16592498123645782
1761379874851763700,2.651763671875,-0.14897823333740234,-0.11699683219194412,-0.12398244440555573
1761379874871837000,2.6718369140625,-0.031363487243652344,-0.10903225839138031,0.01827467605471611
1761379874891889000,2.691888916015625,0.101806640625,-0.02272738516330719,0.008123211562633514
1761379874911939600,2.711939697265625,0.15661907196044922,-0.032626017928123474,-0.027694594115018845
1761379874931991300,2.7319912109375,0.17608642578125,-0.06720104813575745,0.028781592845916748
1761379874952042500,2.75204248046875,0.09513282775878906,-0.11546385288238525,0.054014578461647034
1761379874972094700,2.7720947265625,0.06896781921386719,-0.10157979279756546,-0.051027752459049225
1761379874992146000,2.79214599609375,-0.04834461212158203,-0.08385011553764343,-0.15862461924552917
1761379875012197600,2.81219775390625,-0.20815467834472656,-0.019904404878616333,-0.12217871844768524
1761379875032251000,2.8322509765625,-0.2569713592529297,-0.02833867073059082,0.022353462874889374
1761379875052278300,2.8522783203125,-0.28539276123046875,-0.028192691504955292,0.05284099280834198
1761379875072351700,2.872351806640625,-0.29438209533691406,-0.03812139108777046,-0.029562510550022125
1761379875092402700,2.892402587890625,-0.0892791748046875,-0.06684578955173492,-0.04479018598794937
1761379875112459500,2.91245947265625,0.23831844329833984,-0.1217656135559082,-0.05960146710276604
1761379875132496400,2.932496337890625,0.4416923522949219,-0.10830160975456238,-0.03178798407316208
1761379875152535800,2.952535888671875,0.23494815826416016,-0.03999150171875954,-0.010929904878139496
1761379875172609300,2.972609375,-0.13985729217529297,-0.07260391861200333,0.06844353675842285
1761379875192660200,2.99266015625,-0.15431499481201172,-0.030236883088946342,-0.039750128984451294
1761379875212701000,3.012700927734375,-0.14560604095458984,-0.04861446097493172,-0.28408706188201904
1761379875232743700,3.03274365234375,-0.20703887939453125,-0.04714348167181015,-0.2441103160381317
1761379875252816000,3.05281591796875,-0.09540367126464844,-0.10838070511817932,-0.14639432728290558
1761379875272866600,3.072866455078125,0.1086883544921875,-0.11236616969108582,-0.08902999758720398
1761379875292917200,3.092917236328125,0.15032100677490234,-0.056255362927913666,0.015845343470573425
1761379875312969000,3.112968994140625,-0.11869335174560547,0.007229432463645935,0.12541325390338898
1761379875333020200,3.133020263671875,-0.07634735107421875,0.043736621737480164,0.09354299306869507
1761379875353049900,3.1530498046875,-0.04224967956542969,-0.02293206751346588,0.11384052038192749
1761379875373123800,3.173123779296875,-0.2618579864501953,-0.004565149545669556,0.13384723663330078
1761379875393177600,3.193177490234375,-0.3107576370239258,-0.017936930060386658,0.0773724913597107
1761379875413226800,3.213226806640625,-0.14385509490966797,-0.02551741898059845,-0.05985388159751892
1761379875433279000,3.233279052734375,-0.07444477081298828,-0.04298649728298187,-0.11889220029115677
1761379875453330200,3.253330078125,-0.16177654266357422,-0.07468494772911072,-0.017313554883003235
1761379875473381400,3.27338134765625,-0.3599872589111328,-0.0293591171503067,0.04343542456626892
1761379875493432000,3.29343212890625,-0.48673534393310547,-0.04389195889234543,0.04691304266452789
1761379875513485000,3.313485107421875,-0.4674959182739258,-0.07142814993858337,-0.011329323053359985
1761379875533535700,3.33353564453125,-0.059920310974121094,-0.05305857211351395,-0.0750281885266304
1761379875553587500,3.35358740234375,0.47606563568115234,-0.028125926852226257,-0.037297479808330536
1761379875573638700,3.373638671875,0.4082527160644531,-0.07510790228843689,0.0967257171869278
1761379875593689900,3.39368994140625,0.03630352020263672,0.04449399560689926,0.019133932888507843
1761379875613721000,3.41372119140625,-0.16461563110351562,0.007430899888277054,0.004746153950691223
1761379875633782000,3.433781982421875,-0.1740121841430664,-0.07874126732349396,-0.0480387806892395
1761379875653844700,3.4538447265625,-0.1836233139038086,-0.09211277961730957,-0.18969465792179108
1761379875673873400,3.473873291015625,-0.1836719512939453,-0.11634400486946106,-0.17845556139945984
1761379875693947600,3.49394775390625,0.08164596557617188,-0.16820773482322693,-0.13567869365215302
1761379875713998600,3.51399853515625,0.41654300689697266,-0.2055281549692154,-0.16523373126983643
1761379875734032400,3.534032470703125,0.4129037857055664,-0.15540708601474762,-0.12892647087574005
1761379875754102000,3.55410205078125,0.07953166961669922,-0.030417874455451965,-0.02573206275701523
1761379875774153200,3.5741533203125,-0.24062156677246094,0.03470058739185333,0.09099897742271423
1761379875794205200,3.594205078125,-0.28599071502685547,0.03716917335987091,0.09390076994895935
1761379875814221800,3.614221923828125,-0.15536975860595703,0.01394045352935791,-0.03663846105337143
1761379875834295600,3.634295654296875,-0.03933238983154297,-0.024209260940551758,-0.054077744483947754
1761379875854359600,3.654359619140625,-0.00823211669921875,-0.04205158352851868,0.06466250121593475
1761379875874411800,3.674411865234375,-0.1618633270263672,-0.06901173293590546,0.03778138756752014
1761379875894463500,3.69446337890625,-0.1811962127685547,-0.0864175409078598,-0.1477920562028885
1761379875914514200,3.71451416015625,0.15256118774414062,-0.1321612149477005,-0.19451101124286652
1761379875934542300,3.734542236328125,0.2008991241455078,-0.12766766548156738,-0.12691979110240936
1761379875954616800,3.754616943359375,-0.013001441955566406,-0.05653700232505798,-0.051296837627887726
1761379875974668000,3.77466796875,-0.1552419662475586,-0.03805699944496155,-0.06168287247419357
1761379875994696700,3.79469677734375,0.007586479187011719,-0.07033848762512207,-0.0973731204867363
1761379876014771000,3.81477099609375,0.13547325134277344,-0.09018588066101074,-0.13098758459091187
1761379876034801400,3.834801513671875,-0.034206390380859375,-0.06030277907848358,-0.055137552320957184
1761379876054873600,3.85487353515625,-0.21123123168945312,0.0001547485589981079,-0.061933595687150955
1761379876074925800,3.87492578125,-0.11434650421142578,0.02904386818408966,-0.11924298107624054
1761379876094977000,3.89497705078125,0.05551338195800781,-0.00830298662185669,-0.17273862659931183
1761379876115028000,3.915028076171875,0.15328407287597656,-0.11076390743255615,-0.1584731936454773
1761379876135079400,3.935079345703125,0.20334911346435547,-0.1784701645374298,-0.08225227892398834
1761379876155131400,3.95513134765625,0.18005943298339844,-0.15060901641845703,-0.017082810401916504
1761379876175160000,3.97516015625,0.022275924682617188,-0.15079349279403687,0.033874332904815674
1761379876195234600,3.995234619140625,-0.1681814193725586,-0.07975457608699799,-0.013670682907104492
1761379876215285500,4.015285400390625,-0.38838863372802734,-0.019810542464256287,0.011171013116836548
1761379876235314400,4.035314453125,-0.3776054382324219,-0.018069088459014893,0.09613201022148132
1761379876255365000,4.055365234375,-0.09181690216064453,-0.055962935090065,0.14615339040756226
1761379876275417300,4.075417236328125,-0.08816242218017578,-0.04884129762649536,0.09776318073272705
1761379876295453200,4.095453125,-0.2671031951904297,-0.054225727915763855,0.04561305046081543
1761379876315510300,4.11551025390625,-0.24373912811279297,-0.09692732989788055,-0.030359536409378052
1761379876335579600,4.13557958984375,-0.07131671905517578,-0.15979324281215668,-0.03076636791229248
1761379876355646500,4.155646484375,0.049742698669433594,-0.14731253683567047,-0.022463589906692505
1761379876375665000,4.175664794921875,-0.07985115051269531,-0.11866140365600586,-0.008575201034545898
1761379876395749000,4.1957490234375,-0.07821178436279297,-0.07532982528209686,-0.01392015814781189
1761379876415800000,4.215800048828125,0.14618301391601562,-0.0967152863740921,-0.007985681295394897
1761379876435828700,4.235828857421875,0.2990713119506836,-0.14680536091327667,-0.030286312103271484
1761379876455903200,4.2559033203125,0.08823871612548828,-0.11216339468955994,-0.16534951329231262
1761379876475954700,4.27595458984375,-0.21581268310546875,-0.055956512689590454,-0.0987851619720459
1761379876496030000,4.296030029296875,-0.07277774810791016,-0.07763704657554626,-0.068565234541893
1761379876516057600,4.3160576171875,0.08320140838623047,-0.06349855661392212,-0.10971824824810028
1761379876536108500,4.336108642578125,0.14598560333251953,-0.05617430806159973,-0.15266898274421692
1761379876556159700,4.35615966796875,0.32737064361572266,-0.1104976236820221,-0.03533235192298889
1761379876576211700,4.376211669921875,0.15552902221679688,-0.0862313061952591,-0.07746101915836334
1761379876596263200,4.39626318359375,-0.2650289535522461,-0.0688895434141159,-0.12897512316703796
1761379876616314600,4.416314697265625,-0.47241687774658203,-0.034092843532562256,-0.1363818645477295
1761379876636365300,4.436365234375,-0.35431575775146484,-0.03119686245918274,-0.04901017248630524
1761379876656416800,4.456416748046875,-0.044821739196777344,-0.07760807871818542,0.09234729409217834
1761379876676450300,4.4764501953125,-0.057521820068359375,-0.07736007869243622,0.07845379412174225
1761379876696521000,4.49652099609375,-0.3215188980102539,-0.07054999470710754,-0.007719099521636963
1761379876716572200,4.516572265625,-0.21875476837158203,-0.14144793152809143,-0.05689980089664459
1761379876736623900,4.536623779296875,0.11333465576171875,-0.24663496017456055,-0.06461002677679062
1761379876756660000,4.556659912109375,0.06534194946289062,-0.23236072063446045,-0.05687643587589264
1761379876776725800,4.576725830078125,-0.1880359649658203,-0.11777792870998383,-0.01669970154762268
1761379876796794600,4.596794677734375,0.13305187225341797,-0.011789649724960327,0.10693089663982391
1761379876816802800,4.616802734375,0.42951488494873047,0.004016131162643433,0.0806812196969986
1761379876836881000,4.636880859375,0.4139127731323242,-0.044950634241104126,0.006251245737075806
1761379876856932400,4.656932373046875,-0.00067138671875,-0.029354959726333618,0.07926300168037415
1761379876876983000,4.676983154296875,-0.41519927978515625,-0.019851505756378174,0.20908814668655396
1761379876897035000,4.697034912109375,-0.3974447250366211,0.04586191475391388,0.10431532561779022
1761379876917086700,4.717086669921875,-0.20577430725097656,0.036734938621520996,0.004513934254646301
1761379876937138400,4.737138427734375,0.11564254760742188,-0.005870640277862549,-0.034316420555114746
1761379876957190400,4.7571904296875,0.15649032592773438,-0.08915013074874878,-0.11453604698181152
1761379876977241300,4.777241455078125,-0.11722278594970703,-0.06739744544029236,-0.16373664140701294
1761379876997269800,4.797269775390625,-0.43906593322753906,-0.04894524812698364,-0.046563759446144104
1761379877017344300,4.81734423828125,-0.7022933959960938,-0.013370305299758911,0.07883462309837341
1761379877037396000,4.83739599609375,-0.6245021820068359,-0.000018596649169921875,0.16630792617797852
1761379877057447700,4.85744775390625,-0.1604623794555664,-0.024259567260742188,0.008855342864990234
1761379877077498000,4.877498046875,0.4699869155883789,-0.09017854928970337,-0.13577289879322052
1761379877097549300,4.89754931640625,0.5470676422119141,-0.11605530977249146,-0.19223465025424957
1761379877117601300,4.917601318359375,0.08890819549560547,-0.08940193057060242,-0.13323932886123657
1761379877137636900,4.937636962890625,-0.26455211639404297,-0.07457813620567322,-0.13493436574935913
1761379877157681700,4.957681640625,-0.22386741638183594,-0.07243019342422485,-0.1464160680770874
1761379877177755600,4.977755615234375,0.047242164611816406,-0.07459649443626404,-0.06454558670520782
1761379877197798100,4.997798095703125,0.20093059539794922,-0.03453141450881958,0.009599059820175171
1761379877217858600,5.017858642578125,0.1737813949584961,-0.047362178564071655,-0.03306730091571808
1761379877237909200,5.0379091796875,0.20320892333984375,-0.08727583289146423,-0.14468121528625488
1761379877257961000,5.0579609375,0.07605934143066406,-0.09050700068473816,-0.1626506745815277
1761379877278013000,5.078012939453125,-0.14694786071777344,-0.041672319173812866,-0.06289942562580109
1761379877298064000,5.09806396484375,0.027068138122558594,-0.010413676500320435,0.08438193798065186
1761379877318115800,5.11811572265625,0.1473846435546875,-0.06386300921440125,0.14310216903686523
1761379877338167300,5.138167236328125,-0.09817886352539062,-0.05445748567581177,0.025869622826576233
1761379877358218200,5.15821826171875,-0.39277076721191406,-0.005311846733093262,-0.01087816059589386
1761379877378247200,5.1782470703125,-0.4290885925292969,-0.006730794906616211,0.09637044370174408
1761379877398322200,5.198322265625,-0.1952657699584961,-0.04991072416305542,0.11421920359134674
1761379877418342100,5.218342041015625,0.14458465576171875,-0.07782617211341858,-0.01927845925092697
1761379877438424800,5.2384248046875,0.018426895141601562,-0.1223554015159607,-0.03286033123731613
1761379877458476000,5.25847607421875,-0.0508270263671875,-0.09605047106742859,-0.012892268598079681
1761379877478505200,5.278505126953125,-0.07660675048828125,-0.10572317242622375,-0.020667903125286102
1761379877498543900,5.2985439453125,0.000247955322265625,-0.0605829656124115,-0.16156524419784546
1761379877518587000,5.3185869140625,0.2350320816040039,-0.04009568691253662,-0.14536616206169128
1761379877538681600,5.338681640625,0.1204833984375,-0.03452706336975098,-0.006952296942472458
1761379877558733000,5.358733154296875,-0.23290157318115234,-0.004934847354888916,0.014392103999853134
1761379877578784500,5.378784423828125,-0.29224395751953125,-0.005299627780914307,-0.06987372040748596
1761379877598813200,5.398813232421875,0.3357210159301758,-0.0813702940940857,-0.002830289304256439
1761379877618887400,5.418887451171875,0.5314655303955078,-0.10367584228515625,0.0003683455288410187
1761379877638939400,5.438939453125,0.21375274658203125,-0.07376086711883545,0.029023870825767517
1761379877658990600,5.458990478515625,-0.19078731536865234,-0.03451681137084961,-0.038188643753528595
1761379877679021800,5.479021728515625,-0.39803218841552734,-0.04927295446395874,-0.060999270528554916
1761379877699075600,5.49907568359375,-0.5111827850341797,-0.05461660027503967,-0.17218591272830963
1761379877719144200,5.519144287109375,-0.537989616394043,-0.058894455432891846,-0.22743409872055054
1761379877739196000,5.53919580078125,-0.09957027435302734,-0.08181813359260559,-0.11856120824813843
1761379877759248000,5.559247802734375,0.15797138214111328,-0.09499236941337585,-0.016486860811710358
1761379877779298600,5.579298583984375,0.19783782958984375,-0.07651671767234802,0.09099716693162918
1761379877799350300,5.599350341796875,-0.11325836181640625,-0.04391029477119446,0.059932686388492584
1761379877819402500,5.619402587890625,-0.23040390014648438,-0.06755387783050537,-0.17409777641296387
1761379877839431000,5.639430908203125,0.18004894256591797,-0.1050616204738617,-0.25792640447616577
1761379877859481000,5.659481201171875,0.4309091567993164,-0.14162203669548035,0.011270202696323395
1761379877879579100,5.6795791015625,0.3563871383666992,-0.14446347951889038,0.1204017698764801
1761379877899585300,5.699585205078125,0.2755317687988281,-0.0712786614894867,0.08106423914432526
1761379877919659500,5.719659423828125,0.11073970794677734,-0.06734845042228699,0.07043011486530304
1761379877939711700,5.739711669921875,-0.5351133346557617,-0.04123583436012268,-0.061660364270210266
1761379877959762200,5.75976220703125,-0.8388452529907227,-0.019406571984291077,-0.2631661891937256
1761379877979814000,5.77981396484375,-0.46790313720703125,-0.06147044897079468,-0.27000030875205994
1761379877999866000,5.7998662109375,-0.12548828125,-0.10336868464946747,-0.11164523661136627
1761379878019890000,5.819889892578125,-0.17915725708007812,-0.05047914385795593,0.13273093104362488
1761379878039949000,5.839948974609375,-0.004405021667480469,-0.03927719593048096,0.36852484941482544
1761379878060019200,5.860019287109375,-0.08729839324951172,0.005867093801498413,0.37441393733024597
1761379878080070400,5.8800703125,-0.2047443389892578,0.07634073495864868,0.13802199065685272
1761379878100123600,5.90012353515625,-0.29023170471191406,0.04938146471977234,-0.011187385767698288
1761379878120174300,5.92017431640625,-0.014477729797363281,-0.023427307605743408,0.07960931211709976
1761379878140225300,5.940225341796875,0.3210115432739258,-0.04258519411087036,0.005685843527317047
1761379878160276500,5.9602763671875,0.2164936065673828,-0.06965824961662292,-0.025167416781187057
1761379878180328700,5.98032861328125,-0.06270980834960938,0.035115063190460205,-0.07337795197963715
1761379878200379600,6.000379638671875,-0.4232034683227539,-0.015998274087905884,-0.030293606221675873
1761379878220431600,6.020431640625,-0.2600994110107422,-0.08714810013771057,-0.1952057182788849
1761379878240486100,6.040486083984375,0.13361740112304688,-0.190688818693161,-0.27268171310424805
1761379878260533800,6.06053369140625,0.24414634704589844,-0.1591649353504181,-0.25026288628578186
1761379878280572400,6.080572509765625,0.10247421264648438,-0.14035239815711975,-0.08677127957344055
1761379878300638000,6.100637939453125,0.006969451904296875,-0.08550170063972473,-0.038417693227529526
1761379878320667600,6.120667724609375,0.016770362854003906,-0.048507124185562134,0.03849846124649048
1761379878340740000,6.140739990234375,0.44820690155029297,-0.08939805626869202,0.037179406732320786
1761379878360751400,6.16075146484375,0.7935085296630859,-0.09102913737297058,0.0797060951590538
1761379878380842500,6.180842529296875,0.41643714904785156,-0.044081270694732666,0.0890330970287323
1761379878400894000,6.20089404296875,-0.2683238983154297,-0.012634634971618652,0.06379208713769913
1761379878420946000,6.22094580078125,-0.5569934844970703,0.046056799590587616,-0.0618281215429306
1761379878440996900,6.240996826171875,-0.6203632354736328,0.012880556285381317,0.0011561308056116104
1761379878461048600,6.261048583984375,-0.672088623046875,-0.04314305633306503,-0.007958732545375824
1761379878481100500,6.2811005859375,-0.4149618148803711,-0.10071201622486115,-0.14123593270778656
1761379878501152300,6.30115234375,-0.04232215881347656,-0.13826626539230347,-0.08577977120876312
1761379878521162000,6.321161865234375,0.14072132110595703,-0.1761939823627472,0.03374052047729492
1761379878541210400,6.34121044921875,-0.04615211486816406,-0.11625394970178604,-0.04958368092775345
1761379878561282800,6.36128271484375,-0.17740249633789062,-0.06226392090320587,-0.03700786828994751
1761379878581362000,6.38136181640625,-0.14404869079589844,-0.05592259019613266,0.042692191898822784
1761379878601409500,6.401409423828125,-0.12522029876708984,-0.044133223593235016,-0.026847904548048973
1761379878621446400,6.4214462890625,-0.027991294860839844,-0.026538729667663574,-0.054658595472574234
1761379878641512200,6.44151220703125,0.03461265563964844,-0.03498953580856323,0.05186013877391815
1761379878661527000,6.461527099609375,-0.11290931701660156,-0.02401857078075409,0.08271569758653641
1761379878681615400,6.481615478515625,-0.1618967056274414,-0.0032486170530319214,0.08255380392074585
1761379878701666800,6.501666748046875,-0.06959915161132812,-0.041927844285964966,0.227524071931839
1761379878721717500,6.521717529296875,-0.059235572814941406,-0.03199493885040283,0.06603347510099411
1761379878741768700,6.541768798828125,-0.10499286651611328,-0.07159899175167084,-0.08929349482059479
1761379878761820400,6.5618203125,-0.1662616729736328,-0.08041086792945862,-0.2452802062034607
1761379878781872000,6.5818720703125,-0.12138175964355469,-0.12927106022834778,-0.16496431827545166
1761379878801924400,6.60192431640625,-0.16211795806884766,-0.13955456018447876,-0.08762262761592865
1761379878821974800,6.621974853515625,-0.24698829650878906,-0.1315186619758606,-0.02198757231235504
1761379878842005200,6.642005126953125,-0.2085132598876953,-0.07503527402877808,-0.1317165642976761
1761379878862077200,6.6620771484375,0.22203636169433594,-0.08878348767757416,-0.09933324158191681
1761379878882129700,6.682129638671875,0.30518531799316406,-0.1164831668138504,0.07195383310317993
1761379878902181000,6.70218115234375,0.21388816833496094,-0.03629828989505768,0.00831112265586853
1761379878922231800,6.722231689453125,0.38803958892822266,-0.0780591368675232,-0.08951786160469055
1761379878942283500,6.742283447265625,0.20589828491210938,-0.11493553221225739,-0.10996800661087036
1761379878962334700,6.762334716796875,0.10564899444580078,-0.1136096939444542,-0.06374898552894592
1761379878982386000,6.782385986328125,0.12348365783691406,-0.09977251291275024,-0.0327664315700531
1761379879002419500,6.80241943359375,0.11850738525390625,-0.06279261410236359,-0.07274951040744781
1761379879022489300,6.8224892578125,0.09221076965332031,-0.030064165592193604,-0.060630813241004944
1761379879042506800,6.8425068359375,0.07520103454589844,0.002671055495738983,0.009042680263519287
1761379879062592300,6.86259228515625,0.16600894927978516,0.06217997893691063,0.14522182941436768
1761379879082643700,6.882643798828125,0.12500762939453125,-0.032793764024972916,0.21041041612625122
1761379879102695400,6.9026953125,-0.051812171936035156,-0.02665492706000805,0.028070509433746338
1761379879122745900,6.922745849609375,-0.14019393920898438,-0.05920646712183952,-0.08701664209365845
1761379879142797000,6.942797119140625,-0.30957508087158203,-0.11080480366945267,-0.19280333817005157
1761379879162849500,6.962849609375,-0.4718637466430664,-0.14863556623458862,-0.23226194083690643
1761379879182901000,6.98290087890625,-0.4373340606689453,-0.19105219841003418,-0.15608839690685272
1761379879202952000,7.002951904296875,-0.2136850357055664,-0.15639159083366394,-0.08534616231918335
1761379879222981400,7.0229814453125,0.041831016540527344,-0.09648334980010986,0.017680436372756958
1761379879243054800,7.043054931640625,0.02709484100341797,0.0020202547311782837,0.07761967182159424
1761379879263105800,7.063105712890625,-0.043285369873046875,0.012852929532527924,0.037799984216690063
1761379879283158800,7.08315869140625,0.0028047561645507812,-0.013782456517219543,-0.015636026859283447
1761379879303210200,7.103210205078125,0.1715688705444336,-0.0696740597486496,0.08907845616340637
1761379879323241700,7.12324169921875,0.1524333953857422,-0.06033460423350334,0.16871902346611023
1761379879343313700,7.143313720703125,-0.08240032196044922,-0.018343515694141388,0.14658573269844055
1761379879363363800,7.16336376953125,-0.11391353607177734,-0.03754532337188721,0.11144420504570007
1761379879383414300,7.183414306640625,-0.2267131805419922,-0.05915641039609909,-0.03050747513771057
1761379879403466500,7.203466552734375,-0.33568668365478516,-0.0503537654876709,-0.17883247137069702
1761379879423506200,7.223506103515625,-0.2627544403076172,-0.1316511332988739,-0.2075825035572052
1761379879443570200,7.243570068359375,0.008520126342773438,-0.1825343668460846,-0.1474567949771881
1761379879463621400,7.263621337890625,0.25739383697509766,-0.20882147550582886,-0.012958988547325134
1761379879483673000,7.283673095703125,0.2238607406616211,-0.1502072513103485,-0.006931141018867493
1761379879503724000,7.30372412109375,0.06835651397705078,-0.09219375252723694,-0.06770585477352142
1761379879523754500,7.32375439453125,-0.13663959503173828,-0.025837309658527374,-0.09581111371517181
1761379879543804200,7.34380419921875,-0.1873493194580078,-0.052065394818782806,-0.04513181746006012
1761379879563864000,7.363864013671875,-0.08023452758789062,-0.054383039474487305,-0.0019728094339370728
1761379879583902000,7.38390185546875,0.03792381286621094,-0.09583265334367752,0.017617061734199524
1761379879603958000,7.4039580078125,-0.17896556854248047,-0.05364237725734711,-0.005240947008132935
1761379879624018000,7.424017822265625,-0.18990135192871094,-0.03550630807876587,0.0916547179222107
1761379879644084700,7.444084716796875,-0.04885292053222656,-0.07844770699739456,0.08084297180175781
1761379879664124400,7.46412451171875,0.09275436401367188,-0.09164173156023026,-0.10410024225711823
1761379879684182800,7.484182861328125,-0.017042160034179688,-0.08541832864284515,-0.1694660484790802
1761379879704238300,7.50423828125,-0.15838241577148438,-0.08453528583049774,-0.06788401305675507
1761379879724277500,7.524277587890625,-0.20659255981445312,-0.10992726683616638,0.030381500720977783
1761379879744341500,7.544341552734375,0.015105247497558594,-0.09634751826524734,-0.07412457466125488
1761379879764393000,7.56439306640625,0.15251541137695312,-0.0840563029050827,-0.11012192070484161
1761379879784444700,7.584444580078125,0.1613759994506836,-0.03832031786441803,-0.038560956716537476
1761379879804496400,7.604496337890625,-0.14117717742919922,-0.014966636896133423,0.055460184812545776
1761379879824536000,7.6245361328125,-0.08537960052490234,-0.07626250386238098,0.1628616750240326
1761379879844599000,7.64459912109375,-0.13271427154541016,-0.04619470238685608,-0.03705793619155884
1761379879864639000,7.664638916015625,-0.14321041107177734,-0.07841002941131592,-0.04589611291885376
1761379879884690200,7.684690185546875,0.18102073669433594,-0.09332597255706787,-0.022951066493988037
1761379879904764400,7.704764404296875,0.21175384521484375,-0.11267940700054169,-0.16862034797668457
1761379879924805000,7.72480517578125,-0.026391029357910156,-0.06686970591545105,-0.15878084301948547
1761379879944856300,7.744856201171875,-0.2623310089111328,-0.02122950553894043,0.002051740884780884
1761379879964896300,7.764896240234375,-0.4129600524902344,0.08336438238620758,0.21801090240478516
1761379879984955400,7.784955322265625,-0.36872100830078125,0.10201936960220337,0.3193880021572113
