time,seconds_elapsed,z,y,x
1761378690182399200,0.089399169921875,0.003164242021739483,-0.00018319295486435294,-0.003314126981422305
1761378690192500200,0.099500244140625,0.0026812786236405373,-0.0010658499086275697,0.0025813551619648933
1761378690202522000,0.109522216796875,0.0021150459069758654,0.0019485069205984473,-0.0005828866851516068
1761378690212539000,0.119538818359375,0.0016986982664093375,0.0006328483577817678,0.00038303982000797987
1761378690222573300,0.1295732421875,0.0021483537275344133,-0.00039969373028725386,-0.0006661561783403158
1761378690232580600,0.13958056640625,0.0007161179091781378,0.0017153521766886115,-0.0006328483577817678
1761378690242625300,0.149625244140625,-0.00004996171628590673,0.0005995405954308808,-0.0003663859097287059
1761378690252651500,0.159651611328125,-0.0011824272805824876,-0.0016653904458507895,0.0005495788645930588
1761378690262675500,0.169675537109375,-0.0025980090722441673,-0.00011657733557512984,0.0021816615480929613
1761378690272702000,0.179701904296875,-0.002348200650885701,-0.0005329249543137848,0.0010158881777897477
1761378690282726700,0.1897265625,-0.0020817380864173174,-0.0014655436389148235,0.0013989279977977276
1761378690292753400,0.19975341796875,-0.0017653139075264335,-0.0001498851488577202,0.00038303982000797987
1761378690302782700,0.20978271484375,-0.0013156584464013577,0.0007161179091781378,-0.00019984686514362693
1761378690312787000,0.219786865234375,-0.0007993874605745077,0.00018319295486435294,-0.00019984686514362693
1761378690322808000,0.22980810546875,-0.00023315467115025967,0.0003330780891701579,0.0001332312385784462
1761378690332834600,0.23983447265625,0.00009992343257181346,0.0008326952229253948,0.0003497319994494319
1761378690342865700,0.24986572265625,0.0003497319994494319,-0.0001332312385784462,0.000016653904822305776
1761378690352904700,0.25990478515625,0.0011324655497446656,-0.00003330780964461155,-0.00008326952229253948
1761378690362910000,0.269909912109375,0.0005828866851516068,0.0006828100886195898,-0.0009492725948803127
1761378690372955400,0.279955322265625,0.0012323890114203095,0.0006495022680610418,-0.0014988514594733715
1761378690382985200,0.289985107421875,0.0005329249543137848,0.0006661561783403158,-0.0006828100886195898
1761378690393008000,0.300008056640625,0.0002165007608709857,0.00048296325257979333,-0.00011657733557512984
1761378690403033300,0.310033447265625,-0.00023315467115025967,-0.0006495022680610418,-0.0003663859097287059
1761378690413038600,0.32003857421875,-0.0005329249543137848,-0.00046630934230051935,0.00018319295486435294
1761378690423087600,0.330087646484375,-0.0020817380864173174,-0.00019984686514362693,0.0009492725948803127
1761378690433091600,0.340091552734375,-0.0017153521766886115,-0.0014488897286355495,0.00011657733557512984
1761378690443154000,0.35015380859375,-0.0007494257297366858,-0.0009159647743217647,-0.0003330780891701579
1761378690453165800,0.360165771484375,-0.0004330015217419714,0.0007827335502952337,0.0007327718194574118
1761378690463188500,0.3701884765625,-0.0001332312385784462,-0.00044965543202124536,0.00003330780964461155
1761378690473214200,0.380214111328125,0.0006161945057101548,0.0002664624771568924,0.00024980856687761843
1761378690483239000,0.390239013671875,0.0009992342675104737,0.0017153521766886115,-0.0003663859097287059
1761378690493265400,0.400265380859375,0.0009159647743217647,-0.00011657733557512984,0.0001498851488577202
1761378690503290400,0.410290283203125,0.0006828100886195898,-0.0006328483577817678,-0.0001498851488577202
1761378690513294800,0.420294921875,0.0007494257297366858,0.00039969373028725386,0.00023315467115025967
1761378690523340500,0.430340576171875,0.0005495788645930588,0.00004996171628590673,0.00004996171628590673
1761378690533366300,0.4403662109375,-0.0000666156192892231,-0.0009992342675104737,-0.00044965543202124536
1761378690543353300,0.450353271484375,-0.00046630934230051935,0.00038303982000797987,0.0003330780891701579
1761378690553417700,0.460417724609375,-0.0004330015217419714,-0.0004163476114626974,-0.0007161179091781378
1761378690563422500,0.47042236328125,-0.0007993874605745077,-0.00024980856687761843,-0.0005162710440345109
1761378690573469000,0.480468994140625,-0.0005495788645930588,0.00019984686514362693,0.00038303982000797987
1761378690583494700,0.49049462890625,-0.0007494257297366858,-0.0005495788645930588,0.00016653904458507895
1761378690593519900,0.500519775390625,-0.0007660796400159597,-0.0006661561783403158,0.0006828100886195898
1761378690603545900,0.5105458984375,-0.0002831163874361664,-0.00018319295486435294,0.0010325420880690217
1761378690613571300,0.5205712890625,-0.0005329249543137848,0.00038303982000797987,0.0010491959983482957
1761378690623597000,0.53059716796875,0.00004996171628590673,0.00018319295486435294,-0.0006161945057101548
1761378690633622800,0.540622802734375,-0.0006495022680610418,0.0004330015217419714,-0.0002997702977154404
1761378690643648300,0.550648193359375,0.0002664624771568924,0.0007494257297366858,0
1761378690653674000,0.560674072265625,0.00016653904458507895,-0.0002831163874361664,-0.0002165007608709857
1761378690663699700,0.57069970703125,-0.00011657733557512984,0.0005662327748723328,-0.00003330780964461155
1761378690673704400,0.580704345703125,-0.0002831163874361664,-0.0004330015217419714,0.0003330780891701579
1761378690683751700,0.590751708984375,-0.0012823506258428097,-0.00044965543202124536,0.0002997702977154404
1761378690693779000,0.600779052734375,-0.0002664624771568924,-0.00039969373028725386,0.0007327718194574118
1761378690703802400,0.61080224609375,-0.0010991577291861176,0.00018319295486435294,0.0004330015217419714
1761378690713829600,0.62082958984375,-0.0011824272805824876,-0.00048296325257979333,-0.00008326952229253948
1761378690723832600,0.63083251953125,-0.0010658499086275697,0.0001332312385784462,0.0002165007608709857
1761378690733879300,0.64087939453125,-0.0005495788645930588,0.0009159647743217647,0.0002831163874361664
1761378690743905300,0.6509052734375,0.0002997702977154404,0.0007993874605745077,0.0001498851488577202
1761378690753930200,0.66093017578125,0.0002831163874361664,0.0003497319994494319,-0.0007327718194574118
1761378690763955700,0.670955810546875,0.00016653904458507895,0.0004330015217419714,-0.0008160413126461208
1761378690773981700,0.680981689453125,0.00024980856687761843,-0.0005495788645930588,-0.0002997702977154404
1761378690784007200,0.691007080078125,0.0002997702977154404,-0.0006994639988988638,0.00009992343257181346
1761378690794001400,0.70100146484375,-0.00018319295486435294,-0.0006994639988988638,0.00044965543202124536
1761378690804061200,0.711061279296875,0.00044965543202124536,0.00009992343257181346,0.00023315467115025967
1761378690814088200,0.721088134765625,0.0011657733703032136,0.00046630934230051935,0.0002997702977154404
1761378690824092400,0.731092529296875,0.0009992342675104737,0.0021316998172551394,-0.0003497319994494319
1761378690834155300,0.7411552734375,0.0010991577291861176,0.0004330015217419714,-0.00048296325257979333
1761378690844159500,0.751159423828125,0.0009492725948803127,0.000016653904822305776,-0.0009659265051595867
1761378690854186800,0.761186767578125,0.00044965543202124536,0,-0.0003663859097287059
1761378690864212200,0.771212158203125,-0.0005495788645930588,-0.0007993874605745077,0.0003330780891701579
1761378690874216200,0.78121630859375,0.0000666156192892231,-0.0008493491332046688,0.0007660796400159597
1761378690884263400,0.791263427734375,-0.0003497319994494319,-0.0002165007608709857,0.0002997702977154404
1761378690894268200,0.80126806640625,-0.00044965543202124536,-0.0004163476114626974,-0.0002664624771568924
1761378690904314600,0.811314697265625,0.0002997702977154404,-0.0005995405954308808,-0.0011491194600239396
1761378690914322000,0.821322021484375,0.0010158881777897477,0.0004163476114626974,-0.0005828866851516068
1761378690924366000,0.831365966796875,0.0008660030434839427,-0.00003330780964461155,-0.0005828866851516068
1761378690934391800,0.841391845703125,0.0015821210108697414,-0.0004163476114626974,-0.00024980856687761843
1761378690944418000,0.85141796875,0.0011491194600239396,-0.00016653904458507895,-0.00048296325257979333
1761378690954442800,0.86144287109375,0.0017653139075264335,0.00008326952229253948,-0.0003497319994494319
1761378690964468200,0.87146826171875,0.0020151224453002214,-0.0006994639988988638,-0.0000666156192892231
1761378690974494200,0.881494140625,0.0021150459069758654,0.0001332312385784462,-0.0008493491332046688
1761378690984519400,0.89151953125,0.0019151991000398993,0.0001332312385784462,-0.0006328483577817678
1761378690994545400,0.90154541015625,0.0010658499086275697,0.00018319295486435294,0.00019984686514362693
1761378691004571100,0.911571044921875,0.0013156584464013577,0.0002997702977154404,0.00018319295486435294
1761378691014596900,0.921596923828125,0.0010325420880690217,0.0001498851488577202,-0.0007660796400159597
1761378691024622000,0.9316220703125,0.0007827335502952337,0.0006661561783403158,-0.0006994639988988638
1761378691034648000,0.94164794921875,0.0008160413126461208,-0.00018319295486435294,0.00004996171628590673
1761378691044641500,0.9516416015625,-0.00038303982000797987,-0.0004330015217419714,-0.0001498851488577202
1761378691054699300,0.96169921875,-0.0009659265051595867,-0.0008493491332046688,-0.0002664624771568924
1761378691064724700,0.971724853515625,-0.0004163476114626974,-0.00039969373028725386,-0.00046630934230051935
1761378691074730000,0.98172998046875,-0.0014655436389148235,0.00011657733557512984,0.0003663859097287059
1761378691084778000,0.991778076171875,-0.0010158881777897477,-0.0007827335502952337,-0.0001332312385784462
1761378691094802200,1.00180224609375,0.00016653904458507895,-0.00023315467115025967,0.000016653904822305776
1761378691104827100,1.0118271484375,0.0002997702977154404,-0.00018319295486435294,0.00023315467115025967
1761378691114883600,1.021883544921875,0.0005162710440345109,-0.0009492725948803127,-0.0003663859097287059
1761378691124878800,1.03187890625,0.0003330780891701579,0.00048296325257979333,-0.0009326186846010387
1761378691134904300,1.041904296875,0.0005828866851516068,0.0009159647743217647,-0.00009992343257181346
1761378691144930300,1.051930419921875,0.0010991577291861176,-0.00016653904458507895,0.0003663859097287059
1761378691154955500,1.06195556640625,0.0013489662669599056,0.0009326186846010387,0.0003330780891701579
1761378691164960800,1.071960693359375,0.0011491194600239396,-0.0002664624771568924,-0.0004330015217419714
1761378691174985700,1.08198583984375,0.00046630934230051935,-0.0000666156192892231,-0.0008160413126461208
1761378691185032400,1.092032470703125,-0.0001332312385784462,0.000016653904822305776,-0.0006328483577817678
1761378691195060700,1.102060791015625,-0.0005828866851516068,-0.0002831163874361664,0.00039969373028725386
1761378691205088300,1.112088134765625,-0.0002997702977154404,-0.0005329249543137848,0.000016653904822305776
1761378691215092700,1.1220927734375,-0.0006828100886195898,-0.0000666156192892231,0
1761378691225155600,1.132155517578125,-0.0005495788645930588,-0.00039969373028725386,0.0004330015217419714
1761378691235165200,1.142165283203125,-0.0002664624771568924,-0.0005162710440345109,0.00003330780964461155
1761378691245157600,1.15215771484375,-0.0002664624771568924,0.0004330015217419714,0.00018319295486435294
1761378691255192800,1.16219287109375,0.0005162710440345109,-0.00038303982000797987,0.00024980856687761843
1761378691265237500,1.172237548828125,0.0008660030434839427,0.0003663859097287059,0.0008493491332046688
1761378691275262200,1.18226220703125,0.0006828100886195898,0.0008493491332046688,0.00046630934230051935
1761378691285288700,1.192288818359375,0.0006328483577817678,0.00004996171628590673,0.0005662327748723328
1761378691295314700,1.202314697265625,0.00048296325257979333,-0.00019984686514362693,0.000016653904822305776
1761378691305340200,1.212340087890625,0.0006328483577817678,0.00044965543202124536,0.00003330780964461155
1761378691315365600,1.22236572265625,0.0000666156192892231,-0.0006161945057101548,-0.00011657733557512984
1761378691325391000,1.23239111328125,0.0005162710440345109,0.000016653904822305776,0
1761378691335417000,1.2424169921875,-0.0002165007608709857,0.00023315467115025967,0.00024980856687761843
1761378691345442600,1.252442626953125,-0.0003164241788908839,-0.0007161179091781378,0.0002664624771568924
1761378691355468300,1.26246826171875,-0.0008326952229253948,-0.0000666156192892231,0.00009992343257181346
1761378691365493800,1.27249365234375,0.0001498851488577202,-0.0003663859097287059,-0.0001498851488577202
1761378691375519700,1.282519775390625,-0.0002831163874361664,0.0002664624771568924,-0.0000666156192892231
1761378691385545200,1.292545166015625,-0.0003663859097287059,0.0001332312385784462,0.00004996171628590673
1761378691395570400,1.3025703125,0.00046630934230051935,-0.0004330015217419714,-0.0006161945057101548
1761378691405577200,1.3125771484375,-0.00019984686514362693,0.0007660796400159597,0.00016653904458507895
1761378691415622000,1.322621826171875,0.000016653904822305776,0.00024980856687761843,0.0012490428052842617
1761378691425626000,1.332626220703125,0.0001332312385784462,-0.0010158881777897477,0.0006495022680610418
1761378691435673000,1.342673095703125,0.00024980856687761843,0.0002664624771568924,0.0007827335502952337
1761378691445692700,1.352692626953125,0.0002831163874361664,0.0003330780891701579,-0.0002165007608709857
1761378691455725300,1.362725341796875,0.0003497319994494319,-0.0007161179091781378,-0.0004996171337552369
1761378691465750300,1.372750244140625,0,0.00046630934230051935,-0.0002997702977154404
1761378691475757600,1.382757568359375,0.0007494257297366858,0.0003330780891701579,0.0003663859097287059
1761378691485801500,1.392801513671875,0.0001332312385784462,-0.0010991577291861176,-0.0004330015217419714
1761378691495829500,1.40282958984375,-0.00018319295486435294,-0.0003330780891701579,-0.0001498851488577202
1761378691505862000,1.41286181640625,-0.0001498851488577202,0.0000666156192892231,-0.0003663859097287059
1761378691515878100,1.422878173828125,0.00009992343257181346,-0.0006994639988988638,-0.0008160413126461208
1761378691525904000,1.43290380859375,-0.00009992343257181346,0.00038303982000797987,0.00011657733557512984
1761378691535929900,1.442929931640625,-0.0002831163874361664,0.00009992343257181346,-0.0007327718194574118
1761378691545955300,1.452955322265625,0.00023315467115025967,-0.0004996171337552369,0.0000666156192892231
1761378691555957200,1.462957275390625,0.00038303982000797987,0.00046630934230051935,-0.0002664624771568924
1761378691566006500,1.473006591796875,0.0001498851488577202,0.0003330780891701579,0.00009992343257181346
1761378691576019700,1.483019775390625,0.00038303982000797987,-0.0010325420880690217,-0.00039969373028725386
1761378691586060500,1.493060546875,0.00016653904458507895,-0.0004330015217419714,0.0003663859097287059
1761378691596088000,1.503088134765625,-0.00039969373028725386,-0.0000666156192892231,-0.0002165007608709857
1761378691606099500,1.513099365234375,0.0011491194600239396,-0.0003330780891701579,0.0002831163874361664
1761378691616149500,1.5231494140625,0.00044965543202124536,-0.0003164241788908839,-0.0001498851488577202
1761378691626157000,1.533156982421875,-0.00019984686514362693,-0.0002831163874361664,0.0003330780891701579
1761378691636186000,1.54318603515625,0.00048296325257979333,-0.0002664624771568924,0.0003497319994494319
1761378691646211600,1.553211669921875,0.0005162710440345109,0.0001498851488577202,0.0000666156192892231
1761378691656237600,1.563237548828125,0.00023315467115025967,0.00048296325257979333,0.00009992343257181346
1761378691666263000,1.573262939453125,-0.00038303982000797987,-0.00023315467115025967,-0.00023315467115025967
1761378691676288500,1.58328857421875,-0.0003497319994494319,-0.0005662327748723328,-0.0003497319994494319
1761378691686314200,1.593314208984375,0.0002831163874361664,0.0007327718194574118,-0.0005495788645930588
1761378691696340000,1.603340087890625,-0.00016653904458507895,-0.00016653904458507895,-0.0002664624771568924
1761378691706365400,1.613365478515625,-0.00016653904458507895,0.0000666156192892231,-0.00018319295486435294
1761378691716391200,1.62339111328125,0.00023315467115025967,0.00039969373028725386,0.0005495788645930588
1761378691726416600,1.633416748046875,0.0003330780891701579,-0.0002165007608709857,-0.00003330780964461155
1761378691736442400,1.6434423828125,0.0002664624771568924,0.00018319295486435294,-0.0005662327748723328
1761378691746467600,1.653467529296875,-0.000016653904822305776,0.00039969373028725386,0.000016653904822305776
1761378691756493800,1.663493896484375,0.0005495788645930588,0.00023315467115025967,0.0002997702977154404
1761378691766498600,1.67349853515625,0.00048296325257979333,0.0007327718194574118,0.00019984686514362693
1761378691776510700,1.6835107421875,0.0004330015217419714,-0.0001332312385784462,0.00019984686514362693
1761378691786570500,1.693570556640625,-0.00019984686514362693,-0.0007660796400159597,-0.00009992343257181346
1761378691796596000,1.703595947265625,-0.0006161945057101548,-0.0000666156192892231,0.00003330780964461155
1761378691806624000,1.7136240234375,-0.0005828866851516068,-0.0005495788645930588,-0.0000666156192892231
1761378691816647700,1.723647705078125,0.00019984686514362693,-0.0005162710440345109,0.0005162710440345109
1761378691826673000,1.7336728515625,-0.00016653904458507895,0.00018319295486435294,0.00048296325257979333
1761378691836699000,1.743698974609375,-0.000016653904822305776,-0.00039969373028725386,-0.0002165007608709857
1761378691846724400,1.753724365234375,-0.0003497319994494319,0.0006828100886195898,-0.0000666156192892231
1761378691856750000,1.76375,-0.00039969373028725386,0.00039969373028725386,-0.0006661561783403158
1761378691866778400,1.7737783203125,0.0007161179091781378,0.0003330780891701579,-0.0002831163874361664
1761378691876801500,1.783801513671875,-0.00011657733557512984,0.0007993874605745077,-0.00003330780964461155
1761378691886828800,1.793828857421875,0.0003497319994494319,-0.0003663859097287059,0.00024980856687761843
1761378691896853500,1.803853515625,-0.00004996171628590673,0.0002664624771568924,-0.0003663859097287059
1761378691906878000,1.8138779296875,0.00018319295486435294,-0.00018319295486435294,-0.0002997702977154404
1761378691916903700,1.823903564453125,0.000016653904822305776,-0.00008326952229253948,0.0002165007608709857
1761378691926929400,1.833929443359375,0.0003497319994494319,0.0000666156192892231,-0.00009992343257181346
1761378691936940300,1.843940185546875,0.0003663859097287059,0.00003330780964461155,0.0000666156192892231
1761378691946980600,1.853980712890625,0.00039969373028725386,0.0002831163874361664,0.0005995405954308808
1761378691957006300,1.86400634765625,0.0002165007608709857,0.0002831163874361664,-0.00009992343257181346
1761378691967031800,1.87403173828125,-0.00003330780964461155,-0.0004163476114626974,-0.0003497319994494319
1761378691977019000,1.884018798828125,-0.00019984686514362693,0.0002165007608709857,-0.0003164241788908839
1761378691987089000,1.8940888671875,0.0001332312385784462,0.0007993874605745077,-0.0001332312385784462
1761378691997092000,1.904092041015625,0.0002165007608709857,0.00009992343257181346,-0.0006161945057101548
1761378692007135000,1.914135009765625,-0.000016653904822305776,0.0005995405954308808,0.0005495788645930588
1761378692017156900,1.924156982421875,-0.00018319295486435294,0.00038303982000797987,0.000016653904822305776
1761378692027186000,1.93418603515625,0.0002165007608709857,-0.0010991577291861176,-0.0003663859097287059
1761378692037211600,1.944211669921875,0.0003497319994494319,0.00008326952229253948,-0.00008326952229253948
1761378692047236900,1.95423681640625,0.0003330780891701579,0.0005995405954308808,0.0004163476114626974
1761378692057262600,1.9642626953125,-0.0004163476114626974,-0.0006161945057101548,-0.0002165007608709857
1761378692067288600,1.97428857421875,0.000016653904822305776,0.00004996171628590673,0.0002664624771568924
1761378692077314000,1.98431396484375,-0.0005162710440345109,-0.000016653904822305776,0.00044965543202124536
1761378692087339500,1.994339599609375,0.0000666156192892231,-0.000016653904822305776,0.0003497319994494319
1761378692097365200,2.004365234375,-0.00044965543202124536,0.0003330780891701579,0.0006328483577817678
1761378692107382000,2.014382080078125,0.00004996171628590673,0.0004163476114626974,0.00038303982000797987
1761378692117416200,2.024416259765625,-0.0002997702977154404,0.00023315467115025967,0.00023315467115025967
1761378692127442000,2.03444189453125,0.00046630934230051935,0.0000666156192892231,-0.00003330780964461155
1761378692137446700,2.04444677734375,-0.0005495788645930588,-0.00011657733557512984,-0.0004996171337552369
1761378692147493600,2.05449365234375,-0.00023315467115025967,-0.0005162710440345109,0.00016653904458507895
1761378692157520000,2.064519775390625,-0.0007993874605745077,0.0000666156192892231,-0.0001498851488577202
1761378692167544600,2.074544677734375,-0.0005828866851516068,-0.0008660030434839427,-0.0005495788645930588
1761378692177549800,2.0845498046875,-0.00009992343257181346,-0.0007660796400159597,-0.00023315467115025967
1761378692187595500,2.094595458984375,-0.00019984686514362693,0.0001332312385784462,0.00008326952229253948
1761378692197621500,2.10462158203125,0.0006828100886195898,0.00039969373028725386,-0.0003497319994494319
1761378692207647500,2.1146474609375,-0.00018319295486435294,-0.00004996171628590673,-0.0012990045361220837
1761378692217673000,2.1246728515625,-0.0002165007608709857,0.0005662327748723328,-0.0005662327748723328
1761378692227698200,2.1346982421875,-0.0008160413126461208,0.00019984686514362693,0.0004163476114626974
1761378692237724000,2.144723876953125,-0.00009992343257181346,0.00048296325257979333,-0.0003497319994494319
1761378692247750100,2.154750244140625,-0.0003164241788908839,0.0006661561783403158,0.00016653904458507895
1761378692257777700,2.164777587890625,0.0007327718194574118,0.00046630934230051935,-0.00011657733557512984
1761378692267800600,2.174800537109375,0.00009992343257181346,-0.0002664624771568924,0.00003330780964461155
1761378692277828600,2.18482861328125,0.0006328483577817678,0.00018319295486435294,0.0001498851488577202
1761378692287853300,2.194853271484375,0.0002165007608709857,0.00016653904458507895,-0.00009992343257181346
1761378692297877800,2.204877685546875,0.0001498851488577202,-0.00023315467115025967,0.00019984686514362693
1761378692307920400,2.21492041015625,-0.0011491194600239396,-0.0003330780891701579,0.0003663859097287059
1761378692317917700,2.224917724609375,-0.0005162710440345109,-0.00011657733557512984,0.0005662327748723328
1761378692327954700,2.23495458984375,-0.0003330780891701579,-0.0005995405954308808,0.00009992343257181346
1761378692337945600,2.244945556640625,0.00004996171628590673,0.00004996171628590673,-0.00023315467115025967
1761378692348006700,2.255006591796875,0.0005329249543137848,-0.00011657733557512984,0.00003330780964461155
1761378692358032000,2.265031982421875,0.0006328483577817678,0.00024980856687761843,-0.00008326952229253948
1761378692368038000,2.275037841796875,0.0002664624771568924,0.0002664624771568924,-0.0005495788645930588
1761378692378088700,2.285088623046875,0.0008993108640424907,-0.0003330780891701579,-0.0004163476114626974
1761378692388092200,2.295092041015625,0.0011324655497446656,-0.0002831163874361664,-0.00018319295486435294
1761378692398157600,2.305157470703125,-0.0003663859097287059,0.00009992343257181346,0.0005995405954308808
1761378692408156000,2.315156005859375,-0.0005495788645930588,-0.0007660796400159597,0
1761378692418185500,2.325185546875,-0.00023315467115025967,-0.00016653904458507895,0.0002165007608709857
1761378692428211200,2.335211181640625,-0.00024980856687761843,0.00019984686514362693,0.0006161945057101548
1761378692438236700,2.345236572265625,0.0003663859097287059,0.000016653904822305776,-0.0006495022680610418
1761378692448262000,2.355261962890625,-0.0002997702977154404,0.0002165007608709857,0.0003330780891701579
1761378692458287600,2.36528759765625,-0.0010325420880690217,0.0004330015217419714,0.0005162710440345109
1761378692468282000,2.3752822265625,-0.00019984686514362693,-0.0005662327748723328,0.0003164241788908839
1761378692478339000,2.385339111328125,-0.00009992343257181346,0.0007161179091781378,0.00024980856687761843
1761378692488366300,2.395366455078125,-0.0002997702977154404,0.0005662327748723328,0.00016653904458507895
1761378692498391800,2.405391845703125,-0.0003663859097287059,-0.0008493491332046688,0.0002165007608709857
1761378692508419000,2.415419189453125,-0.0007660796400159597,-0.00011657733557512984,0.0005162710440345109
1761378692518421200,2.425421142578125,-0.0005329249543137848,0.0004163476114626974,0.0005495788645930588
1761378692528468700,2.43546875,-0.00048296325257979333,-0.0006661561783403158,-0.00016653904458507895
1761378692538475800,2.445475830078125,-0.0007993874605745077,-0.00004996171628590673,0.0001498851488577202
1761378692548520000,2.45552001953125,-0.0006328483577817678,0.0008493491332046688,-0.0002831163874361664
1761378692558546700,2.465546630859375,0.0001498851488577202,-0.00024980856687761843,-0.0008160413126461208
1761378692568572400,2.475572509765625,0.00023315467115025967,-0.00011657733557512984,0.0005162710440345109
1761378692578598000,2.485597900390625,-0.0002165007608709857,0.0012490428052842617,0.0006495022680610418
1761378692588622600,2.49562255859375,0.00016653904458507895,-0.00009992343257181346,0.0004330015217419714
1761378692598649000,2.505649169921875,0.00009992343257181346,-0.0002831163874361664,-0.0001332312385784462
1761378692608674300,2.51567431640625,0.0000666156192892231,-0.000016653904822305776,0.00004996171628590673
1761378692618678000,2.525677978515625,0.0001498851488577202,-0.0005329249543137848,0.0010825038189068437
1761378692628726000,2.53572607421875,0.00011657733557512984,-0.0006661561783403158,0.0004163476114626974
1761378692638733300,2.5457333984375,-0.0005495788645930588,-0.00019984686514362693,0.0005662327748723328
1761378692648780300,2.5557802734375,-0.0005329249543137848,0.00019984686514362693,0.0005662327748723328
1761378692658797000,2.565797119140625,-0.00016653904458507895,-0.0002664624771568924,0.00011657733557512984
1761378692668831500,2.57583154296875,-0.00039969373028725386,-0.0001332312385784462,0.00016653904458507895
1761378692678856200,2.585856201171875,-0.0006828100886195898,-0.0005495788645930588,0.00011657733557512984
1761378692688879600,2.595879638671875,-0.0003330780891701579,0.000016653904822305776,0.0000666156192892231
1761378692698879700,2.605879638671875,-0.0001498851488577202,0.00003330780964461155,-0.0003164241788908839
1761378692708929800,2.6159296875,0.0005828866851516068,0.00038303982000797987,-0.00003330780964461155
1761378692718956500,2.62595654296875,0.00011657733557512984,0.0002165007608709857,-0.0006495022680610418
1761378692728982000,2.63598193359375,0.0008326952229253948,0.0006161945057101548,-0.0011324655497446656
1761378692739007000,2.646007080078125,0.0005162710440345109,0.0002831163874361664,-0.00023315467115025967
1761378692749033700,2.65603369140625,0.00038303982000797987,0.0005329249543137848,-0.0003330780891701579
1761378692759062800,2.666062744140625,0.00048296325257979333,0.00024980856687761843,-0.00024980856687761843
1761378692769093600,2.67609375,0.00009992343257181346,0.00008326952229253948,-0.0007327718194574118
1761378692779096300,2.686096435546875,-0.0005662327748723328,0.000016653904822305776,0.0007494257297366858
1761378692789094400,2.696094482421875,-0.0012157351011410356,0,-0.00011657733557512984
1761378692799167700,2.706167724609375,-0.0010658499086275697,-0.0009326186846010387,0.00008326952229253948
1761378692809186600,2.7161865234375,-0.0007993874605745077,-0.0006661561783403158,-0.00009992343257181346
1761378692819193900,2.72619384765625,-0.0006661561783403158,0,0.00046630934230051935
1761378692829238000,2.736238037109375,-0.00009992343257181346,-0.0003663859097287059,0.0003497319994494319
1761378692839264000,2.746263916015625,-0.0002165007608709857,-0.00018319295486435294,-0.00003330780964461155
1761378692849289000,2.7562890625,0.0006495022680610418,-0.0002165007608709857,-0.0005329249543137848
1761378692859337000,2.7663369140625,0.0006161945057101548,-0.0005329249543137848,0.0002664624771568924
1761378692869341000,2.7763408203125,-0.00003330780964461155,0.0002831163874361664,-0.0006661561783403158
1761378692879365600,2.78636572265625,-0.00023315467115025967,0.0005662327748723328,0.00004996171628590673
1761378692889391400,2.796391357421875,0.0000666156192892231,-0.0001498851488577202,-0.000016653904822305776
1761378692899417900,2.80641796875,0.0003164241788908839,0.00011657733557512984,-0.0000666156192892231
1761378692909443300,2.816443359375,0.0001498851488577202,0.00018319295486435294,-0.0004163476114626974
1761378692919468800,2.82646875,0.0003330780891701579,0.00016653904458507895,0.0005329249543137848
1761378692929494000,2.836493896484375,-0.00016653904458507895,0.0001332312385784462,-0.00009992343257181346
1761378692939520500,2.8465205078125,-0.0011657733703032136,0.00016653904458507895,-0.0001498851488577202
1761378692949569000,2.856569091796875,-0.00039969373028725386,-0.0004163476114626974,0.00004996171628590673
1761378692959570700,2.86657080078125,0.0002831163874361664,-0.00023315467115025967,-0.00003330780964461155
1761378692969574400,2.876574462890625,-0.00008326952229253948,-0.00011657733557512984,0.0005828866851516068
1761378692979623200,2.886623046875,0.0002165007608709857,0.0001332312385784462,0.00009992343257181346
1761378692989626000,2.896626220703125,-0.00016653904458507895,0.0002831163874361664,-0.0003497319994494319
1761378692999673900,2.906673828125,0.0003497319994494319,0.00018319295486435294,0.00004996171628590673
1761378693009698800,2.91669873046875,0,-0.00023315467115025967,0.0006161945057101548
1761378693019700500,2.926700439453125,-0.0001332312385784462,-0.00004996171628590673,0.0001498851488577202
1761378693029751600,2.93675146484375,0.00039969373028725386,-0.0007993874605745077,-0.0005662327748723328
1761378693039779600,2.946779541015625,-0.00008326952229253948,-0.00019984686514362693,0.00019984686514362693
1761378693049805800,2.956805908203125,-0.00044965543202124536,0.00044965543202124536,0.00048296325257979333
1761378693059831300,2.966831298828125,-0.0006161945057101548,-0.0003330780891701579,0.00004996171628590673
1761378693069858300,2.9768583984375,-0.00023315467115025967,-0.0004996171337552369,-0.00019984686514362693
1761378693079868700,2.98686865234375,-0.0006161945057101548,0.0009159647743217647,-0.0002997702977154404
1761378693089905000,2.99690478515625,-0.0004330015217419714,0.0009159647743217647,0.0003330780891701579
1761378693099930400,3.006930419921875,-0.00003330780964461155,0.0003497319994494319,-0.0001332312385784462
1761378693109955600,3.01695556640625,0.00018319295486435294,0.0002165007608709857,-0.0003330780891701579
1761378693119981300,3.026981201171875,0.0005495788645930588,0.0005495788645930588,0.0003164241788908839
1761378693130007300,3.03700732421875,-0.00024980856687761843,0.0002165007608709857,0.000016653904822305776
1761378693140032300,3.0470322265625,-0.0008660030434839427,0.0004330015217419714,-0.0002664624771568924
1761378693150038000,3.0570380859375,-0.00038303982000797987,-0.000016653904822305776,0.00046630934230051935
1761378693160090600,3.067090576171875,-0.0002831163874361664,-0.0004163476114626974,-0.0002831163874361664
1761378693170085000,3.077085205078125,-0.0005828866851516068,0.0005662327748723328,-0.0002664624771568924
1761378693180113200,3.087113037109375,0.00038303982000797987,0.0006161945057101548,0.00044965543202124536
1761378693190163500,3.09716357421875,0.0003164241788908839,-0.00018319295486435294,-0.0001498851488577202
1761378693200186400,3.107186279296875,0.00039969373028725386,0.0002664624771568924,-0.0004163476114626974
1761378693210213000,3.117213134765625,-0.00008326952229253948,-0.00046630934230051935,0.00023315467115025967
1761378693220233700,3.127233642578125,-0.0003330780891701579,-0.00046630934230051935,-0.0001332312385784462
1761378693230262500,3.137262451171875,-0.0004163476114626974,-0.0002997702977154404,-0.000016653904822305776
1761378693240289000,3.1472890625,-0.00016653904458507895,0.0001332312385784462,-0.0005329249543137848
1761378693250314800,3.157314697265625,-0.00009992343257181346,-0.0006328483577817678,-0.0006161945057101548
1761378693260340500,3.167340576171875,-0.0004996171337552369,-0.00018319295486435294,-0.00023315467115025967
1761378693270365200,3.177365234375,-0.0002831163874361664,0.0000666156192892231,-0.0005495788645930588
1761378693280391400,3.187391357421875,-0.00023315467115025967,-0.00003330780964461155,-0.00016653904458507895
1761378693290417200,3.197417236328125,-0.0006328483577817678,0.000016653904822305776,0.0006828100886195898
1761378693300423000,3.2074228515625,-0.0002997702977154404,0.0004163476114626974,0.0003164241788908839
1761378693310469000,3.21746923828125,0.0005662327748723328,0.0005329249543137848,0.0003497319994494319
1761378693320480800,3.227480712890625,0.0000666156192892231,0.0007494257297366858,-0.000016653904822305776
1761378693330521000,3.23752099609375,0.0002997702977154404,0.019718224182724953,0.0022649310994893312
1761378693340546000,3.247546142578125,-0.00004996171628590673,0.02997702918946743,-0.0014988514594733715
1761378693350536000,3.257535888671875,-0.0000666156192892231,0.012890121899545193,0.0006495022680610418
1761378693360597000,3.267596923828125,0.0002831163874361664,0.005662327632308006,-0.00008326952229253948
1761378693370623500,3.27762353515625,-0.0001332312385784462,0.003513973904773593,-0.0012823506258428097
1761378693380631800,3.2876318359375,-0.0013156584464013577,-0.010325420647859573,0.0005329249543137848
1761378693390652200,3.297652099609375,-0.0013489662669599056,-0.016504019498825073,-0.0007161179091781378
1761378693400700700,3.30770068359375,-0.0009992342675104737,-0.010441998019814491,-0.0003663859097287059
1761378693410726100,3.31772607421875,0,-0.019485069438815117,-0.0017153521766886115
1761378693420751600,3.327751708984375,0,-0.015005168505012989,0.00011657733557512984
1761378693430776600,3.337776611328125,-0.0006495022680610418,0.013156584464013577,0.00018319295486435294
1761378693440802300,3.34780224609375,-0.0008826569537632167,-0.0005162710440345109,-0.002481431933119893
1761378693450828500,3.35782861328125,-0.0006994639988988638,-0.010608537122607231,0.0016653904458507895
1761378693460815000,3.367815185546875,-0.002348200650885701,0.00671152351424098,-0.0007660796400159597
1761378693470880800,3.377880859375,-0.002414816292002797,0.00004996171628590673,0.0010825038189068437
1761378693480906800,3.38790673828125,-0.0018818912794813514,-0.009526033885776997,0.0010491959983482957
1761378693490932700,3.3979326171875,-0.0019651607144623995,0.003480666084215045,0.0012157351011410356
1761378693500956200,3.4079560546875,-0.0011990811908617616,0.002781202085316181,0.0003663859097287059
1761378693510982100,3.417982177734375,0.0002664624771568924,-0.0044799004681408405,-0.00023315467115025967
1761378693520987000,3.42798681640625,-0.0001332312385784462,0.002914433367550373,-0.00003330780964461155
1761378693531032300,3.4380322265625,0.0007327718194574118,0.0021983154583722353,-0.0008660030434839427
1761378693541058600,3.44805859375,0.0006495022680610418,-0.003180895932018757,0.0010825038189068437
1761378693551064000,3.45806396484375,0.0011990811908617616,0.0010825038189068437,0.00024980856687761843
1761378693561108200,3.468108154296875,0.0006495022680610418,0.0025980090722441673,-0.0007827335502952337
1761378693571135500,3.478135498046875,0.0005495788645930588,-0.0015321592800319195,-0.0001332312385784462
1761378693581164500,3.48816455078125,0.00046630934230051935,0.00008326952229253948,-0.0013822740875184536
1761378693591190300,3.498190185546875,-0.0002997702977154404,0.0022982389200478792,0.00008326952229253948
1761378693601194200,3.5081943359375,-0.0005662327748723328,-0.0013989279977977276,0.0006661561783403158
1761378693611257300,3.51825732421875,-0.0003330780891701579,-0.00019984686514362693,0.0003164241788908839
1761378693621260300,3.52826025390625,-0.0009659265051595867,0.0014821975491940975,-0.00011657733557512984
1761378693631267000,3.53826708984375,-0.0010491959983482957,-0.0012490428052842617,0.00008326952229253948
1761378693641312500,3.5483125,-0.0009326186846010387,-0.0009326186846010387,-0.00004996171628590673
1761378693651338200,3.558338134765625,-0.0009992342675104737,0.0009992342675104737,-0.00004996171628590673
1761378693661364000,3.568364013671875,-0.0004996171337552369,-0.0005162710440345109,0.00039969373028725386
1761378693671382500,3.578382568359375,-0.0002997702977154404,-0.0007660796400159597,0.0004163476114626974
1761378693681395000,3.58839501953125,0.0002997702977154404,0.0013822740875184536,0.00008326952229253948
1761378693691441000,3.59844091796875,0.0002831163874361664,0.0003497319994494319,-0.0004996171337552369
1761378693701469700,3.6084697265625,0.0009159647743217647,-0.00019984686514362693,-0.000016653904822305776
1761378693711492400,3.618492431640625,0.0006828100886195898,0.0012656967155635357,0.00004996171628590673
1761378693721517800,3.628517822265625,0.0011491194600239396,0.0004330015217419714,-0.00003330780964461155
1761378693731543300,3.638543212890625,0.0005162710440345109,0.0006495022680610418,-0.0000666156192892231
1761378693741569000,3.648569091796875,0.00016653904458507895,0.0010825038189068437,-0.00038303982000797987
1761378693751594500,3.658594482421875,0.0001332312385784462,0.0007993874605745077,-0.0004330015217419714
1761378693761620200,3.6686201171875,-0.0005662327748723328,0.00008326952229253948,0.00009992343257181346
1761378693771645700,3.678645751953125,-0.00004996171628590673,-0.0008326952229253948,0.00024980856687761843
1761378693781671700,3.688671630859375,-0.0011324655497446656,-0.0003663859097287059,0.0001498851488577202
1761378693791697200,3.698697265625,-0.0009659265051595867,-0.0008660030434839427,0.0008660030434839427
1761378693801702000,3.708701904296875,-0.00048296325257979333,-0.0002831163874361664,0.0010158881777897477
1761378693811748400,3.718748291015625,-0.00003330780964461155,-0.0006328483577817678,0
1761378693821774300,3.7287744140625,-0.0001498851488577202,0.0007993874605745077,0.00018319295486435294
1761378693831800600,3.738800537109375,0,0.0009159647743217647,0.0000666156192892231
1761378693841803000,3.748802978515625,0.00004996171628590673,0.00008326952229253948,0.0006161945057101548
1761378693851868700,3.75886865234375,-0.0008493491332046688,-0.0002664624771568924,0.0008160413126461208
1761378693861879300,3.76887939453125,0.0002664624771568924,-0.0002165007608709857,0.0007161179091781378
1761378693871903700,3.77890380859375,0.0005495788645930588,-0.00009992343257181346,0.0001332312385784462
1761378693881930500,3.788930419921875,0.0007327718194574118,-0.00039969373028725386,0.00044965543202124536
1761378693891955700,3.798955810546875,-0.00023315467115025967,-0.0003497319994494319,0.0003330780891701579
1761378693901961500,3.80896142578125,0.0002165007608709857,0.000016653904822305776,0.000016653904822305776
1761378693912004900,3.8190048828125,-0.00018319295486435294,-0.00004996171628590673,0.0002831163874361664
1761378693922030300,3.8290302734375,0.0002997702977154404,0.00019984686514362693,0.0005162710440345109
1761378693932056000,3.83905615234375,-0.00016653904458507895,0.0004163476114626974,0.0002997702977154404
1761378693942081800,3.849081787109375,-0.000016653904822305776,0.00018319295486435294,0.0007827335502952337
1761378693952107300,3.859107177734375,-0.0009326186846010387,0.0004330015217419714,0.0004330015217419714
1761378693962133000,3.869133056640625,-0.00016653904458507895,0.0002664624771568924,0.0006661561783403158
1761378693972127700,3.879127685546875,-0.0005662327748723328,-0.0000666156192892231,0.00039969373028725386
1761378693982188000,3.88918798828125,-0.0010325420880690217,-0.00046630934230051935,-0.00004996171628590673
1761378693992196900,3.89919677734375,-0.0007827335502952337,-0.0006994639988988638,0.00023315467115025967
1761378694002219800,3.9092197265625,-0.0007161179091781378,-0.00011657733557512984,0.0011990811908617616
1761378694012260900,3.9192607421875,-0.00009992343257181346,0.0003663859097287059,0.0011324655497446656
1761378694022286800,3.929286865234375,0.00011657733557512984,0.0010158881777897477,0.0011324655497446656
1761378694032291000,3.939291015625,-0.00024980856687761843,-0.00004996171628590673,-0.0006994639988988638
1761378694042337800,3.949337890625,0.0002664624771568924,0.00011657733557512984,-0.00023315467115025967
1761378694052363300,3.95936328125,0.00011657733557512984,0.0001498851488577202,0.00023315467115025967
1761378694062389200,3.96938916015625,-0.00003330780964461155,-0.0005329249543137848,0.00024980856687761843
1761378694072415000,3.9794150390625,-0.0009492725948803127,-0.0005828866851516068,-0.00003330780964461155
1761378694082440200,3.989440185546875,-0.0009326186846010387,0.00048296325257979333,0.000016653904822305776
1761378694092466400,3.999466552734375,-0.0000666156192892231,0.0003164241788908839,0.0007660796400159597
1761378694102492400,4.009492431640625,-0.00024980856687761843,0.0000666156192892231,-0.0008160413126461208
1761378694112517400,4.019517333984375,-0.0004330015217419714,0.00048296325257979333,0.00038303982000797987
1761378694122542800,4.02954296875,0.00004996171628590673,0.0004996171337552369,0.0010158881777897477
1761378694132557000,4.03955712890625,0.000016653904822305776,-0.00023315467115025967,0.0003164241788908839
1761378694142593800,4.04959375,-0.0005162710440345109,0.0008826569537632167,-0.00003330780964461155
1761378694152619800,4.059619873046875,0,0.0002165007608709857,-0.00003330780964461155
1761378694162645500,4.0696455078125,-0.0005662327748723328,0,0.00018319295486435294
1761378694172671500,4.07967138671875,0.00011657733557512984,0.00038303982000797987,0.00008326952229253948
1761378694182697200,4.089697265625,0.0004163476114626974,0.0006828100886195898,0.00018319295486435294
1761378694192722400,4.099722412109375,-0.00008326952229253948,0.00048296325257979333,-0.00008326952229253948
1761378694202727700,4.109727783203125,-0.0004330015217419714,0.000016653904822305776,0.00018319295486435294
1761378694212773600,4.119773681640625,-0.00044965543202124536,0.0004163476114626974,0.00004996171628590673
1761378694222775800,4.12977587890625,-0.0009326186846010387,-0.0001498851488577202,-0.00038303982000797987
1761378694232805000,4.13980517578125,0.00009992343257181346,-0.0001498851488577202,0.00016653904458507895
1761378694242850800,4.149850830078125,0.00011657733557512984,-0.0002165007608709857,0.0001498851488577202
1761378694252878800,4.15987890625,-0.0007494257297366858,-0.0002165007608709857,0.0001498851488577202
1761378694262903000,4.169903076171875,-0.0015987749211490154,0.00016653904458507895,-0.0006328483577817678
1761378694272929000,4.179928955078125,-0.0002997702977154404,0.0007161179091781378,0.00011657733557512984
1761378694282955000,4.189955078125,0.00009992343257181346,-0.0006328483577817678,0.0002831163874361664
1761378694292978700,4.199978759765625,-0.00018319295486435294,-0.00044965543202124536,-0.00038303982000797987
1761378694303004400,4.21000439453125,0.0002165007608709857,0.0005995405954308808,0
1761378694313030100,4.220030029296875,-0.0003330780891701579,0.00003330780964461155,-0.0011324655497446656
1761378694323055900,4.230055908203125,-0.0003663859097287059,-0.0002165007608709857,0.00003330780964461155
1761378694333082000,4.24008203125,0.000016653904822305776,0.0002997702977154404,-0.0004330015217419714
1761378694343106800,4.25010693359375,-0.00039969373028725386,-0.00018319295486435294,-0.0005995405954308808
1761378694353132800,4.2601328125,-0.0004163476114626974,-0.0002664624771568924,0.00008326952229253948
1761378694363141600,4.2701416015625,-0.0002664624771568924,0.00003330780964461155,0.0000666156192892231
1761378694373189000,4.280189208984375,-0.00038303982000797987,-0.00039969373028725386,-0.0006328483577817678
1761378694383197000,4.290197021484375,-0.00019984686514362693,-0.0006495022680610418,-0.0003164241788908839
1761378694393259800,4.300259765625,0.0001498851488577202,0.0004330015217419714,0.00046630934230051935
1761378694403243500,4.310243408203125,0.0004163476114626974,0.0007827335502952337,-0.0002664624771568924
1761378694413286100,4.3202861328125,-0.00009992343257181346,-0.0003663859097287059,-0.000016653904822305776
1761378694423312100,4.33031201171875,0.00024980856687761843,0.0009159647743217647,0.0004330015217419714
1761378694433316600,4.340316650390625,0.0005995405954308808,0.0001498851488577202,-0.0001332312385784462
1761378694443363300,4.35036328125,0.0008160413126461208,0,0.0005828866851516068
1761378694453389000,4.36038916015625,0.00004996171628590673,0.0006994639988988638,-0.00024980856687761843
1761378694463414500,4.37041455078125,-0.0003663859097287059,0.0000666156192892231,0.0002997702977154404
1761378694473440000,4.38043994140625,-0.0007494257297366858,-0.00008326952229253948,-0.00004996171628590673
1761378694483465700,4.3904658203125,-0.0008993108640424907,0.0003663859097287059,-0.0000666156192892231
1761378694493491200,4.4004912109375,-0.0008993108640424907,-0.00009992343257181346,0.0005329249543137848
1761378694503517000,4.410516845703125,-0.0006661561783403158,0.0006828100886195898,0.0003164241788908839
1761378694513543200,4.420543212890625,-0.0005495788645930588,0.0006661561783403158,0.0003330780891701579
1761378694523568600,4.430568603515625,0.0001332312385784462,0.00024980856687761843,-0.0004163476114626974
1761378694533573400,4.440573486328125,-0.00018319295486435294,-0.0003497319994494319,-0.00048296325257979333
1761378694543619300,4.450619384765625,0.0001332312385784462,0.0007827335502952337,0.0004163476114626974
1761378694553645000,4.46064501953125,0.0003663859097287059,0.0002831163874361664,0.00009992343257181346
1761378694563654100,4.470654052734375,-0.0002664624771568924,0.00004996171628590673,-0.0006661561783403158
1761378694573674800,4.4806748046875,0,0.00039969373028725386,-0.00023315467115025967
1761378694583722800,4.49072265625,-0.00039969373028725386,-0.0006161945057101548,-0.00019984686514362693
1761378694593747700,4.500747802734375,-0.00019984686514362693,-0.0007327718194574118,0.00039969373028725386
1761378694603754200,4.510754150390625,-0.0006661561783403158,0.00046630934230051935,-0.00004996171628590673
1761378694613786600,4.52078662109375,-0.0007161179091781378,-0.0002997702977154404,-0.0003330780891701579
1761378694623825400,4.530825439453125,0.00019984686514362693,-0.0004330015217419714,-0.00004996171628590673
1761378694633829400,4.540829345703125,-0.0005995405954308808,0.0012157351011410356,0.00011657733557512984
1761378694643878400,4.55087841796875,-0.0005162710440345109,-0.0007993874605745077,0.0000666156192892231
1761378694653902800,4.56090283203125,-0.00011657733557512984,-0.0004163476114626974,0.00048296325257979333
1761378694663928300,4.57092822265625,0.0001332312385784462,0.0006828100886195898,-0.00008326952229253948
1761378694673954800,4.580954833984375,-0.00019984686514362693,0.0003330780891701579,0.0002664624771568924
1761378694683978500,4.590978515625,0,0.0007161179091781378,-0.0004163476114626974
1761378694694004000,4.60100390625,-0.0001498851488577202,0.0010491959983482957,-0.0000666156192892231
1761378694704029700,4.61102978515625,0.00016653904458507895,0.00008326952229253948,-0.0001498851488577202
1761378694714055200,4.62105517578125,0.000016653904822305776,-0.00039969373028725386,0.00019984686514362693
1761378694724081000,4.631080810546875,-0.0004330015217419714,0.000016653904822305776,-0.0007161179091781378
1761378694734076700,4.64107666015625,-0.00018319295486435294,0.00019984686514362693,0.00023315467115025967
1761378694744132000,4.651132080078125,-0.00024980856687761843,-0.00038303982000797987,0.0001498851488577202
1761378694754161000,4.661160888671875,-0.0007494257297366858,-0.0002831163874361664,-0.0002165007608709857
1761378694764166000,4.671165771484375,-0.0004996171337552369,-0.00018319295486435294,0.00019984686514362693
1761378694774196700,4.68119677734375,-0.0009159647743217647,-0.0002997702977154404,-0.0000666156192892231
1761378694784260400,4.69126025390625,-0.0008493491332046688,0.0003497319994494319,0.00016653904458507895
1761378694794261200,4.70126123046875,0.00038303982000797987,0.0006994639988988638,0
1761378694804286200,4.7112861328125,0.0007494257297366858,-0.00023315467115025967,0.00009992343257181346
1761378694814312000,4.72131201171875,0.0015155053697526455,0.0003164241788908839,0.00016653904458507895
1761378694824337200,4.731337158203125,-0.0000666156192892231,0.0009159647743217647,-0.00018319295486435294
1761378694834363000,4.74136279296875,-0.0006161945057101548,0.00016653904458507895,0.0002664624771568924
1761378694844388900,4.751388916015625,-0.0006828100886195898,-0.0002997702977154404,0.0003164241788908839
1761378694854414000,4.7614140625,-0.0006328483577817678,-0.0005828866851516068,-0.0004330015217419714
1761378694864439800,4.771439697265625,-0.0002997702977154404,-0.0008660030434839427,0.0005662327748723328
1761378694874465500,4.781465576171875,-0.0010991577291861176,-0.0008660030434839427,0.00009992343257181346
1761378694884491300,4.7914912109375,-0.0001498851488577202,-0.00024980856687761843,0.0006495022680610418
1761378694894479600,4.801479736328125,0.0001332312385784462,-0.0002664624771568924,-0.00009992343257181346
1761378694904542500,4.81154248046875,-0.00039969373028725386,0.0003497319994494319,0.0000666156192892231
1761378694914568000,4.82156787109375,0.0005329249543137848,0.0007993874605745077,0
1761378694924593700,4.83159375,0.0009659265051595867,0.0003497319994494319,-0.00038303982000797987
1761378694934598400,4.841598388671875,0.0005995405954308808,-0.0006661561783403158,-0.00016653904458507895
1761378694944623900,4.851623779296875,0.00018319295486435294,-0.00003330780964461155,-0.00008326952229253948
1761378694954670600,4.861670654296875,0.0003164241788908839,0.0005995405954308808,0.0007993874605745077
1761378694964675300,4.87167529296875,0.0007327718194574118,0.0002165007608709857,0.0003330780891701579
1761378694974721500,4.881721435546875,0.0006161945057101548,0.0002831163874361664,-0.00024980856687761843
1761378694984710400,4.89171044921875,-0.0004163476114626974,0.00011657733557512984,0.00044965543202124536
1761378694994773200,4.901773193359375,-0.0008493491332046688,-0.00046630934230051935,0.0005329249543137848
1761378695004799000,4.911799072265625,-0.00048296325257979333,0.00003330780964461155,0.0002165007608709857
1761378695014824200,4.92182421875,-0.0008660030434839427,-0.00044965543202124536,0.0005995405954308808
1761378695024850200,4.93185009765625,-0.0004330015217419714,-0.0008660030434839427,0.00011657733557512984
1761378695034878500,4.94187841796875,-0.0008660030434839427,-0.0003497319994494319,-0.00009992343257181346
1761378695044902400,4.95190234375,-0.0002997702977154404,0.0004163476114626974,0.0004330015217419714
1761378695054928100,4.96192822265625,-0.00023315467115025967,0.00009992343257181346,-0.0001498851488577202
1761378695064971500,4.971971435546875,0.0005495788645930588,-0.000016653904822305776,-0.000016653904822305776
1761378695074978300,4.981978271484375,0.0004996171337552369,0.0010325420880690217,-0.00004996171628590673
1761378695085003800,4.992003662109375,0.0006161945057101548,0.0001332312385784462,-0.00024980856687761843
1761378695094988000,5.001988037109375,0.0005495788645930588,-0.00008326952229253948,-0.0005162710440345109
1761378695105055000,5.012054931640625,0.0003497319994494319,0.0002997702977154404,-0.00003330780964461155
1761378695115046100,5.022046142578125,0.0001332312385784462,0.00004996171628590673,0.0006828100886195898
1761378695125106400,5.0321064453125,-0.0004996171337552369,-0.00019984686514362693,-0.0000666156192892231
1761378695135113000,5.042113037109375,-0.0004996171337552369,0.0002664624771568924,-0.0002831163874361664
1761378695145161500,5.052161376953125,-0.0009159647743217647,-0.0010491959983482957,0.00044965543202124536
1761378695155187700,5.062187744140625,-0.0010658499086275697,-0.0009659265051595867,0.00039969373028725386
1761378695165198000,5.072197998046875,-0.0001498851488577202,-0.0003497319994494319,0.0006661561783403158
1761378695175213800,5.0822138671875,-0.0003663859097287059,-0.00019984686514362693,0.00048296325257979333
1761378695185260000,5.092260009765625,0.00044965543202124536,0.00003330780964461155,-0.00046630934230051935
1761378695195285500,5.102285400390625,-0.0002664624771568924,0.00024980856687761843,-0.0011824272805824876
1761378695205311200,5.112311279296875,0.0005162710440345109,0.0000666156192892231,-0.0005828866851516068
1761378695215337000,5.1223369140625,0.0004996171337552369,0.00018319295486435294,-0.0008826569537632167
1761378695225362400,5.132362548828125,-0.0003330780891701579,0.0010325420880690217,0.00019984686514362693
1761378695235388200,5.14238818359375,-0.000016653904822305776,0.0005162710440345109,0.00011657733557512984
1761378695245413400,5.152413330078125,-0.0001498851488577202,-0.0005995405954308808,0.0006495022680610418
1761378695255439600,5.162439697265625,-0.0008160413126461208,0.00009992343257181346,0.0008660030434839427
1761378695265429800,5.1724296875,-0.0007327718194574118,0.0003330780891701579,0.0008826569537632167
1761378695275491800,5.182491943359375,-0.0006328483577817678,-0.0002165007608709857,0.0008826569537632167
1761378695285517800,5.192517822265625,-0.00048296325257979333,-0.0003663859097287059,0.0000666156192892231
1761378695295566300,5.20256640625,-0.0010491959983482957,0.00019984686514362693,0.00016653904458507895
1761378695305569000,5.212569091796875,-0.0003497319994494319,-0.0010658499086275697,0.00046630934230051935
1761378695315594800,5.2225947265625,-0.00019984686514362693,0.000016653904822305776,0.00038303982000797987
1761378695325620200,5.2326201171875,0,0.00039969373028725386,0.00044965543202124536
1761378695335647500,5.2426474609375,0.0010825038189068437,0.0002664624771568924,-0.0005662327748723328
1761378695345671700,5.252671630859375,0.00046630934230051935,0.0003164241788908839,-0.0005662327748723328
1761378695355697400,5.262697509765625,0.0003497319994494319,-0.0002165007608709857,-0.0002831163874361664
1761378695365692200,5.272692138671875,0.0001498851488577202,-0.0000666156192892231,-0.0004163476114626974
1761378695375748000,5.282748046875,0.0002831163874361664,-0.0000666156192892231,-0.0002831163874361664
1761378695385774600,5.292774658203125,0.0002831163874361664,-0.00003330780964461155,-0.00024980856687761843
1761378695395800000,5.302800048828125,-0.00004996171628590673,0.00038303982000797987,0.0008160413126461208
1761378695405826300,5.312826416015625,-0.0003164241788908839,-0.0002664624771568924,-0.000016653904822305776
1761378695415852300,5.322852294921875,-0.0007161179091781378,-0.0003497319994494319,0.0003497319994494319
1761378695425880300,5.33288037109375,-0.0014988514594733715,0.00008326952229253948,0.0006161945057101548
1761378695435906300,5.34290625,-0.0008826569537632167,-0.0009492725948803127,0.0008493491332046688
1761378695445931000,5.352930908203125,-0.0009825803572311997,-0.00008326952229253948,0.0009659265051595867
1761378695455952600,5.36295263671875,-0.0004330015217419714,0.0008493491332046688,0.0010158881777897477
1761378695465961700,5.372961669921875,-0.0005162710440345109,-0.0005995405954308808,0.0005828866851516068
1761378695475982800,5.38298291015625,-0.00018319295486435294,0.00009992343257181346,-0.0008660030434839427
1761378695486030800,5.39303076171875,0.0005662327748723328,0.0005329249543137848,0.0002664624771568924
1761378695496045300,5.40304541015625,0.00009992343257181346,0.00008326952229253948,-0.00004996171628590673
1761378695506082800,5.413082763671875,0.0005995405954308808,0.0007161179091781378,0.0003164241788908839
1761378695516107800,5.423107666015625,-0.000016653904822305776,0.0013489662669599056,-0.0003330780891701579
1761378695526133500,5.433133544921875,-0.0012823506258428097,-0.0005162710440345109,-0.0008160413126461208
1761378695536162000,5.443162109375,-0.0006661561783403158,0.00009992343257181346,-0.0009992342675104737
1761378695546191400,5.45319140625,-0.0008326952229253948,0.0003663859097287059,0.00023315467115025967
1761378695556201000,5.463200927734375,-0.0006661561783403158,-0.0017320060869678855,0.0006328483577817678
1761378695566214000,5.4732138671875,-0.0009659265051595867,-0.0008160413126461208,0.0005662327748723328
1761378695576270600,5.4832705078125,-0.0007827335502952337,0.00048296325257979333,0.0001498851488577202
1761378695586287400,5.493287353515625,-0.00023315467115025967,0.0006828100886195898,0.0005662327748723328
1761378695596290300,5.503290283203125,-0.0001498851488577202,0.0003663859097287059,0.0002831163874361664
1761378695606339300,5.51333935546875,-0.0002831163874361664,0.0007827335502952337,0.00048296325257979333
1761378695616364300,5.5233642578125,0.00008326952229253948,-0.0005329249543137848,-0.0007660796400159597
1761378695626390000,5.53339013671875,0.00038303982000797987,0.0005495788645930588,0.00016653904458507895
1761378695636415000,5.5434150390625,0.00011657733557512984,0.0008493491332046688,-0.0002997702977154404
1761378695646420200,5.553420166015625,-0.00004996171628590673,-0.00019984686514362693,-0.00016653904458507895
1761378695656466700,5.563466796875,-0.0003164241788908839,-0.0007660796400159597,0.000016653904822305776
1761378695666492400,5.573492431640625,-0.00018319295486435294,-0.0006161945057101548,0.0004330015217419714
1761378695676517400,5.583517333984375,-0.0005162710440345109,-0.0003164241788908839,0.000016653904822305776
1761378695686543400,5.59354345703125,-0.0005828866851516068,0.00039969373028725386,0.0001498851488577202
1761378695696569900,5.60356982421875,-0.0009159647743217647,-0.0004163476114626974,-0.00008326952229253948
1761378695706593800,5.61359375,0.0001498851488577202,0.00004996171628590673,-0.00038303982000797987
1761378695716619800,5.623619873046875,-0.00046630934230051935,0.0006161945057101548,-0.0006495022680610418
1761378695726645200,5.633645263671875,-0.00003330780964461155,0.0002664624771568924,-0.000016653904822305776
1761378695736672300,5.64367236328125,0.0003330780891701579,0.0006994639988988638,-0.00039969373028725386
1761378695746668300,5.653668212890625,0.0003164241788908839,0.0006328483577817678,-0.00048296325257979333
1761378695756722700,5.66372265625,0.00048296325257979333,0.0001332312385784462,-0.0001332312385784462
1761378695766749400,5.67374951171875,-0.00023315467115025967,-0.00008326952229253948,0.00044965543202124536
1761378695776751600,5.683751708984375,0.00011657733557512984,0.0003497319994494319,0.0002664624771568924
1761378695786800400,5.69380029296875,-0.0006328483577817678,0,-0.00011657733557512984
1761378695796799700,5.7037998046875,-0.000016653904822305776,-0.0002664624771568924,0.0002997702977154404
1761378695806852600,5.7138525390625,-0.0007327718194574118,-0.00008326952229253948,-0.00011657733557512984
1761378695816880000,5.723880126953125,-0.0005329249543137848,-0.00048296325257979333,0.00038303982000797987
1761378695826888200,5.73388818359375,-0.0005495788645930588,-0.0003663859097287059,0.0002664624771568924
1761378695836931800,5.743931884765625,0.00011657733557512984,0.00008326952229253948,0.00004996171628590673
1761378695846953700,5.75395361328125,0.0000666156192892231,-0.00009992343257181346,-0.0006661561783403158
1761378695856979700,5.763979736328125,-0.0002165007608709857,0.0005495788645930588,0.0002165007608709857
1761378695867026200,5.774026123046875,0.00038303982000797987,-0.0002165007608709857,-0.00004996171628590673
1761378695877030100,5.784030029296875,0.00018319295486435294,-0.00046630934230051935,0.0009992342675104737
1761378695887056400,5.794056396484375,0.00011657733557512984,-0.0003330780891701579,-0.00024980856687761843
1761378695897082400,5.804082275390625,0.0001498851488577202,0.00004996171628590673,-0.0011657733703032136
1761378695907110700,5.814110595703125,-0.00023315467115025967,-0.0005495788645930588,-0.0002165007608709857
1761378695917133000,5.824133056640625,0.0002165007608709857,-0.0005162710440345109,-0.0005329249543137848
1761378695927163100,5.8341630859375,0.0006328483577817678,-0.0006828100886195898,0.0000666156192892231
1761378695937192700,5.844192626953125,-0.0001332312385784462,0.00009992343257181346,-0.0005329249543137848
1761378695947199500,5.854199462890625,0.00016653904458507895,-0.0006828100886195898,-0.00008326952229253948
1761378695957214000,5.8642138671875,0.00018319295486435294,-0.0006994639988988638,0.00003330780964461155
1761378695967263200,5.87426318359375,0.0005329249543137848,-0.0008326952229253948,-0.00044965543202124536
1761378695977287000,5.884286865234375,0.00009992343257181346,0.00048296325257979333,0.0009492725948803127
1761378695987326500,5.894326416015625,0.0005495788645930588,0.0005995405954308808,0.00044965543202124536
1761378695997316600,5.904316650390625,0.0001332312385784462,-0.00003330780964461155,-0.00046630934230051935
1761378696007363000,5.914363037109375,0.0008993108640424907,-0.0007993874605745077,0.0002664624771568924
1761378696017388500,5.924388427734375,0.0001332312385784462,0.0001498851488577202,0.00039969373028725386
1761378696027378200,5.934378173828125,0.00044965543202124536,-0.0002664624771568924,-0.0004996171337552369
1761378696037418000,5.94441796875,0.00019984686514362693,-0.0009326186846010387,-0.0004330015217419714
1761378696047466200,5.95446630859375,0.0004330015217419714,-0.0010158881777897477,-0.000016653904822305776
1761378696057492500,5.964492431640625,-0.00004996171628590673,-0.00008326952229253948,0.000016653904822305776
1761378696067518000,5.97451806640625,-0.00009992343257181346,0.0005662327748723328,0.00024980856687761843
1761378696077543400,5.98454345703125,0.0002997702977154404,-0.0002664624771568924,-0.0001332312385784462
1761378696087569000,5.99456884765625,0.00018319295486435294,0.0003164241788908839,-0.0003330780891701579
1761378696097594000,6.004593994140625,0.0005329249543137848,0.0003497319994494319,0.00016653904458507895
1761378696107619600,6.01461962890625,-0.000016653904822305776,0.0006495022680610418,-0.00044965543202124536
1761378696117645800,6.024645751953125,0.0003330780891701579,0.00004996171628590673,0.0005329249543137848
1761378696127638800,6.034638671875,0.0002997702977154404,0.00044965543202124536,0.0002664624771568924
1761378696137697000,6.044697021484375,-0.00004996171628590673,-0.00011657733557512984,0.0001332312385784462
1761378696147722800,6.05472265625,-0.0002997702977154404,0.00009992343257181346,0
1761378696157732900,6.06473291015625,-0.00018319295486435294,0.0001332312385784462,-0.0006161945057101548
1761378696167774200,6.074774169921875,-0.000016653904822305776,0.0004330015217419714,-0.0007827335502952337
1761378696177778200,6.084778076171875,-0.00024980856687761843,0.0008326952229253948,-0.0003497319994494319
1761378696187825400,6.094825439453125,-0.00044965543202124536,0.00044965543202124536,-0.0008493491332046688
1761378696197851600,6.1048515625,-0.0002831163874361664,0.0002997702977154404,-0.0002664624771568924
1761378696207881700,6.1148818359375,-0.00016653904458507895,-0.00046630934230051935,-0.0008660030434839427
1761378696217905200,6.1249052734375,-0.00038303982000797987,0.00018319295486435294,-0.000016653904822305776
1761378696227929600,6.1349296875,-0.0004996171337552369,-0.0004163476114626974,-0.0004163476114626974
1761378696237956900,6.144956787109375,-0.00038303982000797987,-0.0002664624771568924,0.00003330780964461155
1761378696247979300,6.154979248046875,-0.000016653904822305776,-0.00009992343257181346,0.0007161179091781378
1761378696258005000,6.1650048828125,-0.0001498851488577202,-0.00039969373028725386,0.0007827335502952337
1761378696268029200,6.175029296875,-0.0002165007608709857,-0.0001498851488577202,0.0006994639988988638
1761378696278082800,6.185082763671875,-0.00039969373028725386,0.0002165007608709857,0.0005995405954308808
1761378696288081700,6.19508154296875,0.00016653904458507895,0.00018319295486435294,0.0007327718194574118
1761378696298107400,6.205107421875,0.00019984686514362693,0.0005995405954308808,0.0004996171337552369
1761378696308127200,6.215127197265625,0.0001498851488577202,-0.00008326952229253948,0
1761378696318161700,6.22516162109375,0.000016653904822305776,0.00003330780964461155,-0.0001332312385784462
1761378696328190200,6.235190185546875,-0.0002664624771568924,-0.000016653904822305776,0.0003663859097287059
1761378696338200600,6.24520068359375,0.0007660796400159597,-0.00019984686514362693,-0.0007327718194574118
1761378696348248800,6.255248779296875,-0.0005995405954308808,-0.0004163476114626974,-0.0003497319994494319
1761378696358271000,6.26527099609375,-0.0008326952229253948,-0.0003164241788908839,0.0000666156192892231
1761378696368287000,6.275286865234375,-0.0000666156192892231,-0.00003330780964461155,0.00024980856687761843
1761378696378313500,6.2853134765625,-0.00019984686514362693,0.00003330780964461155,-0.0007827335502952337
1761378696388337700,6.295337646484375,0.000016653904822305776,0.00018319295486435294,-0.0008160413126461208
1761378696398362600,6.305362548828125,0.0002664624771568924,-0.0008993108640424907,-0.00038303982000797987
1761378696408388600,6.315388671875,-0.00009992343257181346,0.0007827335502952337,0.00046630934230051935
1761378696418413800,6.325413818359375,-0.00011657733557512984,-0.000016653904822305776,-0.0001498851488577202
1761378696428440300,6.3354404296875,0.0001332312385784462,-0.0015488131903111935,-0.0007161179091781378
1761378696438465300,6.34546533203125,-0.00023315467115025967,0.0002997702977154404,0.0003663859097287059
1761378696448491500,6.355491455078125,-0.00011657733557512984,-0.0005662327748723328,0.0003330780891701579
1761378696458517000,6.36551708984375,-0.0006661561783403158,-0.0007494257297366858,0.0005828866851516068
1761378696468543200,6.375543212890625,-0.0007161179091781378,0.0010158881777897477,0.00011657733557512984
1761378696478547200,6.385547119140625,-0.00003330780964461155,0.0010325420880690217,0.00003330780964461155
1761378696488594700,6.3955947265625,0.0007494257297366858,-0.0012157351011410356,0.0003330780891701579
1761378696498620400,6.405620361328125,-0.0001498851488577202,0.00023315467115025967,-0.0004163476114626974
1761378696508623400,6.415623291015625,0.0002664624771568924,0.00023315467115025967,0.0002831163874361664
1761378696518669800,6.425669921875,0.00044965543202124536,-0.0009659265051595867,0.0002831163874361664
1761378696528697000,6.435697021484375,-0.00038303982000797987,-0.0002165007608709857,0.0000666156192892231
1761378696538722600,6.44572265625,-0.0002664624771568924,0.00024980856687761843,-0.0006328483577817678
1761378696548725800,6.455725830078125,-0.0006828100886195898,-0.0006994639988988638,0.00038303982000797987
1761378696558774300,6.465774169921875,-0.0002831163874361664,0.0005329249543137848,0.0000666156192892231
1761378696568799200,6.47579931640625,-0.0005995405954308808,-0.00011657733557512984,-0.0002664624771568924
1761378696578825200,6.4858251953125,-0.0010158881777897477,-0.0008160413126461208,0.0001498851488577202
1761378696588851000,6.495850830078125,-0.0004330015217419714,-0.00039969373028725386,-0.0002165007608709857
1761378696598881800,6.5058818359375,-0.0005828866851516068,0.0002165007608709857,0.00044965543202124536
1761378696608903700,6.515903564453125,-0.00011657733557512984,-0.0006828100886195898,0.00044965543202124536
1761378696618931200,6.52593115234375,-0.0002664624771568924,-0.0007494257297366858,0.00023315467115025967
1761378696628956000,6.535955810546875,-0.0007161179091781378,0.00038303982000797987,0.00039969373028725386
1761378696638959400,6.54595947265625,-0.0003663859097287059,-0.0016820443561300635,0.0003663859097287059
1761378696649003800,6.556003662109375,-0.0008660030434839427,-0.0007327718194574118,0.0003497319994494319
1761378696659030800,6.56603076171875,-0.00004996171628590673,0.0000666156192892231,0.0001498851488577202
1761378696669056000,6.576055908203125,-0.000016653904822305776,-0.0002831163874361664,-0.00023315467115025967
1761378696679089000,6.5860888671875,-0.00016653904458507895,-0.00046630934230051935,0.00023315467115025967
1761378696689108500,6.5961083984375,-0.00039969373028725386,0.0003497319994494319,0.0001498851488577202
1761378696699132700,6.606132568359375,-0.0008326952229253948,-0.0008160413126461208,-0.00004996171628590673
1761378696709152000,6.616152099609375,-0.0005995405954308808,0.0001332312385784462,-0.0007494257297366858
1761378696719184600,6.6261845703125,-0.0008326952229253948,0.00016653904458507895,-0.0002831163874361664
1761378696729209600,6.636209716796875,-0.0011990811908617616,-0.0007161179091781378,-0.00039969373028725386
1761378696739235600,6.646235595703125,-0.0007161179091781378,-0.00023315467115025967,0.00004996171628590673
1761378696749261000,6.656260986328125,-0.00044965543202124536,0.00039969373028725386,0.00048296325257979333
1761378696759286000,6.6662861328125,-0.0003663859097287059,-0.00009992343257181346,-0.00019984686514362693
1761378696769312500,6.6763125,-0.0005995405954308808,0.0002664624771568924,0.00011657733557512984
1761378696779337700,6.686337646484375,-0.0006495022680610418,-0.0005329249543137848,0.000016653904822305776
1761378696789363000,6.696363037109375,-0.0005995405954308808,-0.0007161179091781378,-0.000016653904822305776
1761378696799389000,6.706388916015625,-0.0014655436389148235,-0.00003330780964461155,-0.00019984686514362693
1761378696809399600,6.716399658203125,0.00019984686514362693,-0.00023315467115025967,0.0005995405954308808
1761378696819441200,6.726441162109375,-0.0002664624771568924,-0.0005162710440345109,-0.00011657733557512984
1761378696829465600,6.736465576171875,-0.0002997702977154404,-0.0009326186846010387,-0.0008160413126461208
1761378696839454000,6.746453857421875,-0.0004996171337552369,-0.00003330780964461155,-0.0005162710440345109
1761378696849517600,6.756517578125,-0.0000666156192892231,-0.0005162710440345109,-0.0002664624771568924
1761378696859528000,6.76652783203125,0.0000666156192892231,-0.0000666156192892231,-0.00003330780964461155
1761378696869569000,6.776569091796875,0.0004996171337552369,0.0003663859097287059,-0.00018319295486435294
1761378696879594000,6.786593994140625,0.00008326952229253948,-0.0003663859097287059,-0.0006994639988988638
1761378696889600500,6.7966005859375,0.00019984686514362693,-0.0002831163874361664,0.00039969373028725386
1761378696899646000,6.80664599609375,-0.00044965543202124536,-0.0002997702977154404,0.00018319295486435294
1761378696909648400,6.8166484375,-0.0003663859097287059,-0.0006661561783403158,0.00016653904458507895
1761378696919697200,6.826697265625,-0.0005995405954308808,0.0003164241788908839,-0.00019984686514362693
1761378696929721900,6.836721923828125,0.00004996171628590673,0.0004330015217419714,0.0003164241788908839
1761378696939748000,6.846748046875,-0.00038303982000797987,0.0000666156192892231,0.0002165007608709857
1761378696949773600,6.856773681640625,-0.0003330780891701579,0.0005329249543137848,0.00008326952229253948
1761378696959799800,6.8667998046875,0.0004330015217419714,-0.0008160413126461208,-0.00038303982000797987
1761378696969825500,6.876825439453125,-0.0003164241788908839,-0.0002165007608709857,0.00023315467115025967
1761378696979827700,6.88682763671875,-0.0001498851488577202,0.00011657733557512984,-0.0005495788645930588
1761378696989876000,6.8968759765625,-0.00048296325257979333,-0.0004330015217419714,-0.00016653904458507895
1761378696999902000,6.90690185546875,0.00018319295486435294,-0.0003497319994494319,-0.0005995405954308808
1761378697009895700,6.916895751953125,-0.00016653904458507895,-0.0000666156192892231,-0.0004163476114626974
1761378697019953400,6.926953369140625,-0.0006328483577817678,-0.0004163476114626974,0.0003164241788908839
1761378697029979000,6.936978759765625,0,-0.0001498851488577202,-0.00018319295486435294
1761378697039996000,6.946995849609375,-0.0003330780891701579,0.0006328483577817678,-0.00046630934230051935
1761378697050029600,6.957029541015625,0.00048296325257979333,0.0002997702977154404,-0.0005662327748723328
1761378697060055000,6.967054931640625,-0.0003164241788908839,0.0001332312385784462,0.00011657733557512984
1761378697070081500,6.97708154296875,-0.00003330780964461155,-0.00016653904458507895,0.0002664624771568924
1761378697080106500,6.9871064453125,-0.00016653904458507895,0.00004996171628590673,0.00023315467115025967
1761378697090133000,6.997133056640625,0.0002664624771568924,-0.0004330015217419714,0.0002831163874361664
1761378697100158500,7.007158447265625,0.0004330015217419714,0.00039969373028725386,0.0009326186846010387
1761378697110184200,7.01718408203125,-0.0004163476114626974,-0.0008160413126461208,-0.0002165007608709857
1761378697120209700,7.027209716796875,0.0003330780891701579,-0.00011657733557512984,-0.0009326186846010387
1761378697130235100,7.037235107421875,0.0005828866851516068,-0.00004996171628590673,-0.00018319295486435294
1761378697140260600,7.047260498046875,0.0008160413126461208,-0.0002997702977154404,0.00024980856687761843
1761378697150286600,7.05728662109375,-0.00046630934230051935,0.0004996171337552369,0.00018319295486435294
1761378697160311600,7.0673115234375,0.00023315467115025967,0.00019984686514362693,-0.0002165007608709857
1761378697170337500,7.077337646484375,-0.0003330780891701579,-0.0002831163874361664,-0.0003497319994494319
1761378697180363800,7.08736376953125,-0.00048296325257979333,-0.0002831163874361664,-0.0007161179091781378
1761378697190365400,7.097365478515625,-0.0004996171337552369,-0.000016653904822305776,0.0005995405954308808
1761378697200414500,7.10741455078125,-0.0001498851488577202,-0.0010658499086275697,0.0000666156192892231
1761378697210440400,7.1174404296875,-0.0005329249543137848,0.00018319295486435294,0.0001498851488577202
1761378697220466000,7.1274658203125,-0.00011657733557512984,0.0005662327748723328,0.0005162710440345109
1761378697230492000,7.137491943359375,0.0001332312385784462,-0.00011657733557512984,0
1761378697240516600,7.1475166015625,-0.0003497319994494319,-0.0001332312385784462,0.00019984686514362693
1761378697250542300,7.157542236328125,0.00011657733557512984,0.0008826569537632167,0.0011324655497446656
1761378697260568000,7.167568115234375,-0.0006161945057101548,-0.00024980856687761843,0.0003164241788908839
1761378697270573000,7.177572998046875,-0.0008160413126461208,-0.0003330780891701579,0.0001332312385784462
1761378697280619800,7.187619873046875,-0.00008326952229253948,0.0002165007608709857,0.00038303982000797987
1761378697290645500,7.1976455078125,0.0006661561783403158,-0.00038303982000797987,0.00023315467115025967
1761378697300671000,7.2076708984375,0.000016653904822305776,0.0002997702977154404,-0.0003330780891701579
1761378697310696000,7.217696044921875,0.0006828100886195898,0.0004996171337552369,-0.0006661561783403158
1761378697320704300,7.227704345703125,0.0002664624771568924,0.0003164241788908839,-0.0010158881777897477
1761378697330748200,7.237748046875,0.0006328483577817678,0.0002997702977154404,-0.00044965543202124536
1761378697340773000,7.247773193359375,0.00016653904458507895,-0.0004163476114626974,0.00004996171628590673
1761378697350798300,7.25779833984375,-0.0004996171337552369,-0.0003330780891701579,0.00024980856687761843
1761378697360824600,7.267824462890625,0.0003164241788908839,-0.0006828100886195898,-0.0008993108640424907
1761378697370850000,7.27785009765625,0.00039969373028725386,0.0008660030434839427,0.00046630934230051935
1761378697380875500,7.28787548828125,0.0005995405954308808,0.0014655436389148235,0.0003330780891701579
1761378697390881800,7.2978818359375,0.00011657733557512984,-0.0008660030434839427,-0.00046630934230051935
1761378697400931000,7.30793115234375,0.0007161179091781378,0.00016653904458507895,0.000016653904822305776
1761378697410952000,7.317951904296875,0.0005329249543137848,0.00023315467115025967,0.00019984686514362693
1761378697420980000,7.32797998046875,0.0004163476114626974,-0.0005495788645930588,0.0012157351011410356
1761378697431003100,7.338003173828125,-0.0002165007608709857,0.0005995405954308808,0
1761378697441029600,7.348029541015625,0.00023315467115025967,0.0007327718194574118,-0.0002997702977154404
1761378697451055000,7.35805517578125,-0.00044965543202124536,-0.0009492725948803127,-0.0005495788645930588
1761378697461080600,7.36808056640625,0.00024980856687761843,0.00019984686514362693,-0.00048296325257979333
1761378697471107600,7.378107666015625,0.0004996171337552369,-0.0001498851488577202,0.00004996171628590673
1761378697481134300,7.38813427734375,0.0004996171337552369,-0.0007827335502952337,-0.0001498851488577202
1761378697491150000,7.398150146484375,0.0004330015217419714,-0.00004996171628590673,0.00011657733557512984
1761378697501182500,7.408182373046875,-0.0004996171337552369,0.0007494257297366858,-0.0005828866851516068
1761378697511208200,7.418208251953125,-0.0002664624771568924,-0.0005162710440345109,-0.0006328483577817678
1761378697521211600,7.428211669921875,-0.00009992343257181346,-0.0002165007608709857,-0.0001498851488577202
1761378697531261400,7.438261474609375,0.000016653904822305776,0.00044965543202124536,-0.0003663859097287059
1761378697541285400,7.448285400390625,0.0002664624771568924,-0.00024980856687761843,0.0001332312385784462
1761378697551311600,7.4583115234375,0.00019984686514362693,0.00003330780964461155,-0.00009992343257181346
1761378697561337600,7.468337646484375,0.00018319295486435294,0.003480666084215045,0.0037471286486834288
1761378697571362600,7.478362548828125,-0.0003497319994494319,0.026729516685009003,0.018818913027644157
1761378697581366300,7.4883662109375,-0.0003497319994494319,0.008510145358741283,0.002431470202282071
1761378697591414000,7.4984140625,0.0003663859097287059,-0.014905245043337345,0.012157350778579712
1761378697601439500,7.508439453125,-0.0005828866851516068,0.011874234303832054,0.003014356829226017
1761378697611465000,7.51846484375,-0.00018319295486435294,0.008626722730696201,0.0009825803572311997
1761378697621491000,7.528490966796875,0.00039969373028725386,-0.013289815746247768,-0.0003164241788908839
1761378697631516000,7.538515869140625,0.0007161179091781378,0.0011657733703032136,-0.007161179091781378
1761378697641542400,7.54854248046875,0.0004996171337552369,-0.002847817726433277,-0.009609303437173367
1761378697651547000,7.558546875,0.0012157351011410356,-0.027029287070035934,-0.014222434721887112
1761378697661593900,7.56859375,0.0012990045361220837,-0.007177833002060652,-0.002814509905874729
1761378697671619600,7.57861962890625,0,0.022066423669457436,0.0002664624771568924
