time,seconds_elapsed,z,y,x
1761379919697769500,0.08776953125,0.07291079312562943,-0.0547746941447258,0.011990811675786972
1761379919707807700,0.097807861328125,0.049828484654426575,-0.05757254734635353,0.027612173929810524
1761379919717831700,0.107831787109375,0.018635720014572144,-0.05480800196528435,0.04330015182495117
1761379919727868400,0.117868408203125,-0.00962595734745264,-0.053625572472810745,0.05730608478188515
1761379919737893600,0.1278935546875,-0.023765122517943382,-0.05169371888041496,0.058888208121061325
1761379919747920100,0.137920166015625,-0.018685681745409966,-0.027478942647576332,0.04216768592596054
1761379919757945300,0.1479453125,-0.00019984686514362693,0.01227392815053463,0.017836332321166992
1761379919767971300,0.157971435546875,0.014605474658310413,0.03627220541238785,-0.0038137442898005247
1761379919777997300,0.167997314453125,0.010708460584282875,0.03587251156568527,-0.010691806674003601
1761379919788022300,0.178022216796875,0.0007827335502952337,0.024431278929114342,-0.006944678258150816
1761379919798036700,0.18803662109375,-0.0004996171337552369,0.0074609494768083096,-0.0022482771892100573
1761379919808074000,0.198073974609375,0.006211906671524048,-0.0015987749211490154,-0.009692572988569736
1761379919818100000,0.208099853515625,0.01573793962597847,0.003047664649784565,-0.029660604894161224
1761379919828125000,0.218125,0.020351070910692215,0.01598774828016758,-0.05177699029445648
1761379919838151000,0.22815087890625,0.016187595203518867,0.021983154118061066,-0.0676148533821106
1761379919848171800,0.238171875,0.01547147799283266,0.025397205725312233,-0.07029613107442856
1761379919858205200,0.248205078125,0.04563169926404953,0.037554554641246796,-0.07709092646837234
1761379919868229000,0.25822900390625,0.07119544595479965,0.01317323837429285,-0.07855647057294846
1761379919878255600,0.268255615234375,0.06593281030654907,-0.0037304747384041548,-0.053375765681266785
1761379919888276200,0.278276123046875,0.05624023824930191,-0.019551685079932213,-0.013622893951833248
1761379919898307300,0.288307373046875,0.05967094004154205,-0.05828866735100746,0.017053598538041115
1761379919908329700,0.298329833984375,0.06450057029724121,-0.07549215108156204,0.03723813220858574
1761379919918348300,0.308348388671875,0.06200248748064041,-0.06971324235200882,0.0404023714363575
1761379919928363800,0.31836376953125,0.06548315286636353,-0.05777239426970482,0.024731049314141273
1761379919938407000,0.328406982421875,0.07172837108373642,-0.04223430156707764,0.004796324763447046
1761379919948421600,0.338421630859375,0.06972990185022354,-0.028211714699864388,-0.008876531384885311
1761379919958459400,0.34845947265625,0.05405857414007187,-0.01715352199971676,-0.0013323123566806316
1761379919968488000,0.358488037109375,0.03407388925552368,-0.011491194367408752,0.0210005734115839
1761379919978507800,0.3685078125,0.0210005734115839,-0.007094563450664282,0.041101835668087006
1761379919988522800,0.378522705078125,0.01928522251546383,-0.005562404170632362,0.05350899696350098
1761379919998559700,0.388559814453125,0.023432044312357903,-0.005129402503371239,0.053209226578474045
1761379920008592000,0.398591796875,0.027662135660648346,-0.011374616995453835,0.0412350669503212
1761379920018603000,0.40860302734375,0.03385739028453827,-0.018385911360383034,0.017636485397815704
1761379920028638500,0.418638427734375,0.042350880801677704,-0.017919601872563362,-0.00882656965404749
1761379920038664200,0.428664306640625,0.04837959259748459,-0.009142993949353695,-0.035339586436748505
1761379920048679200,0.43867919921875,0.04613131657242775,-0.00008326952229253948,-0.05499119311571121
1761379920058717200,0.44871728515625,0.02543051354587078,0.006361791864037514,-0.05344238132238388
1761379920068741600,0.45874169921875,-0.005146056413650513,0.003497319994494319,-0.03682178258895874
1761379920078756600,0.468756591796875,-0.017986217513680458,0.005029479041695595,-0.03322454169392586
1761379920088792800,0.478792724609375,0.0025480473414063454,0.0061785988509655,-0.04749693721532822
1761379920098819300,0.4888193359375,0.010092265903949738,0.02000133879482746,-0.06881393492221832
1761379920108833300,0.498833251953125,0.005279287695884705,0.03545616194605827,-0.07096228748559952
1761379920118870000,0.5088701171875,0.0019485069205984473,0.021633422002196312,-0.056806471198797226
1761379920128896300,0.518896240234375,0.004213437903672457,-0.004263399634510279,-0.030376723036170006
1761379920138921700,0.528921630859375,0.006578292232006788,-0.011308001354336739,0.002381508471444249
1761379920148947200,0.538947265625,0.009559341706335545,-0.010075611993670464,0.027412327006459236
1761379920158973000,0.548972900390625,0.013722817413508892,-0.005062786862254143,0.03946975618600845
1761379920168998400,0.558998291015625,0.01966826245188713,-0.003464012173935771,0.040102601051330566
1761379920179005700,0.569005615234375,0.020217839628458023,-0.009809150360524654,0.035589393228292465
1761379920189050000,0.579050048828125,0.015621363185346127,-0.020717456936836243,0.02797855995595455
1761379920199075800,0.589075927734375,0.015521439723670483,-0.02174999937415123,0.012040773406624794
1761379920209101300,0.599101318359375,0.02338208258152008,-0.007694104220718145,-0.008310298435389996
1761379920219122200,0.6091220703125,0.03652201220393181,0.011208077892661095,-0.027895290404558182
1761379920229153300,0.6191533203125,0.04058556631207466,0.02058422565460205,-0.04136829823255539
1761379920239179300,0.62917919921875,0.042317572981119156,0.017803024500608444,-0.03767113387584686
1761379920249198600,0.639198486328125,0.04426607862114906,0.0075608729384839535,-0.018319295719265938
1761379920259230700,0.649230712890625,0.03920329362154007,-0.013189892284572124,0.008610068820416927
1761379920269257200,0.65925732421875,0.03119276463985443,-0.025497129186987877,0.03685509040951729
1761379920279271700,0.669271728515625,0.027229133993387222,-0.03585585579276085,0.05564069747924805
1761379920289307000,0.679306884765625,0.022682618349790573,-0.04121841490268707,0.055174387991428375
1761379920299320300,0.6893203125,0.015438170172274113,-0.03723813220858574,0.034623466432094574
1761379920309363200,0.69936328125,0.014888591133058071,-0.01841921918094158,-0.002364854561164975
1761379920319383600,0.709383544921875,0.022765887901186943,0.0103087667375803,-0.0345735065639019
1761379920329409800,0.719409912109375,0.025863513350486755,0.03139261156320572,-0.041351646184921265
1761379920339435500,0.729435546875,0.021400267258286476,0.03379077464342117,-0.029244257137179375
1761379920349461200,0.739461181640625,0.01858575828373432,0.018102794885635376,-0.008510145358741283
1761379920359490300,0.749490234375,0.01886887475848198,-0.003197549842298031,0.010575229302048683
1761379920369518000,0.75951806640625,0.014289050363004208,-0.018069487065076828,0.023948315531015396
1761379920379518700,0.769518798828125,0.004113514441996813,-0.023981623351573944,0.026662901043891907
1761379920389567500,0.7795673828125,-0.003197549842298031,-0.017503254115581512,0.02204976975917816
1761379920399594200,0.78959423828125,-0.009775842539966106,-0.0061785988509655,0.012074081227183342
1761379920409615600,0.79961572265625,-0.011641079559922218,0.012806852348148823,0.006161944940686226
1761379920419640600,0.809640625,-0.01292342972010374,0.01737002283334732,0.004996171221137047
1761379920429666300,0.819666259765625,-0.01383939478546381,0.004396630916744471,0.0044799004681408405
1761379920439701000,0.829700927734375,-0.006928024347871542,-0.003547281725332141,0.0003663859097287059
1761379920449707500,0.83970751953125,0.0013489662669599056,-0.004413284827023745,-0.007794027682393789
1761379920459743200,0.8497431640625,0.004313361365348101,-0.004080206621438265,-0.016837097704410553
1761379920469769500,0.85976953125,0.0025980090722441673,-0.002864471636712551,-0.019851455464959145
1761379920479784000,0.869783935546875,-0.00592879019677639,-0.006211906671524048,-0.020067954435944557
1761379920489823000,0.879822998046875,-0.01325650792568922,-0.007927258498966694,-0.023848392069339752
1761379920499849000,0.889848876953125,-0.014855283312499523,-0.01014222763478756,-0.026396438479423523
1761379920509860900,0.89986083984375,-0.010491959750652313,-0.009642611257731915,-0.027279095724225044
1761379920519899400,0.9098994140625,-0.0037970903795212507,-0.003247511340305209,-0.025363897904753685
1761379920529917400,0.91991748046875,-0.002364854561164975,0.0020484302658587694,-0.021566806361079216
1761379920539949300,0.92994921875,-0.009276225231587887,-0.0022149693686515093,-0.014638782478868961
1761379920549963000,0.939962890625,-0.01653732731938362,-0.006062021479010582,-0.008227028883993626
1761379920559991000,0.949990966796875,-0.02095061168074608,-0.002847817726433277,-0.00687806261703372
1761379920570027800,0.96002783203125,-0.021883230656385422,0.007977220229804516,-0.005245979875326157
1761379920580042800,0.970042724609375,-0.019818147644400597,0.011557810008525848,-0.004280053544789553
1761379920590079200,0.980079345703125,-0.014039241708815098,0.010375382378697395,-0.006161944940686226
1761379920600103200,0.990103271484375,-0.004080206621438265,0.01277354545891285,-0.003314126981422305
1761379920610118000,1.000117919921875,0.0019651607144623995,0.005978751927614212,0.0044632465578615665
1761379920620155000,1.01015478515625,0.002814509905874729,-0.010575229302048683,0.010808384045958519
1761379920630181000,1.02018115234375,0.009176301769912243,-0.016437403857707977,0.011790964752435684
1761379920640196400,1.0301962890625,0.025896821171045303,-0.017969563603401184,0.00849349144846201
1761379920650233000,1.040233154296875,0.034007273614406586,-0.01945176161825657,0.003014356829226017
1761379920660259300,1.05025927734375,0.03892017528414726,-0.013323123566806316,0.002364854561164975
1761379920670284300,1.0602841796875,0.03857044503092766,-0.007843988947570324,0.008793261833488941
1761379920680314400,1.070314453125,0.03622224181890488,-0.00609532929956913,0.0197515320032835
1761379920690335000,1.0803349609375,0.03555608540773392,-0.006528330501168966,0.036921706050634384
1761379920700360400,1.0903603515625,0.036172281950712204,-0.01615428738296032,0.05042802542448044
1761379920710386200,1.10038623046875,0.029410796239972115,-0.03793759644031525,0.05577392876148224
1761379920720401700,1.110401611328125,0.020517610013484955,-0.0518602579832077,0.05119410157203674
1761379920730438400,1.1204384765625,0.012223966419696808,-0.042767226696014404,0.03643874451518059
1761379920740463400,1.13046337890625,0.003164242021739483,-0.01900210604071617,0.011174770072102547
1761379920750492000,1.140491943359375,-0.0000666156192892231,0.01458882074803114,-0.018935490399599075
1761379920760512800,1.1505126953125,0.0015987749211490154,0.039353176951408386,-0.044149503111839294
1761379920770525200,1.160525146484375,0.004230091813951731,0.041934531182050705,-0.05713954567909241
1761379920780568800,1.17056884765625,0.007777373772114515,0.027895290404558182,-0.05176033452153206
1761379920790582500,1.18058251953125,0.008526799269020557,0.00048296325257979333,-0.034756697714328766
1761379920800617200,1.1906171875,0.006128637120127678,-0.029743874445557594,-0.008643376640975475
1761379920810642400,1.200642333984375,-0.0015987749211490154,-0.05164375901222229,0.01425574254244566
1761379920820668700,1.210668701171875,-0.00662825396284461,-0.054458267986774445,0.024364663287997246
1761379920830704600,1.22070458984375,-0.007660796400159597,-0.03190888091921806,0.024714395403862
1761379920840719600,1.2307197265625,-0.008376914076507092,-0.003197549842298031,0.013040007092058659
1761379920850746000,1.24074609375,-0.008027181960642338,0.02229957841336727,0.0021483537275344133
1761379920860771600,1.250771484375,-0.004846286494284868,0.035173047333955765,-0.006328484043478966
1761379920870797000,1.260797119140625,-0.0009825803572311997,0.0337408110499382,-0.010924961417913437
1761379920880798000,1.2707978515625,0.0014488897286355495,0.01678713597357273,-0.009742534719407558
1761379920890848500,1.2808486328125,0.003930321428924799,-0.0038137442898005247,-0.004962863866239786
1761379920900863700,1.29086376953125,0.0053459033370018005,-0.019601646810770035,-0.005245979875326157
1761379920910900200,1.300900146484375,0.004363323096185923,-0.026896055787801743,-0.012823506258428097
1761379920920925200,1.31092529296875,0.0017320060869678855,-0.03470673784613609,-0.03022683784365654
1761379920930951700,1.32095166015625,0.003180895932018757,-0.02906106412410736,-0.049828484654426575
1761379920940977700,1.330977783203125,0.010108919814229012,-0.003031010739505291,-0.0633847638964653
1761379920951002600,1.341002685546875,0.010425344109535217,0.031076187267899513,-0.08140428364276886
1761379920961017600,1.351017578125,0.015071784146130085,0.023498659953475,-0.12110719829797745
1761379920971051500,1.361051513671875,0.01715352199971676,0.036472052335739136,-0.13507981598377228
1761379920981079800,1.371079833984375,0.024947550147771835,0.09999004751443863,-0.11775976419448853
1761379920991103000,1.38110302734375,0.023531967774033546,0.0609532929956913,-0.10450325161218643
1761379921001131500,1.391131591796875,0.025280628353357315,-0.005162710323929787,-0.05785566568374634
1761379921011156500,1.401156494140625,0.03712155297398567,-0.052243299782276154,0.03394065797328949
1761379921021183200,1.411183349609375,0.032874807715415955,-0.13074980676174164,0.12520405650138855
1761379921031205400,1.421205322265625,0.05549081042408943,-0.14951875805854797,0.18502488732337952
1761379921041234700,1.431234619140625,0.10388705879449844,-0.10222166776657104,0.22417820990085602
1761379921051260700,1.4412607421875,0.13514643907546997,-0.07445960491895676,0.2280585765838623
1761379921061261600,1.451261474609375,0.12518739700317383,-0.08303637057542801,0.21373622119426727
1761379921071310800,1.461310791015625,0.10185528546571732,-0.10238820314407349,0.20505952835083008
1761379921081350000,1.471349853515625,0.08453521877527237,-0.11004900187253952,0.16910375654697418
1761379921091365000,1.481365234375,0.08335279673337936,-0.10440333187580109,0.1239217072725296
1761379921101378000,1.4913779296875,0.08891519904136658,-0.07812346518039703,0.07535891979932785
1761379921111403500,1.501403564453125,0.09815811365842819,-0.057555895298719406,0.03798755630850792
1761379921121448400,1.511448486328125,0.09722549468278885,-0.042017802596092224,0.019468415528535843
1761379921131451000,1.521450927734375,0.08195386826992035,-0.02479766495525837,0.017753062769770622
1761379921141483500,1.5314833984375,0.05537423491477966,-0.015238323248922825,0.02396496944129467
1761379921151520500,1.5415205078125,0.026829440146684647,-0.011407924816012383,0.017919601872563362
1761379921161525200,1.551525146484375,0.015188361518085003,-0.0009825803572311997,-0.002764548175036907
1761379921171591400,1.56159130859375,0.01728675328195095,0.010025650262832642,-0.03593912720680237
1761379921181595100,1.57159521484375,0.0206175334751606,0.012423813343048096,-0.06846420466899872
1761379921191609000,1.581609130859375,0.01983480155467987,0.011407924816012383,-0.08843223750591278
1761379921201644500,1.59164453125,0.015221669338643551,0.01160777173936367,-0.09231259673833847
1761379921211670300,1.601670166015625,0.00962595734745264,0.01333977747708559,-0.08471841365098953
1761379921221686300,1.611686279296875,0.010092265903949738,0.01916864514350891,-0.07417649030685425
1761379921231702000,1.621701904296875,0.019385145977139473,0.024564510211348534,-0.06426741927862167
1761379921241737200,1.6317373046875,0.02867802418768406,0.02784532867372036,-0.05580723658204079
1761379921251773000,1.64177294921875,0.040185872465372086,0.027162518352270126,-0.04671420156955719
1761379921261789700,1.651789794921875,0.047030627727508545,0.014072549529373646,-0.03482331335544586
1761379921271825000,1.661824951171875,0.05017821490764618,-0.0016820443561300635,-0.01991806924343109
1761379921281850600,1.6718505859375,0.05827201157808304,-0.017103560268878937,-0.003064318560063839
1761379921291869700,1.68186962890625,0.05747262388467789,-0.02529728226363659,0.015005168505012989
1761379921301901600,1.691901611328125,0.05194352939724922,-0.016104325652122498,0.03244180604815483
1761379921311928300,1.70192822265625,0.046314507722854614,-0.0038303982000797987,0.04353330656886101
1761379921321944800,1.71194482421875,0.045365236699581146,0.0007827335502952337,0.04115179926156998
1761379921331978800,1.721978759765625,0.056007083505392075,0.003197549842298031,0.028744639828801155
1761379921342004500,1.73200439453125,0.06791462749242783,0.006428407039493322,0.017902947962284088
1761379921352030000,1.742030029296875,0.06716519594192505,0.0026812786236405373,0.006378445774316788
1761379921362045400,1.75204541015625,0.05629019811749458,-0.009992342442274094,-0.004013590980321169
1761379921372081700,1.76208154296875,0.04663093388080597,-0.010791730135679245,-0.014039241708815098
1761379921382108000,1.77210791015625,0.05122740939259529,-0.0038303982000797987,-0.018768951296806335
1761379921392114400,1.782114501953125,0.06148621812462807,0.002964395098388195,-0.016304172575473785
1761379921402148900,1.79214892578125,0.0709456354379654,0.011957503855228424,-0.0054125189781188965
1761379921412185300,1.802185302734375,0.07364356517791748,0.004779670853167772,0.009509379975497723
1761379921422212900,1.812212890625,0.06288514286279678,-0.018652373924851418,0.01908537559211254
1761379921432227300,1.822227294921875,0.0485960952937603,-0.0308929942548275,0.016920367255806923
1761379921442252800,1.832252685546875,0.03812078759074211,-0.020650841295719147,0.00048296325257979333
1761379921452292600,1.842292724609375,0.02667955495417118,0.01119142398238182,-0.025197358801960945
1761379921462301400,1.852301513671875,0.021350305527448654,0.08721649646759033,-0.04271726682782173
1761379921472338200,1.862338134765625,0.005112748593091965,0.055124424397945404,-0.07292745262384415
1761379921482364200,1.8723642578125,-0.01607101783156395,0.03678847476840019,-0.08140428364276886
1761379921492379400,1.88237939453125,-0.028578100726008415,0.05950440093874931,-0.07832331210374832
1761379921502405400,1.8924052734375,-0.03887021541595459,0.05527431145310402,-0.07977220416069031
1761379921512441600,1.902441650390625,-0.050128255039453506,0.06326818466186523,-0.08113782107830048
1761379921522457300,1.912457275390625,-0.05305933952331543,0.07322721928358078,-0.07600842416286469
1761379921532495600,1.92249560546875,-0.05544085055589676,0.07409322261810303,-0.068447545170784
1761379921542522400,1.9325224609375,-0.05815543606877327,0.06651569902896881,-0.05340907350182533
1761379921552530200,1.9425302734375,-0.05172702670097351,0.04856278747320175,-0.031409263610839844
1761379921562588200,1.952588134765625,-0.03552277758717537,0.024897588416934013,-0.012457121163606644
1761379921572593400,1.962593505859375,-0.01670386642217636,0.004946209955960512,0.00008326952229253948
1761379921582621400,1.972621337890625,0.003497319994494319,-0.01284016016870737,0.007427641656249762
1761379921592637200,1.98263720703125,0.013572932220995426,-0.024481240659952164,0.009093032218515873
1761379921602672600,1.992672607421875,0.014888591133058071,-0.027528904378414154,0.013456354849040508
1761379921612698400,2.002698486328125,0.003214203519746661,-0.02576358988881111,0.018102794885635376
1761379921622724000,2.01272412109375,-0.007660796400159597,-0.018718989565968513,0.025147397071123123
1761379921632750000,2.02275,-0.005162710323929787,-0.0020983919966965914,0.024980857968330383
1761379921642775000,2.032775146484375,0.005062786862254143,0.014189126901328564,0.018485834822058678
1761379921652791000,2.042791015625,0.013389739207923412,0.0238816998898983,0.014938552863895893
1761379921662826800,2.05282666015625,0.015404862351715565,0.01690371334552765,0.01995137706398964
1761379921672852200,2.062852294921875,0.013939318247139454,-0.0016320826252922416,0.027945252135396004
1761379921682877400,2.07287744140625,0.0173200611025095,-0.012940083630383015,0.03815409541130066
1761379921692904000,2.082904052734375,0.020634187385439873,-0.016054363921284676,0.04541520029306412
1761379921702919200,2.092919189453125,0.02025114744901657,-0.015621363185346127,0.044316042214632034
1761379921712943900,2.10294384765625,0.019102029502391815,-0.010325420647859573,0.03800421208143234
1761379921722969600,2.112969482421875,0.01756986975669861,-0.005229325965046883,0.027945252135396004
1761379921732996600,2.12299658203125,0.012973391450941563,-0.0075442190282046795,0.019485069438815117
1761379921743032000,2.133031982421875,0.012507082894444466,-0.012706929817795753,0.01252373680472374
1761379921753057800,2.143057861328125,0.014772013761103153,-0.028361599892377853,0.0072111408226192
1761379921763079000,2.153078857421875,0.012823506258428097,-0.03870367631316185,0.003930321428924799
1761379921773109200,2.163109130859375,0.006395099684596062,-0.034007273614406586,0.003014356829226017
1761379921783135200,2.17313525390625,-0.004846286494284868,-0.029244257137179375,-0.0021150459069758654
1761379921793164300,2.183164306640625,-0.012956737540662289,-0.01941845379769802,-0.013139930553734303
1761379921803188000,2.19318798828125,-0.01169104129076004,-0.005579058080911636,-0.02842821553349495
1761379921813214700,2.203214599609375,-0.006744831334799528,0.00634513795375824,-0.045981429517269135
1761379921823236400,2.213236328125,-0.00472970912232995,0.007860642857849598,-0.056506700813770294
1761379921833254100,2.223254150390625,-0.007660796400159597,-0.002364854561164975,-0.05715620145201683
1761379921843291000,2.233290771484375,-0.009559341706335545,-0.01202411949634552,-0.043433383107185364
1761379921853314600,2.243314453125,-0.01039203628897667,-0.01895214430987835,-0.014322358183562756
1761379921863339500,2.253339599609375,-0.019568338990211487,-0.04291711375117302,0.02241615578532219
1761379921873344500,2.263344482421875,-0.026946017518639565,-0.05335910990834236,0.040135908871889114
1761379921883391200,2.27339111328125,-0.021633422002196312,-0.037637826055288315,0.03807082772254944
1761379921893416700,2.283416748046875,-0.01425574254244566,-0.021150458604097366,0.01284016016870737
1761379921903443000,2.29344287109375,-0.010375382378697395,-0.012590352445840836,-0.02238284796476364
1761379921913452000,2.3034521484375,-0.0019984685350209475,-0.005745597183704376,-0.04981182888150215
1761379921923497700,2.313497802734375,0.010242151096463203,0.0002831163874361664,-0.062318913638591766
1761379921933520000,2.323519775390625,0.021650075912475586,-0.0022649310994893312,-0.057422664016485214
1761379921943524000,2.333524169921875,0.02513074316084385,-0.01252373680472374,-0.03727144002914429
1761379921953585700,2.343585693359375,0.020800726488232613,-0.02446458674967289,-0.0075775268487632275
1761379921963596000,2.353595947265625,0.01202411949634552,-0.027778713032603264,0.021899884566664696
1761379921973611800,2.36361181640625,0.004163476172834635,-0.023848392069339752,0.04178464785218239
1761379921983647700,2.373647705078125,-0.0012656967155635357,-0.024098200723528862,0.04654766246676445
1761379921993673500,2.383673583984375,-0.0019651607144623995,-0.026812786236405373,0.03945310041308403
1761379922003697000,2.39369677734375,0.00609532929956913,-0.02584685944020748,0.02579689770936966
1761379922013725000,2.403724853515625,0.012740237638354301,-0.021600114181637764,0.013656201772391796
1761379922023751400,2.41375146484375,0.013906010426580906,-0.01945176161825657,0.0021983154583722353
1761379922033777000,2.42377685546875,0.008443529717624187,-0.019151991233229637,-0.00472970912232995
1761379922043799600,2.433799560546875,-0.003330780891701579,-0.02329881303012371,-0.01244046725332737
1761379922053828600,2.44382861328125,-0.00857676099985838,-0.01883556693792343,-0.01941845379769802
1761379922063833000,2.4538330078125,-0.002797855995595455,-0.009326186962425709,-0.023198889568448067
1761379922073862100,2.463862060546875,0.004296707455068827,-0.0054125189781188965,-0.023015696555376053
1761379922083884300,2.47388427734375,0.006911370437592268,-0.008227028883993626,-0.015221669338643551
1761379922093910300,2.48391015625,0.0009159647743217647,-0.021516844630241394,-0.0021316998172551394
1761379922103944700,2.49394482421875,-0.011807618662714958,-0.042683959007263184,0.00929287914186716
1761379922113956600,2.50395654296875,-0.019684916362166405,-0.0510941818356514,0.004979517310857773
1761379922123976000,2.513975830078125,-0.017769716680049896,-0.042017802596092224,-0.010541921481490135
1761379922134010000,2.524010009765625,-0.01350631657987833,-0.02529728226363659,-0.03430704399943352
1761379922144045000,2.534045166015625,-0.009176301769912243,-0.010458651930093765,-0.05605704337358475
1761379922154070500,2.544070556640625,-0.005895482376217842,0.002981049008667469,-0.06728177517652512
1761379922164111600,2.554111572265625,-0.0074776033870875835,0.009575995616614819,-0.05958767235279083
1761379922174128000,2.564128173828125,-0.014239088632166386,0.008143759332597256,-0.037054937332868576
1761379922184159700,2.57415966796875,-0.02191653847694397,0.005229325965046883,-0.003663859097287059
1761379922194190000,2.584190185546875,-0.027445634827017784,-0.003430704353377223,0.026912709698081017
1761379922204213500,2.594213623046875,-0.024531202390789986,-0.011807618662714958,0.04180129989981651
1761379922214228700,2.604228759765625,-0.019151991233229637,-0.010841691866517067,0.04216768592596054
1761379922224267800,2.614267822265625,-0.014472243376076221,0.004413284827023745,0.03892017528414726
1761379922234292700,2.624292724609375,-0.012157350778579712,0.007144525181502104,0.04286715015769005
1761379922244306700,2.634306640625,-0.01828598789870739,-0.010924961417913437,0.0440828874707222
1761379922264368000,2.6543681640625,0.005029479041695595,-0.012290582060813904,0.02053426392376423
1761379922274389800,2.6643896484375,0.023448698222637177,0.003397396532818675,0.005112748593091965
1761379922284419600,2.674419677734375,0.029194295406341553,0.0019151991000398993,-0.0015654671005904675
1761379922294445300,2.6844453125,0.027878636494278908,-0.010491959750652313,-0.0012490428052842617
1761379922304473000,2.69447314453125,0.024564510211348534,-0.026496361941099167,0.005529096350073814
1761379922314501400,2.70450146484375,0.022649310529232025,-0.03543950989842415,0.010125573724508286
1761379922324523500,2.7145234375,0.02174999937415123,-0.03793759644031525,0.009842458181083202
1761379922334527700,2.72452783203125,0.020234493538737297,-0.03908671438694,0.003164242021739483
1761379922344592100,2.734592041015625,0.02396496944129467,-0.028961140662431717,-0.010941615328192711
1761379922354601700,2.744601806640625,0.04333345964550972,-0.0005329249543137848,-0.025746935978531837
1761379922364625200,2.754625244140625,0.06621592491865158,0.01916864514350891,-0.03482331335544586
1761379922374642400,2.764642333984375,0.07967227697372437,0.007144525181502104,-0.03482331335544586
1761379922384676400,2.77467626953125,0.08841557800769806,-0.02692936360836029,-0.02864471636712551
1761379922394701800,2.784701904296875,0.09237921237945557,-0.056256890296936035,-0.020983919501304626
1761379922404728000,2.79472802734375,0.08856546878814697,-0.0701129361987114,-0.018319295719265938
1761379922414753000,2.8047529296875,0.07953905314207077,-0.06708192825317383,-0.02011791616678238
1761379922424779000,2.814779052734375,0.06944677978754044,-0.05214337632060051,-0.022682618349790573
1761379922434805000,2.824804931640625,0.0643506869673729,-0.03235853835940361,-0.025913475081324577
1761379922444819700,2.83481982421875,0.06188591197133064,-0.017603177577257156,-0.026030052453279495
1761379922454845200,2.84484521484375,0.053842075169086456,-0.01612097956240177,-0.02313227392733097
1761379922464882700,2.854882568359375,0.0412350669503212,-0.022016461938619614,-0.017186829820275307
1761379922474909200,2.8649091796875,0.02671286277472973,-0.03545616194605827,-0.01628751866519451
1761379922484933000,2.87493310546875,0.014455589465796947,-0.043150268495082855,-0.026562977582216263
1761379922494959000,2.884958984375,0.00737767992541194,-0.026612939313054085,-0.046947356313467026
1761379922504974300,2.894974365234375,0.005096094682812691,0.0054458267986774445,-0.06866405159235
1761379922515010600,2.905010498046875,0.0016320826252922416,0.05723946914076805,-0.08889854699373245
1761379922525037300,2.915037353515625,-0.0012823506258428097,0.10458651930093765,-0.09566003084182739
1761379922535052500,2.925052490234375,-0.004263399634510279,0.1160777136683464,-0.08315294981002808
1761379922545089300,2.93508935546875,-0.013789433054625988,0.07077909260988235,-0.05289280042052269
1761379922555113200,2.94511328125,-0.027945252135396004,0.013622893951833248,-0.02363189123570919
1761379922565138700,2.955138671875,-0.03360757976770401,-0.027379019185900688,-0.003980283159762621
1761379922575165200,2.965165283203125,-0.039353176951408386,-0.042600687593221664,-0.009159647859632969
1761379922585180200,2.97518017578125,-0.043400075286626816,-0.030426684767007828,-0.029943721368908882
1761379922595218200,2.98521826171875,-0.04178464785218239,0.004263399634510279,-0.06148621812462807
1761379922605237200,2.9952373046875,-0.038936831057071686,0.0374879390001297,-0.0824701339006424
1761379922615269600,3.00526953125,-0.048329632729291916,0.053125955164432526,-0.07804019749164581
1761379922625296000,3.0152958984375,-0.07001301646232605,0.05967094004154205,-0.056806471198797226
1761379922635318800,3.02531884765625,-0.0884488895535469,0.05818874388933182,-0.03232523053884506
1761379922645333000,3.0353330078125,-0.09820807725191116,0.0662991926074028,-0.022149693220853806
1761379922655370200,3.045370361328125,-0.10168874263763428,0.0745595321059227,-0.023498659953475
1761379922665395500,3.0553955078125,-0.10673487931489944,0.06961332261562347,-0.03948640823364258
1761379922675419600,3.065419677734375,-0.10868338495492935,0.066432423889637,-0.05225995182991028
1761379922685447700,3.07544775390625,-0.10541921854019165,0.051410604268312454,-0.061019908636808395
1761379922695474700,3.085474609375,-0.09412787109613419,0.04922894388437271,-0.07056259363889694
1761379922705492200,3.0954921875,-0.07146190851926804,0.05665658414363861,-0.07402660697698593
1761379922715507700,3.1055078125,-0.042567379772663116,0.058471858501434326,-0.06223564222455025
1761379922725531600,3.11553173828125,-0.01966826245188713,0.042900457978248596,-0.036888398230075836
1761379922735577300,3.125577392578125,-0.0012823506258428097,0.006495022680610418,-0.0018152756383642554
1761379922745603300,3.135603271484375,0.008893185295164585,-0.03545616194605827,0.03427373617887497
1761379922755627800,3.145627685546875,0.009176301769912243,-0.07222798466682434,0.057089585810899734
1761379922765653800,3.15565380859375,0.00584552064538002,-0.07799023389816284,0.06306833773851395
1761379922775662300,3.165662353515625,0.0002831163874361664,-0.046364471316337585,0.04756355285644531
1761379922785705200,3.175705322265625,-0.006062021479010582,0.006894716527312994,0.018352603539824486
1761379922795732000,3.18573193359375,-0.00662825396284461,0.052659645676612854,-0.006778139155358076
1761379922805757400,3.19575732421875,-0.003330780891701579,0.07182829082012177,-0.017436638474464417
1761379922815784200,3.2057841796875,-0.003580589545890689,0.062318913638591766,-0.01284016016870737
1761379922825808000,3.215807861328125,-0.007094563450664282,0.055840544402599335,0.0010158881777897477
1761379922835834000,3.225834228515625,0.002964395098388195,0.11681048572063446,0.017686447128653526
1761379922845859300,3.235859375,-0.010941615328192711,0.02601339854300022,-0.01367285568267107
1761379922855885600,3.245885498046875,-0.012756891548633575,0.0054624807089567184,-0.030243491753935814
1761379922865910800,3.255910888671875,-0.0003497319994494319,0.013906010426580906,-0.042184341698884964
1761379922875918800,3.2659189453125,0.0003497319994494319,-0.002997702918946743,-0.06027048081159592
1761379922885962500,3.27596240234375,-0.0010825038189068437,-0.005895482376217842,-0.05051129311323166
1761379922895988200,3.28598828125,-0.0010825038189068437,-0.011291347444057465,-0.019851455464959145
1761379922906003200,3.296003173828125,-0.010358728468418121,-0.020401032641530037,0.016720520332455635
1761379922916039700,3.306039794921875,-0.01858575828373432,-0.017086906358599663,0.046147968620061874
1761379922926054000,3.316053955078125,-0.019901415333151817,-0.009775842539966106,0.06225229799747467
1761379922936067800,3.32606787109375,-0.020684149116277695,-0.00849349144846201,0.06070348247885704
1761379922946116400,3.336116455078125,-0.022349540144205093,-0.010158881545066833,0.045115429908037186
1761379922956142300,3.346142333984375,-0.02831163816154003,-0.015804555267095566,0.01628751866519451
1761379922966157800,3.35615771484375,-0.03215869143605232,-0.01632082648575306,-0.016520673409104347
1761379922976182300,3.366182373046875,-0.032874807715415955,-0.010458651930093765,-0.04731374233961105
1761379922986219500,3.376219482421875,-0.03069314733147621,0.003913667518645525,-0.07252775877714157
1761379922996244700,3.38624462890625,-0.024014931172132492,0.021433575078845024,-0.08704996109008789
1761379923006282800,3.39628271484375,-0.020650841295719147,0.035339586436748505,-0.09006431698799133
1761379923016296700,3.406296630859375,-0.02543051354587078,0.04371650144457817,-0.0823369026184082
1761379923026322700,3.41632275390625,-0.02496420405805111,0.05284284055233002,-0.06661561876535416
1761379923036347600,3.42634765625,-0.022815849632024765,0.05455819144845009,-0.04956202208995819
1761379923046373600,3.43637353515625,-0.021633422002196312,0.05127737298607826,-0.03039337694644928
1761379923056399600,3.446399658203125,-0.022232962772250175,0.035972435027360916,-0.008843223564326763
1761379923066424600,3.456424560546875,-0.024731049314141273,0.014205780811607838,0.015288284979760647
1761379923076439300,3.466439208984375,-0.02687940187752247,-0.008110451512038708,0.03480666130781174
1761379923086466000,3.476466064453125,-0.023848392069339752,-0.02901110239326954,0.04108518362045288
1761379923096501500,3.48650146484375,-0.010658498853445053,-0.03620558977127075,0.04015256464481354
1761379923106516500,3.4965166015625,0.0011491194600239396,-0.038803599774837494,0.03402392938733101
1761379923116553000,3.506552978515625,0.003264165250584483,-0.03903675451874733,0.023915007710456848
1761379923126579000,3.516578857421875,-0.00016653904458507895,-0.03538954630494118,0.006828100886195898
1761379923136590600,3.526590576171875,-0.0013822740875184536,-0.021600114181637764,-0.01628751866519451
1761379923146630700,3.536630615234375,-0.0012823506258428097,-0.012623660266399384,-0.028378253802657127
1761379923156657000,3.546656982421875,-0.019934723153710365,-0.023931661620736122,-0.048362940549850464
1761379923166670300,3.55667041015625,-0.013872702606022358,-0.015687977895140648,-0.05324253439903259
1761379923176707300,3.566707275390625,0.004979517310857773,0.00679479306563735,-0.04509877413511276
1761379923186732500,3.576732666015625,0.012740237638354301,0.012140696868300438,-0.03202546015381813
1761379923196759300,3.58675927734375,0.01628751866519451,0.003031010739505291,-0.013106622733175755
1761379923206773800,3.596773681640625,0.017270099371671677,-0.008793261833488941,0.00634513795375824
1761379923216798700,3.606798828125,0.014472243376076221,-0.01620424911379814,0.01970157027244568
1761379923226834700,3.616834716796875,0.01342304702848196,-0.017503254115581512,0.023148927837610245
1761379923236853500,3.626853515625,0.019185299053788185,-0.013989279977977276,0.01773640885949135
1761379923246887700,3.6368876953125,0.02609666809439659,-0.0012323890114203095,0.017636485397815704
1761379923256909300,3.646909423828125,0.026696208864450455,0.003214203519746661,0.024864280596375465
1761379923266939000,3.65693896484375,0.01953503116965294,-0.009692572988569736,0.030293453484773636
1761379923276953300,3.666953369140625,0.01210738904774189,-0.019884763285517693,0.03365754336118698
1761379923286990000,3.676989990234375,0.012823506258428097,-0.008426875807344913,0.036588627845048904
1761379923297015300,3.687015380859375,0.012940083630383015,0.0038637060206383467,0.03515639156103134
1761379923307030300,3.6970302734375,0.010075611993670464,0.012806852348148823,0.029627297073602676
1761379923317066800,3.707066650390625,0.013739471323788166,0.017586523666977882,0.019401799887418747
1761379923327092500,3.717092529296875,0.02000133879482746,0.014205780811607838,0.00737767992541194
1761379923337109200,3.727109130859375,0.02028445526957512,0.0015488131903111935,0.0014322358183562756
1761379923347132400,3.73713232421875,0.018652373924851418,-0.01878560520708561,0.0016487365355715156
1761379923357158700,3.74715869140625,0.01645405776798725,-0.03230857476592064,0.005245979875326157
1761379923367180000,3.757179931640625,0.009925727732479572,-0.023482006043195724,0.008643376640975475
1761379923377210000,3.767210205078125,0.0012823506258428097,-0.0053625572472810745,0.002764548175036907
1761379923387246300,3.777246337890625,-0.004113514441996813,0.006028713658452034,-0.012956737540662289
1761379923397261300,3.78726123046875,-0.009825804270803928,-0.0021150459069758654,-0.027961906045675278
1761379923407286500,3.79728662109375,-0.006661561783403158,-0.016304172575473785,-0.041268374770879745
1761379923417324000,3.807323974609375,0.0026479708030819893,-0.026612939313054085,-0.05139394849538803
1761379923427349800,3.817349853515625,0.010092265903949738,-0.036638591438531876,-0.0556073896586895
1761379923437365000,3.827364990234375,0.013622893951833248,-0.0379042886197567,-0.055507466197013855
1761379923447400700,3.837400634765625,0.014405627734959126,-0.02529728226363659,-0.05539088696241379
1761379923457427000,3.847427001953125,0.017170175909996033,-0.00832695234566927,-0.05447492375969887
1761379923467453000,3.857452880859375,0.019318530336022377,-0.0038303982000797987,-0.04559839144349098
1761379923477479000,3.86747900390625,0.027812020853161812,-0.0002664624771568924,-0.02379843033850193
1761379923487503600,3.877503662109375,0.03545616194605827,0.006278522312641144,0.017636485397815704
1761379923497519900,3.887519775390625,0.032874807715415955,-0.002831163816154003,0.06120309978723526
1761379923507555800,3.897555908203125,0.03364088758826256,-0.023315466940402985,0.0910802036523819
1761379923517580500,3.90758056640625,0.038603752851486206,-0.040602218359708786,0.09599310904741287
1761379923527613000,3.917613037109375,0.03953637182712555,-0.04121841490268707,0.07237786799669266
1761379923537611800,3.92761181640625,0.03595577925443649,-0.014988514594733715,0.033507656306028366
1761379923547657700,3.93765771484375,0.031709033995866776,0.023348774760961533,-0.004779670853167772
1761379923557684000,3.94768408203125,0.025830205529928207,0.05240983888506889,-0.0333910807967186
1761379923567707400,3.957707275390625,0.02454785630106926,0.06485030800104141,-0.04538189247250557
1761379923577735400,3.9677353515625,0.027995213866233826,0.06468376517295837,-0.040935296565294266
1761379923587760600,3.9777607421875,0.02806182950735092,0.04108518362045288,-0.017136868089437485
1761379923597787000,3.987786865234375,0.021316997706890106,-0.0012157351011410356,0.01695367507636547
1761379923607803100,3.99780322265625,0.013406393118202686,-0.03014356829226017,0.045698314905166626
1761379923617838000,4.007838134765625,-0.005112748593091965,-0.04393300041556358,0.05665658414363861
1761379923627863600,4.017863525390625,-0.0189188364893198,-0.03632216528058052,0.03702162951231003
1761379923637889500,4.0278896484375,-0.013389739207923412,-0.0021650076378136873,0.00832695234566927
1761379923647908000,4.037908203125,-0.008177067153155804,0.02501416578888893,-0.024531202390789986
1761379923657941000,4.04794091796875,-0.0037804364692419767,0.040019333362579346,-0.041101835668087006
1761379923667954200,4.0579541015625,0.0011824272805824876,0.04643108695745468,-0.030576569959521294
1761379923677991700,4.06799169921875,-0.0008660030434839427,0.033341117203235626,-0.004046898800879717
1761379923688020700,4.078020751953125,-0.00609532929956913,0.008959800936281681,0.030593223869800568
1761379923698043100,4.088043212890625,-0.011924196034669876,-0.019401799887418747,0.061103176325559616
1761379923708058000,4.09805810546875,-0.013706163503229618,-0.03662193566560745,0.07234456390142441
1761379923718094600,4.108094482421875,-0.012407159432768822,-0.03693836182355881,0.06756488978862762
1761379923728112600,4.118112548828125,-0.011724349111318588,-0.034640122205019,0.0515105277299881
1761379923738146000,4.12814599609375,-0.009842458181083202,-0.03085968643426895,0.03142591938376427
1761379923748171300,4.138171142578125,-0.006894716527312994,-0.023065658286213875,0.015721285715699196
1761379923758186000,4.14818603515625,0.0021983154583722353,-0.011507848277688026,0.010758422315120697
1761379923768219000,4.158218994140625,0.015687977895140648,0.0019151991000398993,0.019468415528535843
1761379923778249000,4.1682490234375,0.024564510211348534,0.0025813551619648933,0.03802086412906647
1761379923788278800,4.17827880859375,0.027279095724225044,-0.012823506258428097,0.056806471198797226
1761379923798300700,4.18830078125,0.029743874445557594,-0.026113322004675865,0.07252775877714157
1761379923808326100,4.198326171875,0.0317256897687912,-0.03470673784613609,0.08022186160087585
1761379923818341600,4.208341552734375,0.027295749634504318,-0.03916998580098152,0.08057159185409546
1761379923828377300,4.21837744140625,0.018635720014572144,-0.04216768592596054,0.07111217081546783
1761379923838402600,4.228402587890625,0.01269027590751648,-0.039519716054201126,0.05172702670097351
1761379923848417300,4.238417236328125,0.013373085297644138,-0.03382408246397972,0.02981049008667469
1761379923858454300,4.248454345703125,0.012457121163606644,-0.028861217200756073,0.006578292232006788
1761379923868468500,4.258468505859375,0.011041538789868355,-0.013872702606022358,-0.007177833002060652
1761379923878505700,4.268505615234375,0.01219065859913826,0.0026313168928027153,-0.006428407039493322
1761379923888503000,4.2785029296875,0.011657733470201492,0.005279287695884705,0.0021983154583722353
1761379923898557400,4.288557373046875,0.006644907873123884,-0.0019485069205984473,0.00979249645024538
1761379923908582700,4.298582763671875,0.0004996171337552369,-0.0053292494267225266,0.017519908025860786
1761379923918601700,4.308601806640625,-0.010908307507634163,-0.0094594182446599,0.016254210844635963
1761379923928633600,4.318633544921875,-0.020634187385439873,-0.00646171486005187,0.003563935635611415
1761379923938648000,4.32864794921875,-0.02263265661895275,0.012207312509417534,-0.018002871423959732
1761379923948685800,4.338685791015625,-0.017902947962284088,0.03778770938515663,-0.03344104066491127
1761379923958711300,4.348711181640625,-0.013556278310716152,0.058055512607097626,-0.03260834515094757
1761379923968737000,4.358737060546875,-0.006528330501168966,0.06593281030654907,-0.015504785813391209
1761379923978762200,4.36876220703125,0.004379977006465197,0.05502450093626976,0.010325420647859573
1761379923988776400,4.3787763671875,0.011141462251543999,0.03920329362154007,0.036305513232946396
1761379923998813700,4.388813720703125,0.019401799887418747,0.022199654951691628,0.04671420156955719
1761379924008839700,4.398839599609375,0.02806182950735092,-0.004080206621438265,0.046197932213544846
1761379924018854000,4.40885400390625,0.03560604900121689,-0.02316558174788952,0.043766461312770844
1761379924028879600,4.418879638671875,0.03773774951696396,-0.03357427194714546,0.039103370159864426
1761379924038917000,4.428917236328125,0.03382408246397972,-0.027528904378414154,0.03227526694536209
1761379924048941600,4.438941650390625,0.03347434848546982,-0.004679747391492128,0.02459781803190708
1761379924058968000,4.448968017578125,0.03538954630494118,0.021267035976052284,0.025780243799090385
1761379924068992800,4.45899267578125,0.026030052453279495,0.03202546015381813,0.03260834515094757
1761379924079020000,4.46902001953125,0.01039203628897667,0.02642974629998207,0.04571496695280075
1761379924089034800,4.47903466796875,0.0025980090722441673,0.01673717424273491,0.05629019811749458
1761379924099071500,4.489071533203125,0.006678215693682432,0.0010658499086275697,0.0560237355530262
1761379924109085700,4.499085693359375,0.013373085297644138,-0.015288284979760647,0.04396630823612213
1761379924119112700,4.50911279296875,0.015171707607805729,-0.03215869143605232,0.02111715078353882
1761379924129128400,4.51912841796875,0.013356431387364864,-0.04133499041199684,-0.008360260166227818
1761379924139164200,4.5291640625,0.011907542124390602,-0.033257849514484406,-0.03808747977018356
1761379924149188000,4.53918798828125,0.011507848277688026,-0.008859877474606037,-0.053842075169086456
1761379924159221200,4.54922119140625,0.0075109112076461315,0.01970157027244568,-0.054041922092437744
1761379924169250000,4.55925,0.0017153521766886115,0.04419946298003197,-0.039303217083215714
1761379924179279400,4.569279296875,-0.0027312403544783592,0.05114414170384407,-0.011741003021597862
1761379924189302000,4.579302001953125,-0.002881125546991825,0.030043644830584526,0.014638782478868961
1761379924199316200,4.589316162109375,0.0005495788645930588,-0.003230857430025935,0.03235853835940361
1761379924209342000,4.599342041015625,0.00646171486005187,-0.025746935978531837,0.03510643169283867
1761379924219376400,4.60937646484375,0.010158881545066833,-0.027945252135396004,0.018735643476247787
1761379924229404700,4.61940478515625,0.009242917411029339,-0.011158116161823273,-0.013522970490157604
1761379924239431000,4.629430908203125,0.0011990811908617616,0.012207312509417534,-0.055674005299806595
1761379924249444900,4.63944482421875,-0.011374616995453835,0.030909648165106773,-0.08826569467782974
1761379924259482400,4.649482421875,-0.017336715012788773,0.0431835763156414,-0.09737537801265717
1761379924269508000,4.659508056640625,-0.01383939478546381,0.04369984567165375,-0.08445195108652115
1761379924279533600,4.669533447265625,-0.00882656965404749,0.02120042033493519,-0.05713954567909241
1761379924289548800,4.679548828125,-0.008843223564326763,-0.003996937070041895,-0.029410796239972115
1761379924299582500,4.68958251953125,-0.008343606255948544,-0.01055857539176941,-0.012140696868300438
1761379924309610000,4.69960986328125,0.0013489662669599056,0.006528330501168966,-0.0044965543784201145
1761379924319629000,4.709629150390625,-0.0004163476114626974,0.006511676590889692,-0.0021816615480929613
1761379924329661200,4.7196611328125,-0.02196650020778179,-0.01119142398238182,-0.03399062156677246
1761379924339687700,4.729687744140625,-0.0218332689255476,0.01483862940222025,-0.0663658082485199
1761379924349708300,4.739708251953125,-0.0020650841761380434,0.06559973210096359,-0.08908173441886902
1761379924359739100,4.7497392578125,0.005562404170632362,0.10157216340303421,-0.10516940802335739
1761379924369741800,4.759741943359375,-0.005662327632308006,0.07507580518722534,-0.10481967777013779
1761379924379775500,4.769775390625,0.009659265168011189,0.06023717299103737,-0.08546783775091171
1761379924389816300,4.77981640625,0.01945176161825657,0.049611981958150864,-0.05422511324286461
1761379924399844900,4.789844970703125,0.014905245043337345,0.02792859822511673,-0.03189222887158394
1761379924409869000,4.799869140625,0.0025313934311270714,0.019851455464959145,0.006328484043478966
1761379924419882800,4.8098828125,-0.01623755693435669,-0.013806086964905262,0.023831738159060478
1761379924429918500,4.81991845703125,-0.01657063513994217,-0.03324119374155998,0.037471286952495575
1761379924439944200,4.829944091796875,-0.015155053697526455,-0.0271791722625494,0.03953637182712555
1761379924449982500,4.839982421875,-0.015105091966688633,-0.00979249645024538,0.033008038997650146
1761379924459996200,4.84999609375,-0.013989279977977276,0.008709992282092571,0.02776205912232399
1761379924470034700,4.86003466796875,-0.015338246710598469,0.0135895861312747,0.02216634713113308
1761379924480047600,4.870047607421875,-0.017136868089437485,0.01022549718618393,0.023515313863754272
1761379924490075000,4.880074951171875,-0.015854516997933388,0.0019818146247416735,0.03314127027988434
1761379924500098300,4.890098388671875,-0.013806086964905262,-0.011591117829084396,0.041851263493299484
1761379924510124000,4.9001240234375,-0.012057427316904068,-0.02371516078710556,0.04098526015877724
1761379924520150000,4.91014990234375,-0.00954268779605627,-0.02901110239326954,0.030243491753935814
1761379924530175700,4.92017578125,-0.0038137442898005247,-0.021866576746106148,0.016304172575473785
1761379924540201200,4.930201171875,-0.0002831163874361664,-0.006195252761244774,0.004296707455068827
1761379924550216700,4.940216796875,-0.0014155819080770016,0.005912136286497116,0.0015155053697526455
1761379924560252400,4.95025244140625,-0.004696401301771402,0.005479134619235992,0.005196018144488335
1761379924570278400,4.9602783203125,-0.003946975339204073,0.0002165007608709857,0.013622893951833248
1761379924580294100,4.970294189453125,-0.007027947809547186,-0.009775842539966106,0.02404823899269104
1761379924590329000,4.9803291015625,-0.020384378731250763,-0.020301109179854393,0.03244180604815483
1761379924600354800,4.990354736328125,-0.04138495400547981,-0.022932427003979683,0.03215869143605232
1761379924610381300,5.00038134765625,-0.052160028368234634,-0.005945444107055664,0.015188361518085003
1761379924620385800,5.0103857421875,-0.04546516016125679,0.026729516685009003,-0.008177067153155804
1761379924630432000,5.020431884765625,-0.028744639828801155,0.05122740939259529,-0.02701263315975666
1761379924640458500,5.03045849609375,-0.014122511260211468,0.059637632220983505,-0.032708268612623215
1761379924650484200,5.040484130859375,-0.0018152756383642554,0.051660411059856415,-0.016853751614689827
1761379924660490800,5.05049072265625,0.0007494257297366858,0.02662959322333336,0.01811944879591465
1761379924670535000,5.060534912109375,-0.007927258498966694,-0.008526799269020557,0.06196917966008186
1761379924680561000,5.070560791015625,-0.01811944879591465,-0.03389069810509682,0.09794161468744278
1761379924690586600,5.080586669921875,-0.022899119183421135,-0.04479900375008583,0.11133135110139847
1761379924700600800,5.090600830078125,-0.02075076475739479,-0.03828732669353485,0.09466079622507095
1761379924710617300,5.100617431640625,-0.012357197701931,-0.015754593536257744,0.06233556568622589
1761379924720663600,5.11066357421875,-0.004962863866239786,0.007144525181502104,0.03250842168927193
1761379924730679600,5.120679443359375,-0.005728943273425102,0.010425344109535217,0.01252373680472374
1761379924740704000,5.1307041015625,-0.011907542124390602,0.0026146629825234413,0.006278522312641144
1761379924750729000,5.14072900390625,-0.013489662669599056,0.0026979325339198112,0.013456354849040508
1761379924760766200,5.15076611328125,-0.014222434721887112,-0.011541156098246574,0.02291577309370041
1761379924770780700,5.16078076171875,-0.01861906610429287,-0.03327450156211853,0.022432809695601463
1761379924780817700,5.170817626953125,-0.02008460834622383,-0.03727144002914429,0.009742534719407558
1761379924790843000,5.1808427734375,-0.02070080302655697,-0.02579689770936966,-0.013289815746247768
1761379924800868400,5.190868408203125,-0.026163283735513687,-0.015604709275066853,-0.034790005534887314
1761379924810894800,5.200894775390625,-0.029860451817512512,0.002764548175036907,-0.04416615515947342
1761379924820920300,5.21092041015625,-0.029444104060530663,0.0255470909178257,-0.0383206345140934
1761379924830940000,5.22093994140625,-0.03842055797576904,0.03369085118174553,-0.0230490043759346
1761379924840972000,5.230971923828125,-0.05357561260461807,0.03837059810757637,-0.011491194367408752
1761379924850997200,5.240997314453125,-0.05815543606877327,0.05950440093874931,-0.011208077892661095
1761379924861010200,5.25101025390625,-0.05627354606986046,0.07377679646015167,-0.02476435713469982
1761379924871028500,5.261028564453125,-0.0630350261926651,0.06531661748886108,-0.03698832169175148
1761379924881063700,5.271063720703125,-0.07301072031259537,0.044649120420217514,-0.04558173567056656
1761379924891101200,5.28110107421875,-0.06783135235309601,0.03244180604815483,-0.04153483733534813
1761379924901102600,5.2911025390625,-0.05342572554945946,0.030193530023097992,-0.029743874445557594
1761379924911151600,5.301151611328125,-0.038104135543107986,0.024997511878609657,-0.013040007092058659
1761379924921165600,5.31116552734375,-0.022183001041412354,0.013406393118202686,0.006478368770331144
1761379924931187200,5.321187255859375,-0.008543453179299831,-0.002381508471444249,0.027079248800873756
1761379924941229000,5.33122900390625,0.007094563450664282,-0.016021056100726128,0.04353330656886101
1761379924951254500,5.341254638671875,0.028294984251260757,-0.03189222887158394,0.04748028144240379
1761379924961280000,5.351280029296875,0.05072779580950737,-0.05235987529158592,0.04316692054271698
1761379924971302700,5.361302734375,0.06741500645875931,-0.07072913646697998,0.03160911053419113
1761379924981320200,5.3713203125,0.0750424936413765,-0.07084570825099945,0.02116711251437664
1761379924991357000,5.38135693359375,0.06856412440538406,-0.05349234119057655,0.01953503116965294
1761379925001372000,5.391371826171875,0.04280053451657295,-0.03272492438554764,0.020151223987340927
1761379925011408400,5.401408447265625,0.014122511260211468,-0.007327718194574118,0.013123276643455029
1761379925021434600,5.4114345703125,-0.0037804364692419767,0.02646305412054062,-0.003330780891701579
1761379925031448800,5.42144873046875,-0.010991577059030533,0.06240218132734299,-0.023848392069339752
1761379925041485800,5.43148583984375,-0.021616768091917038,0.08536791801452637,-0.048446208238601685
1761379925051511000,5.441510986328125,-0.034207120537757874,0.08376914262771606,-0.06541653722524643
1761379925061530000,5.451530029296875,-0.048113130033016205,0.06313495337963104,-0.0637344941496849
1761379925071563300,5.461563232421875,-0.05860508978366852,0.03981948643922806,-0.049995023757219315
1761379925081588500,5.47158837890625,-0.05787231773138046,0.02538055181503296,-0.038720328360795975
1761379925091614200,5.4816142578125,-0.042317572981119156,0.02120042033493519,-0.03357427194714546
1761379925101630500,5.49163037109375,-0.024814318865537643,0.016387442126870155,-0.033424388617277145
1761379925111665700,5.501665771484375,-0.020717456936836243,0.00729441037401557,-0.034290388226509094
1761379925121691600,5.511691650390625,-0.027612173929810524,0.008543453179299831,-0.03898679092526436
1761379925131694600,5.521694580078125,-0.043649885803461075,0.002997702918946743,-0.042933765798807144
1761379925141742600,5.53174267578125,-0.04416615515947342,0.005945444107055664,-0.04872932657599449
1761379925151767800,5.541767822265625,-0.02637978456914425,0.0283949077129364,-0.05793893337249756
1761379925161794000,5.5517939453125,-0.01662059687077999,0.048196401447057724,-0.05632350593805313
1761379925171810300,5.561810302734375,-0.020550917834043503,0.054125189781188965,-0.037388015538454056
1761379925181845200,5.57184521484375,-0.03460681438446045,0.04228426516056061,-0.018818913027644157
1761379925191868000,5.581867919921875,-0.04829632490873337,0.03190888091921806,-0.002931087277829647
1761379925201885700,5.5918857421875,-0.05707293003797531,0.03064318560063839,-0.0012490428052842617
1761379925211922700,5.601922607421875,-0.06070348247885704,0.030493300408124924,-0.013772779144346714
1761379925221948200,5.6119482421875,-0.06125306338071823,0.03094295598566532,-0.03039337694644928
1761379925231971600,5.6219716796875,-0.05524100363254547,0.03182561323046684,-0.036505360156297684
1761379925241988400,5.63198828125,-0.03931986913084984,0.013456354849040508,-0.03217534348368645
1761379925252024800,5.64202490234375,-0.014871937222778797,-0.004096860531717539,-0.026279861107468605
1761379925262050800,5.65205078125,0.005046132951974869,-0.012207312509417534,-0.006328484043478966
1761379925272076300,5.662076171875,0.006078675389289856,-0.011741003021597862,0.014039241708815098
1761379925282102500,5.6721025390625,0.0037637825589627028,0.033124618232250214,0.01653732731938362
1761379925292128300,5.682128173828125,-0.006028713658452034,0.06918031722307205,0.011924196034669876
1761379925302136800,5.69213671875,-0.050827719271183014,0.07614165544509888,0.01950172334909439
1761379925312179500,5.702179443359375,-0.08335279673337936,0.0847683772444725,0.029027756303548813
1761379925322205200,5.712205078125,-0.09569333493709564,0.06799789518117905,0.02964395098388195
1761379925332210700,5.722210693359375,-0.10388705879449844,0.04474904388189316,0.019385145977139473
1761379925342233900,5.73223388671875,-0.10846687853336334,0.03670520707964897,0.011807618662714958
1761379925352259800,5.742259765625,-0.11168108880519867,0.032924771308898926,-0.0024980856105685234
1761379925362285300,5.752285400390625,-0.11529498547315598,0.03528962284326553,-0.01903541386127472
1761379925372311000,5.76231103515625,-0.12042438238859177,0.0436665378510952,-0.025447167456150055
1761379925382337000,5.7723369140625,-0.12318893522024155,0.05250976234674454,-0.023915007710456848
1761379925392360700,5.782360595703125,-0.11874233931303024,0.052376531064510345,-0.023348774760961533
1761379925402382600,5.792382568359375,-0.10843357443809509,0.051077526062726974,-0.02626320719718933
1761379925412402000,5.80240185546875,-0.09429440647363663,0.051044218242168427,-0.03444027528166771
1761379925422437600,5.812437744140625,-0.07635815441608429,0.04286715015769005,-0.05027813836932182
1761379925432472300,5.822472412109375,-0.05324253439903259,0.02546382136642933,-0.06188591197133064
1761379925442498300,5.832498291015625,-0.02333212085068226,0.011158116161823273,-0.06140294671058655
1761379925452538400,5.842538330078125,0.0010658499086275697,-0.005279287695884705,-0.045531775802373886
1761379925462569000,5.85256884765625,0.011924196034669876,-0.027945252135396004,-0.021100496873259544
1761379925472590300,5.86259033203125,0.0206175334751606,-0.03958633169531822,0.008626722730696201
1761379925482616300,5.8726162109375,0.03219199925661087,-0.04413284733891487,0.03314127027988434
1761379925492642000,5.88264208984375,0.04083537310361862,-0.04871267080307007,0.04689739644527435
1761379925502659800,5.892659912109375,0.04566500708460808,-0.05259303003549576,0.053042687475681305
1761379925512682000,5.902681884765625,0.047446973621845245,-0.0518602579832077,0.05244314670562744
1761379925522718700,5.91271875,0.0477633997797966,-0.050960950553417206,0.04739701375365257
1761379925532734000,5.92273388671875,0.05117744952440262,-0.04906240478157997,0.04196783900260925
1761379925542770200,5.932770263671875,0.04922894388437271,-0.03936983272433281,0.04341673105955124
1761379925552795600,5.942795654296875,0.030959609895944595,-0.02271592617034912,0.04759686067700386
1761379925562819600,5.952819580078125,0.010208843275904655,0.008526799269020557,0.051826950162649155
1761379925572846800,5.962846923828125,-0.00019984686514362693,0.028328292071819305,0.05597377568483353
1761379925582873300,5.972873291015625,-0.004746363032609224,0.026146629825234413,0.05350899696350098
1761379925592886800,5.98288671875,-0.004696401301771402,0.017969563603401184,0.05021152272820473
1761379925602924500,5.992924560546875,-0.003014356829226017,0.004379977006465197,0.04797989875078201
1761379925612950300,6.0029501953125,-0.0007161179091781378,-0.01300669927150011,0.04208441823720932
1761379925622975700,6.012975830078125,0.003164242021739483,-0.017436638474464417,0.034456927329301834
1761379925632989400,6.022989501953125,0.00671152351424098,-0.009192955680191517,0.021383613348007202
1761379925643027000,6.03302685546875,0.007710758130997419,-0.0011824272805824876,-0.0010991577291861176
1761379925653052700,6.043052734375,0.013789433054625988,0.01433901209384203,-0.024814318865537643
1761379925663078400,6.053078369140625,0.02011791616678238,0.024364663287997246,-0.04538189247250557
1761379925673104400,6.0631044921875,0.01966826245188713,0.022849157452583313,-0.056423429399728775
1761379925683118600,6.07311865234375,0.01292342972010374,0.009009762667119503,-0.05572396516799927
1761379925693155800,6.08315576171875,0.0013489662669599056,-0.005945444107055664,-0.04393300041556358
1761379925703180300,6.09318017578125,-0.008426875807344913,-0.012856814078986645,-0.023032350465655327
1761379925713199400,6.103199462890625,-0.011657733470201492,-0.011557810008525848,-0.0015821210108697414
1761379925723233000,6.11323291015625,-0.008210374973714352,-0.0022149693686515093,0.024564510211348534
1761379925733258500,6.123258544921875,-0.014239088632166386,0.005146056413650513,0.05440830811858177
1761379925743272700,6.133272705078125,-0.021300343796610832,-0.0017986217280849814,0.08188725262880325
1761379925753309400,6.143309326171875,-0.025580398738384247,-0.022982388734817505,0.10368721187114716
1761379925763335000,6.1533349609375,-0.02451454848051071,-0.03552277758717537,0.12903445959091187
1761379925773361700,6.163361572265625,-0.023598583415150642,-0.04071879759430885,0.1563301980495453
1761379925783375400,6.173375244140625,-0.011391270905733109,-0.053958650678396225,0.17333383858203888
1761379925793412400,6.183412353515625,0.009226263500750065,-0.06395099312067032,0.17509914934635162
1761379925803437600,6.1934375,0.0329747311770916,-0.0631016418337822,0.16415753960609436
1761379925813453800,6.203453857421875,0.05718950927257538,-0.06010394170880318,0.15413188934326172
1761379925823489000,6.213489013671875,0.06070348247885704,-0.06686542928218842,0.14150823652744293
1761379925833515500,6.223515625,0.04789663106203079,-0.06576626747846603,0.12052430957555771
1761379925843540500,6.23354052734375,0.04591481387615204,-0.07159513980150223,0.10300440341234207
1761379925853569300,6.2435693359375,0.04105187579989433,-0.052076760679483414,0.06558308005332947
1761379925863592000,6.253592041015625,0.04946209862828255,0.004979517310857773,0.010541921481490135
1761379925873606100,6.263606201171875,0.05898813158273697,0.06258537620306015,-0.04434935003519058
1761379925883634000,6.273634033203125,0.05377545952796936,0.11396267265081406,-0.07221133261919022
1761379925893657600,6.28365771484375,0.03460681438446045,0.12895119190216064,-0.0683809295296669
1761379925903694600,6.293694580078125,0.014322358183562756,0.10646841675043106,-0.04313361272215843
1761379925913719300,6.30371923828125,0.009809150360524654,0.13258174061775208,-0.0016653904458507895
1761379925923736600,6.313736572265625,0.008526799269020557,0.08187059313058853,-0.002964395098388195
1761379925933781000,6.323781005859375,-0.007760719861835241,0.0022649310994893312,-0.02075076475739479
1761379925943788300,6.333788330078125,-0.01903541386127472,-0.010008996352553368,-0.021433575078845024
1761379925953823200,6.3438232421875,-0.01903541386127472,-0.024714395403862,-0.03224195912480354
1761379925963849200,6.35384912109375,-0.017936255782842636,-0.024497894570231438,-0.035755932331085205
1761379925973874400,6.36387451171875,-0.01941845379769802,-0.013572932220995426,-0.022699272260069847
1761379925983889000,6.373888916015625,-0.027079248800873756,-0.009725880809128284,-0.0038637060206383467
1761379925993926100,6.383926025390625,-0.034673430025577545,-0.012656968086957932,0.010325420647859573
1761379926003952000,6.3939521484375,-0.03487327694892883,-0.014222434721887112,0.012507082894444466
1761379926013966000,6.403966064453125,-0.040019333362579346,-0.010841691866517067,-0.004280053544789553
1761379926024003600,6.414003662109375,-0.05225995182991028,0.0037304747384041548,-0.04186791554093361
1761379926034029000,6.424029052734375,-0.058338627219200134,0.03472338989377022,-0.08590084314346313
1761379926044042200,6.434042236328125,-0.05544085055589676,0.061769332736730576,-0.11972492188215256
1761379926054080500,6.44408056640625,-0.04829632490873337,0.079006128013134,-0.13063323497772217
1761379926064106500,6.4541064453125,-0.03885355964303017,0.08363591134548187,-0.11104823648929596
1761379926074128000,6.4641279296875,-0.036472052335739136,0.06633250415325165,-0.07410987466573715
1761379926084157200,6.4741572265625,-0.04441596567630768,0.039852794259786606,-0.031242726370692253
1761379926094183200,6.48418310546875,-0.06091998517513275,0.01483862940222025,0.0008160413126461208
1761379926104208400,6.49420849609375,-0.08418548852205276,0.002997702918946743,0.012223966419696808
1761379926114215200,6.504215087890625,-0.09567668288946152,0.012057427316904068,0.015404862351715565
1761379926124259600,6.514259521484375,-0.10005666315555573,0.02083403430879116,0.007427641656249762
1761379926134285800,6.524285888671875,-0.09582656621932983,0.0415848009288311,-0.00634513795375824
1761379926144287700,6.534287841796875,-0.08438533544540405,0.06341806799173355,-0.016920367255806923
1761379926154337000,6.5443369140625,-0.07469276338815689,0.06551646441221237,-0.01870233565568924
1761379926164362500,6.554362548828125,-0.0753922238945961,0.04258403554558754,-0.009825804270803928
1761379926174388000,6.564387939453125,-0.07652468979358673,0.0317256897687912,0.00782733503729105
1761379926184402400,6.57440234375,-0.08090467005968094,0.019818147644400597,0.023198889568448067
1761379926194428400,6.584428466796875,-0.08410222083330154,0.009226263500750065,0.026479708030819893
1761379926204455000,6.594454833984375,-0.07547549903392792,0.00576225109398365,0.016270864754915237
1761379926214492200,6.6044921875,-0.056756507605314255,0.010025650262832642,-0.003913667518645525
1761379926224516600,6.6145166015625,-0.039103370159864426,0.01761983148753643,-0.022366194054484367
1761379926234543000,6.624543212890625,-0.026146629825234413,0.017353368923068047,-0.03125938028097153
1761379926244557300,6.634557373046875,-0.01983480155467987,0.010242151096463203,-0.03139261156320572
1761379926254594000,6.644593994140625,-0.01858575828373432,0.007011293899267912,-0.020900649949908257
1761379926264619300,6.654619384765625,-0.015271631069481373,0.012124042958021164,-0.009076378308236599
1761379926274630700,6.664630615234375,-0.006478368770331144,0.01753656193614006,0.002831163816154003
1761379926284671200,6.674671142578125,0.0013656201772391796,0.011674387380480766,0.008626722730696201
1761379926294693400,6.684693359375,0.0008993108640424907,-0.006928024347871542,0.011124808341264725
1761379926304723000,6.694722900390625,-0.006661561783403158,-0.02822836861014366,0.012423813343048096
1761379926314754600,6.704754638671875,-0.015338246710598469,-0.04230091720819473,0.007794027682393789
1761379926324774000,6.71477392578125,-0.014039241708815098,-0.0440162718296051,-0.009592649526894093
1761379926334799600,6.724799560546875,-0.003663859097287059,-0.03983613848686218,-0.03465677425265312
1761379926344819700,6.73481982421875,0.0038637060206383467,-0.02529728226363659,-0.0506778322160244
1761379926354824000,6.744823974609375,0.008310298435389996,-0.0061785988509655,-0.04914567247033119
1761379926364878300,6.75487841796875,0.006378445774316788,0.0115245021879673,-0.03565600886940956
1761379926374902800,6.76490283203125,-0.0017986217280849814,0.017669793218374252,-0.012557044625282288
1761379926384916700,6.774916748046875,-0.00874330010265112,0.0255470909178257,-0.002897779457271099
1761379926394953500,6.784953369140625,-0.013606240041553974,0.021516844630241394,0.011907542124390602
1761379926404976600,6.7949765625,-0.02324885129928589,0.005695635452866554,0.03102622553706169
1761379926415005200,6.805005126953125,-0.035339586436748505,-0.003597243456169963,0.05087767913937569
1761379926425032400,6.815032470703125,-0.0386703684926033,-0.012590352445840836,0.06786466389894485
1761379926435057200,6.82505712890625,-0.04065218195319176,-0.023648545145988464,0.075325608253479
1761379926445072400,6.835072265625,-0.0337408110499382,-0.031009571626782417,0.07204478979110718
1761379926455098000,6.84509814453125,-0.024181470274925232,-0.02396496944129467,0.06853082031011581
1761379926465133600,6.855133544921875,-0.015787901356816292,-0.006378445774316788,0.06898047029972076
1761379926475141600,6.8651416015625,-0.01555474754422903,0.0022649310994893312,0.07069582492113113
1761379926485184800,6.875184814453125,-0.00866003055125475,0.004929556045681238,0.0720614492893219
1761379926495210200,6.885210205078125,0.004146822262555361,-0.0012990045361220837,0.07044601440429688
1761379926505236500,6.895236572265625,0.012540390715003014,-0.013856048695743084,0.05965428799390793
1761379926515259100,6.905259033203125,0.014105857349932194,-0.02308231219649315,0.036805130541324615
1761379926525276000,6.91527587890625,0.015887824818491936,-0.017086906358599663,0.004330015275627375
1761379926535314000,6.92531396484375,0.018086140975356102,-0.004846286494284868,-0.0308929942548275
1761379926545334500,6.93533447265625,0.023365428671240807,0.01707025244832039,-0.05587385222315788
1761379926555364400,6.9453642578125,0.030260145664215088,0.03637212887406349,-0.060770098119974136
1761379926565390600,6.955390625,0.03142591938376427,0.04379976913332939,-0.04754689708352089
1761379926575404300,6.965404296875,0.030626531690359116,0.042733918875455856,-0.02671286277472973
1761379926585430500,6.975430419921875,0.029960375279188156,0.0325583852827549,0.0012656967155635357
1761379926595467500,6.985467529296875,0.025780243799090385,0.009509379975497723,0.020883996039628983
1761379926605496600,6.99549658203125,0.02095061168074608,-0.012590352445840836,0.024980857968330383
1761379926615518700,7.005518798828125,0.021366959437727928,-0.020600879564881325,0.01803617924451828
1761379926625553400,7.015553466796875,0.02363189123570919,-0.017519908025860786,0.0026646247133612633
1761379926635570000,7.02556982421875,0.026229899376630783,-0.008526799269020557,-0.011158116161823273
1761379926645600500,7.0356005859375,0.03330780938267708,0.0015987749211490154,-0.015787901356816292
1761379926655603700,7.045603759765625,0.039053406566381454,0.008143759332597256,-0.012540390715003014
1761379926665647000,7.055647216796875,0.038137443363666534,0.008610068820416927,-0.002881125546991825
1761379926675661600,7.06566162109375,0.03870367631316185,0.005162710323929787,0.01210738904774189
1761379926685699000,7.075698974609375,0.039769526571035385,0.0021316998172551394,0.021350305527448654
1761379926695724500,7.085724609375,0.0420677624642849,0.004979517310857773,0.023398736491799355
1761379926715763700,7.105763671875,0.042900457978248596,-0.013323123566806316,0.019135337322950363
1761379926725790000,7.1157900390625,0.04429938644170761,-0.029044410213828087,0.018935490399599075
1761379926735827200,7.1258271484375,0.04807982221245766,-0.04140160605311394,0.013939318247139454
1761379926745838800,7.1358388671875,0.05059456452727318,-0.04453254118561745,0.004130168352276087
1761379926755878100,7.145878173828125,0.05405857414007187,-0.04666424170136452,0.0020650841761380434
1761379926765904400,7.155904296875,0.05787231773138046,-0.07739069312810898,0.009392802603542805
1761379926775923500,7.16592333984375,0.0584552064538002,-0.09800823032855988,0.010325420647859573
1761379926785951700,7.17595166015625,0.06653235107660294,-0.09093032032251358,0.01698698289692402
1761379926795980800,7.185980712890625,0.07114548236131668,-0.06631585210561752,0.022765887901186943
1761379926806006800,7.1960068359375,0.07404325902462006,-0.05910470709204674,0.02609666809439659
1761379926816032800,7.20603271484375,0.06943012773990631,-0.05374215170741081,0.015138399787247181
1761379926826058000,7.21605810546875,0.0671318918466568,-0.045531775802373886,0.0006994639988988638
1761379926836084200,7.226084228515625,0.06513342261314392,-0.04006929323077202,-0.019135337322950363
1761379926846110000,7.23610986328125,0.055424194782972336,-0.03502316027879715,-0.045365236699581146
1761379926856135400,7.246135498046875,0.05747262388467789,0.019901415333151817,-0.06017055734992027
1761379926866155000,7.256155029296875,0.0482463613152504,0.010025650262832642,-0.08759953826665878
1761379926876186000,7.26618603515625,0.035805895924568176,0.009192955680191517,-0.0914965495467186
1761379926886212400,7.27621240234375,0.02909437194466591,0.01883556693792343,-0.07389337569475174
1761379926896249600,7.28624951171875,0.019485069438815117,0.0013489662669599056,-0.05510777235031128
1761379926906243600,7.29624365234375,0.015371554531157017,-0.015804555267095566,-0.02892783284187317
1761379926916289800,7.306289794921875,0.018086140975356102,-0.02976052835583687,-0.009825804270803928
1761379926926304500,7.316304443359375,0.02000133879482746,-0.040302447974681854,-0.00024980856687761843
1761379926936329500,7.32632958984375,0.019718224182724953,-0.02817840687930584,0.005129402503371239
1761379926946360800,7.33636083984375,0.021783307194709778,-0.014638782478868961,0.009142993949353695
1761379926956381000,7.346380859375,0.017719754949212074,-0.009442764334380627,0.01623755693435669
1761379926966418000,7.35641796875,0.014322358183562756,-0.007344372104853392,0.026163283735513687
1761379926976443100,7.366443115234375,0.01991806924343109,-0.008110451512038708,0.036172281950712204
1761379926986469600,7.3764697265625,0.027162518352270126,-0.02229957841336727,0.03660528361797333
1761379926996480300,7.386480224609375,0.03139261156320572,-0.0350564680993557,0.034223772585392
1761379927006528000,7.396528076171875,0.03522300720214844,-0.035173047333955765,0.028861217200756073
1761379927016546000,7.406546142578125,0.03503981605172157,-0.025280628353357315,0.019801493734121323
1761379927026560500,7.416560546875,0.03194218873977661,-0.018052833154797554,0.008343606255948544
1761379927036588000,7.426588134765625,0.02629651501774788,-0.016354134306311607,-0.0038803599309176207
1761379927046623500,7.43662353515625,0.025946782901883125,-0.011790964752435684,-0.0075775268487632275
1761379927056659700,7.44665966796875,0.027662135660648346,-0.003946975339204073,-0.003980283159762621
1761379927066664000,7.456663818359375,0.023432044312357903,-0.00626186840236187,0.007794027682393789
1761379927076700700,7.46670068359375,0.01607101783156395,-0.02000133879482746,0.025647012516856194
1761379927086717200,7.47671728515625,0.011574463918805122,-0.037138208746910095,0.04383307695388794
1761379927096751400,7.48675146484375,0.011158116161823273,-0.05131068080663681,0.05159379541873932
1761379927106790100,7.4967900390625,0.014472243376076221,-0.0551910400390625,0.04471573606133461
1761379927116803600,7.506803466796875,0.01753656193614006,-0.04987844452261925,0.029710566624999046
1761379927126817500,7.516817626953125,0.014788667671382427,-0.03414050489664078,0.011924196034669876
1761379927136855300,7.526855224609375,0.008177067153155804,-0.016437403857707977,-0.003530627815052867
1761379927146880300,7.53688037109375,0.0010491959983482957,-0.0045798239298164845,-0.016970328986644745
1761379927156894200,7.546894287109375,-0.003247511340305209,-0.003447358263656497,-0.022149693220853806
1761379927166931700,7.556931640625,-0.005695635452866554,-0.01933518424630165,-0.01748660020530224
1761379927176957200,7.566957275390625,-0.005945444107055664,-0.050910986959934235,-0.013073314912617207
1761379927186982700,7.576982666015625,-0.003563935635611415,-0.0746261477470398,-0.015105091966688633
1761379927196997000,7.5869970703125,0.006495022680610418,-0.07067917287349701,-0.027478942647576332
1761379927207011600,7.597011474609375,0.015404862351715565,-0.0556073896586895,-0.04847951605916023
1761379927217059800,7.607059814453125,0.016220903024077415,-0.035422854125499725,-0.06981316953897476
1761379927227085600,7.61708544921875,0.026946017518639565,-0.030959609895944595,-0.08012193441390991
1761379927237111600,7.627111572265625,0.03230857476592064,-0.04321688413619995,-0.08376914262771606
1761379927247136800,7.63713671875,0.03222530707716942,-0.03513973951339722,-0.0798388198018074
1761379927257152000,7.647152099609375,0.029027756303548813,-0.010591883212327957,-0.06791462749242783
1761379927267188500,7.6571884765625,0.02617993764579296,-0.0018818912794813514,-0.05464146286249161
1761379927277214500,7.66721435546875,0.02889452502131462,-0.010541921481490135,-0.03835394233465195
1761379927287228200,7.677228271484375,0.029693912714719772,-0.021483536809682846,-0.01933518424630165
1761379927297257000,7.687257080078125,0.028961140662431717,-0.032541729509830475,0.0001498851488577202
1761379927307282700,7.69728271484375,0.026063360273838043,-0.04583154618740082,0.012323889881372452
1761379927317318000,7.70731787109375,0.0267961323261261,-0.05687308311462402,0.011707695201039314
1761379927327342300,7.71734228515625,0.030843032523989677,-0.05092764273285866,0.0014488897286355495
1761379927337368300,7.727368408203125,0.03535623848438263,-0.025580398738384247,-0.013789433054625988
1761379927347393800,7.737393798828125,0.03907006233930588,-0.0017486599972471595,-0.027961906045675278
1761379927357399600,7.747399658203125,0.039386484771966934,0.008110451512038708,-0.030759762972593307
1761379927367445800,7.75744580078125,0.040269140154123306,0.012124042958021164,-0.020067954435944557
1761379927377471500,7.767471435546875,0.04255072772502899,0.009942381642758846,-0.002464778022840619
1761379927387496700,7.77749658203125,0.0391533300280571,-0.013306469656527042,0.021983154118061066
1761379927397500200,7.787500244140625,0.033924005925655365,-0.03530627861618996,0.03990275412797928
1761379927407539200,7.797539306640625,0.03916998580098152,-0.04546516016125679,0.04674750939011574
1761379927417574100,7.80757421875,0.04266730323433876,-0.02981049008667469,0.0420677624642849
1761379927427598300,7.817598388671875,0.04180129989981651,-0.015687977895140648,0.02701263315975666
1761379927437625000,7.827625,0.044565849006175995,-0.0075941807590425014,0.0115245021879673
1761379927447651000,7.837651123046875,0.043899692595005035,-0.00841022189706564,-0.002881125546991825
1761379927457662500,7.847662353515625,0.042484112083911896,-0.015338246710598469,-0.01110815443098545
1761379927467702300,7.857702392578125,0.04131833836436272,-0.022316232323646545,-0.01682044379413128
1761379927477728000,7.86772802734375,0.03527297079563141,-0.02003464661538601,-0.022532733157277107
1761379927487743000,7.877742919921875,0.029743874445557594,0.0013656201772391796,-0.02892783284187317
1761379927497780000,7.887780029296875,0.02341539040207863,0.027229133993387222,-0.03299138695001602
1761379927507805700,7.8978056640625,0.019135337322950363,0.040219180285930634,-0.029877105727791786
1761379927517831200,7.9078310546875,0.016420749947428703,0.03232523053884506,-0.02291577309370041
1761379927527834600,7.917834716796875,0.016021056100726128,0.011591117829084396,-0.012240620329976082
1761379927537882000,7.927882080078125,0.01900210604071617,-0.008560107089579105,-0.005978751927614212
1761379927547899000,7.93789892578125,0.020567571744322777,-0.02947741188108921,-0.004929556045681238
1761379927557925600,7.947925537109375,0.021233728155493736,-0.04246745631098747,-0.008909839205443859
1761379927567959300,7.957959228515625,0.02662959322333336,-0.033674195408821106,-0.011474540457129478
1761379927577988600,7.967988525390625,0.03530627861618996,-0.010874999687075615,-0.014688744209706783
1761379927588010500,7.978010498046875,0.037138208746910095,0.006511676590889692,-0.016687212511897087
1761379927598030000,7.988030029296875,0.033041346818208694,0.015687977895140648,-0.016137633472681046
1761379927608062000,7.99806201171875,0.03197549656033516,0.030093606561422348,-0.014039241708815098
1761379927618087700,8.008087646484375,0.03299138695001602,0.03757121041417122,-0.006744831334799528
1761379927628116500,8.018116455078125,0.02784532867372036,0.028128445148468018,0.0008326952229253948
1761379927638139400,8.028139404296875,0.02651301585137844,0.01728675328195095,0.006411753129214048
1761379927648164400,8.038164306640626,0.02363189123570919,0.010508613660931587,0.015071784146130085
1761379927658178600,8.048178466796875,0.018252680078148842,-0.0008660030434839427,0.02050095610320568
1761379927668205000,8.058205078125,0.01836925745010376,0.0012990045361220837,0.01778637059032917
1761379927678242800,8.068242919921875,0.023998277261853218,0.040302447974681854,0.02856144681572914
1761379927688269300,8.078269287109375,0.016587289050221443,0.05242649093270302,0.06211906671524048
1761379927698282200,8.0882822265625,0.035972435027360916,-0.049278903752565384,0.08763284981250763
1761379927708307200,8.09830712890625,0.05682312324643135,-0.08278656005859375,0.13066653907299042
1761379927718344700,8.1083447265625,0.07029613107442856,-0.132864847779274,0.14930225908756256
1761379927728362500,8.118362548828125,0.08068817108869553,-0.16056029498577118,0.14292381703853607
1761379927738396200,8.128396240234375,0.08410222083330154,-0.1469040960073471,0.11271362751722336
1761379927748422000,8.138421875,0.06466711312532425,-0.10645175725221634,0.06776473671197891
1761379927758441000,8.14844091796875,0.037254784256219864,-0.036755166947841644,0.017886294052004814
1761379927768472800,8.158472900390626,0.014821975491940975,0.0407521054148674,-0.03405723720788956
1761379927778498300,8.168498291015625,-0.014455589465796947,0.11639413982629776,-0.07923927903175354
1761379927788524500,8.178524658203125,-0.043150268495082855,0.1846751570701599,-0.10490294545888901
1761379927798550000,8.188550048828125,-0.07082905620336533,0.21110489964485168,-0.11148124188184738
1761379927808575700,8.19857568359375,-0.09695903211832047,0.2022949755191803,-0.08480168133974075
1761379927818601000,8.20860107421875,-0.11064854264259338,0.13366423547267914,-0.042767226696014404
