time,seconds_elapsed,z,y,x
1761380166811889700,0.1048896484375,-0.007161179091781378,0.39977699518203735,0.0914965495467186
1761380166821929500,0.114929443359375,0.028361599892377853,0.21047204732894897,0.12263935804367065
1761380166831964000,0.1249638671875,0.08097128570079803,-0.03527297079563141,0.11013226956129074
1761380166841979100,0.134979248046875,0.12951742112636566,-0.21759991347789764,0.05455819144845009
1761380166851993300,0.144993408203125,0.15812882781028748,-0.2881125509738922,-0.013206546194851398
1761380166862040000,0.1550400390625,0.16124311089515686,-0.2651967704296112,-0.0737934559583664
1761380166872066000,0.165066162109375,0.13972626626491547,-0.20307771861553192,-0.11126473546028137
1761380166882072800,0.17507275390625,0.09852450340986252,-0.11189758777618408,-0.10362059623003006
1761380166892117800,0.18511767578125,0.04951205849647522,-0.0038803599309176207,-0.06198583543300629
1761380166902148400,0.1951484375,0.003447358263656497,0.07395999133586884,-0.010358728468418121
1761380166912163300,0.205163330078125,-0.02396496944129467,0.10825037956237793,0.03710490092635155
1761380166922191000,0.215191162109375,-0.03695501387119293,0.11021554470062256,0.06418415158987045
1761380166932205000,0.225205078125,-0.04469908028841019,0.09266232699155807,0.07384341210126877
1761380166942244900,0.235244873046875,-0.04205111041665077,0.08137097954750061,0.0641508400440216
1761380166952260400,0.24526025390625,-0.027312403544783592,0.07922262698411942,0.03272492438554764
1761380166962297000,0.255297119140625,-0.011574463918805122,0.0863671526312828,-0.00712787127122283
1761380166972322800,0.26532275390625,0.004763016942888498,0.11231393367052078,-0.038553789258003235
1761380166982348500,0.2753486328125,0.018052833154797554,0.1448889672756195,-0.07224463671445847
1761380166992374800,0.285374755859375,0.026363130658864975,0.14896917343139648,-0.11765983700752258
1761380167002399700,0.295399658203125,0.029127679765224457,0.13396401703357697,-0.16317495703697205
1761380167012416800,0.305416748046875,0.02078407257795334,0.11554478853940964,-0.20006336271762848
1761380167022451000,0.315450927734375,-0.003980283159762621,0.08498487621545792,-0.22334551811218262
1761380167032477200,0.325477294921875,-0.03349100425839424,0.042267609387636185,-0.22945749759674072
1761380167042492700,0.33549267578125,-0.06360126286745071,0.004130168352276087,-0.2165340632200241
1761380167052528600,0.345528564453125,-0.08729977160692215,-0.020434340462088585,-0.1881391555070877
1761380167062554000,0.35555419921875,-0.09709226340055466,-0.035805895924568176,-0.14397300779819489
1761380167072569900,0.36556982421875,-0.09038074314594269,-0.041518185287714005,-0.09186293929815292
1761380167082605600,0.37560546875,-0.06488361209630966,-0.047696784138679504,-0.05244314670562744
1761380167092631000,0.385631103515625,-0.027645481750369072,-0.06618262082338333,-0.02776205912232399
1761380167102657000,0.395656982421875,0.007144525181502104,-0.08313629031181335,-0.009642611257731915
1761380167112683300,0.405683349609375,0.02947741188108921,-0.06759820133447647,0.0019651607144623995
1761380167122708000,0.4157080078125,0.049995023757219315,-0.03385739028453827,-0.002931087277829647
1761380167132734000,0.42573388671875,0.06631585210561752,-0.013156584464013577,-0.022399501875042915
1761380167142738400,0.435738525390625,0.06918031722307205,-0.034123849123716354,-0.054541539400815964
1761380167152775000,0.44577490234375,0.05071114003658295,-0.11238054931163788,-0.0914299339056015
1761380167162811000,0.455810791015625,0.010175535455346107,-0.2436133176088333,-0.11569467931985855
1761380167172836900,0.4658369140625,-0.04403292387723923,-0.3991940915584564,-0.12548717856407166
1761380167182852400,0.475852294921875,-0.09346171468496323,-0.5412185788154602,-0.11711025983095169
1761380167192888000,0.48588818359375,-0.12029115110635757,-0.6280354261398315,-0.09867438673973083
1761380167202914800,0.495914794921875,-0.11744333803653717,-0.6375448107719421,-0.08641710877418518
1761380167212931000,0.50593115234375,-0.09098028391599655,-0.5733606219291687,-0.08838227391242981
1761380167222966000,0.515966064453125,-0.05807216465473175,-0.4449423849582672,-0.10793396085500717
1761380167232990500,0.525990478515625,-0.02496420405805111,-0.2759552001953125,-0.1436399221420288
1761380167242998500,0.53599853515625,0.006361791864037514,-0.08933154493570328,-0.18392571806907654
1761380167253042000,0.5460419921875,0.04050229489803314,0.08361925929784775,-0.21948181092739105
1761380167263067600,0.556067626953125,0.07306068390607834,0.21348640322685242,-0.23851722478866577
1761380167273083000,0.566082763671875,0.09452756494283676,0.29467418789863586,-0.23858384788036346
1761380167283118800,0.576118896484375,0.1033041700720787,0.3339441120624542,-0.21575133502483368
1761380167293148400,0.5861484375,0.09202947467565536,0.320854127407074,-0.17503254115581512
1761380167303175700,0.59617578125,0.06240218132734299,0.248326376080513,-0.11606106162071228
1761380167313183700,0.606183837890625,0.019934723153710365,0.137944296002388,-0.04421611875295639
1761380167323198200,0.6161982421875,-0.023765122517943382,0.03080972470343113,0.027412327006459236
1761380167333256700,0.626256591796875,-0.06058690696954727,-0.03710490092635155,0.09006431698799133
1761380167343271200,0.636271240234375,-0.0814375951886177,-0.04812978580594063,0.13043338060379028
1761380167353298700,0.646298583984375,-0.08871535211801529,-0.011074846610426903,0.13979287445545197
1761380167363325200,0.6563251953125,-0.08769946545362473,0.0515105277299881,0.11671056598424911
1761380167373350700,0.6663505859375,-0.08571764826774597,0.10770080238580704,0.06516672670841217
1761380167383374000,0.6763740234375,-0.08343606442213058,0.14868606626987457,-0.0014488897286355495
1761380167393401300,0.6864013671875,-0.07710757851600647,0.1684209406375885,-0.06375114619731903
1761380167403416800,0.696416748046875,-0.06586619466543198,0.1681378185749054,-0.10112251341342926
1761380167413452800,0.706452880859375,-0.04551512002944946,0.14292381703853607,-0.09774176776409149
1761380167423478300,0.716478271484375,-0.014655436389148235,0.09702564775943756,-0.062968410551548
1761380167433504500,0.72650439453125,0.021316997706890106,0.03865371271967888,-0.01748660020530224
1761380167443521800,0.736521728515625,0.05937116965651512,-0.02271592617034912,0.026313168928027153
1761380167453554200,0.74655419921875,0.09569333493709564,-0.04834628477692604,0.06763150542974472
1761380167463581000,0.756580810546875,0.1294841170310974,-0.021316997706890106,0.09884092211723328
1761380167473607400,0.766607421875,0.15679651498794556,0.011058192700147629,0.10750095546245575
1761380167483632400,0.77663232421875,0.18156087398529053,0.027462288737297058,0.0942111387848854
1761380167493658000,0.786658203125,0.20006336271762848,0.03527297079563141,0.0794890895485878
1761380167503683800,0.796683837890625,0.21157120168209076,0.04458250477910042,0.07640811800956726
1761380167513682700,0.8066826171875,0.21545156836509705,0.049162328243255615,0.08368587493896484
1761380167523735300,0.8167353515625,0.2194485068321228,0.02363189123570919,0.09774176776409149
1761380167533761300,0.82676123046875,0.22133038938045502,-0.015854516997933388,0.11088170111179352
1761380167543786000,0.836785888671875,0.21794965863227844,-0.052459798753261566,0.12029115110635757
1761380167553812500,0.8468125,0.20675823092460632,-0.08590084314346313,0.12875133752822876
1761380167563838500,0.85683837890625,0.18325956165790558,-0.09622626006603241,0.13952641189098358
1761380167573858600,0.866858642578125,0.14993511140346527,-0.06992974877357483,0.1509343385696411
1761380167583878700,0.876878662109375,0.11384609341621399,-0.01970157027244568,0.14692075550556183
1761380167593917400,0.88691748046875,0.09001435339450836,0.03389069810509682,0.12250612676143646
1761380167603939000,0.89693896484375,0.07276090979576111,0.09234590083360672,0.07404325902462006
1761380167613966600,0.906966552734375,0.062318913638591766,0.15186695754528046,0.011707695201039314
1761380167624001000,0.9170009765625,0.05975421145558357,0.1913367062807083,-0.06278522312641144
1761380167634017800,0.927017822265625,0.059720903635025024,0.18357598781585693,-0.1485694795846939
1761380167644044000,0.9370439453125,0.04909571260213852,0.14237423241138458,-0.2243114411830902
1761380167654048000,0.947048095703125,0.01911868341267109,0.11213073879480362,-0.25843530893325806
1761380167664095000,0.957094970703125,-0.03217534348368645,0.09925727546215057,-0.23545290529727936
1761380167674101200,0.967101318359375,-0.09812480956315994,0.09657599776983261,-0.16014394164085388
1761380167684150300,0.977150390625,-0.15311600267887115,0.11431240290403366,-0.05547415837645531
1761380167694177800,0.987177734375,-0.1814776062965393,0.14194123446941376,0.03961963951587677
1761380167704187100,0.997187255859375,-0.16860413551330566,0.16142630577087402,0.08829900622367859
1761380167714237200,1.0072373046875,-0.11294678598642349,0.16209246218204498,0.07234456390142441
1761380167724236500,1.017236572265625,-0.04071879759430885,0.17544889450073242,-0.010325420647859573
1761380167734276000,1.027276123046875,0.021267035976052284,0.2029944509267807,-0.15721286833286285
1761380167744289300,1.037289306640625,0.06103656068444252,0.2300736904144287,-0.3312961161136627
1761380167754326000,1.047325927734375,0.07624157518148422,0.23392075300216675,-0.4894915819168091
1761380167764351500,1.0573515625,0.06829766184091568,0.19956374168395996,-0.589847981929779
1761380167774367500,1.067367431640625,0.05194352939724922,0.1428072303533554,-0.6060189604759216
1761380167784403000,1.07740283203125,0.05161045119166374,0.07565868645906448,-0.5477802157402039
1761380167794428700,1.0874287109375,0.07492591440677643,-0.004346669185906649,-0.4366154372692108
1761380167804466700,1.097466796875,0.10813380032777786,-0.05339241772890091,-0.2930920720100403
1761380167814480000,1.10747998046875,0.13091634213924408,-0.04691404849290848,-0.1432901918888092
1761380167824505900,1.117505859375,0.13959303498268127,-0.012756891548633575,-0.02446458674967289
1761380167834531300,1.12753125,0.14715389907360077,0.0013822740875184536,0.04709724336862564
1761380167844560400,1.137560302734375,0.166122704744339,-0.025147397071123123,0.07647473365068436
1761380167854582800,1.147582763671875,0.19366826117038727,-0.10160547494888306,0.10243816673755646
1761380167864608500,1.1576083984375,0.22279593348503113,-0.2072245329618454,0.1634913831949234
1761380167874626800,1.167626708984375,0.2467942088842392,-0.30245155096054077,0.2672951817512512
1761380167884660200,1.17766015625,0.2615329325199127,-0.3593912720680237,0.39413130283355713
1761380167894677000,1.187677001953125,0.2663625478744507,-0.36130645871162415,0.5166873931884766
1761380167904711200,1.197711181640625,0.25800228118896484,-0.341055303812027,0.6012725830078125
1761380167914736600,1.207736572265625,0.23668529093265533,-0.3335610628128052,0.6217735409736633
1761380167924762600,1.2177626953125,0.20129574835300446,-0.3415549397468567,0.5738269686698914
1761380167934788400,1.227788330078125,0.14886926114559174,-0.36325496435165405,0.47646820545196533
1761380167944802800,1.237802734375,0.09496056288480759,-0.38637059926986694,0.3626554310321808
1761380167954840300,1.24784033203125,0.05557408183813095,-0.4000101387500763,0.262132465839386
1761380167964864800,1.25786474609375,0.02964395098388195,-0.3980782926082611,0.1855078488588333
1761380167974882000,1.267882080078125,0.011374616995453835,-0.3730141520500183,0.13234858214855194
1761380167984898600,1.277898681640625,-0.0002165007608709857,-0.3264165222644806,0.09849119186401367
1761380167994944000,1.287944091796875,-0.011491194367408752,-0.260417103767395,0.08308633416891098
1761380168004969200,1.29796923828125,-0.01953503116965294,-0.18504153192043304,0.07679115235805511
1761380168014993000,1.307992919921875,-0.007227794732898474,-0.15185029804706573,0.0783066600561142
1761380168025018400,1.318018310546875,0.01928522251546383,-0.1633581519126892,0.09187959134578705
1761380168035043800,1.3280439453125,0.059637632220983505,-0.17401665449142456,0.12403828650712967
1761380168045057500,1.3380576171875,0.10108920186758041,-0.14673756062984467,0.16642247140407562
1761380168055095800,1.348095703125,0.12490428984165192,-0.0789395123720169,0.20206183195114136
1761380168065122600,1.35812255859375,0.12522071599960327,0.0011990811908617616,0.20975592732429504
1761380168075147500,1.3681474609375,0.11139796674251556,0.07376014441251755,0.17103560268878937
1761380168085170200,1.378170166015625,0.10245481878519058,0.13013361394405365,0.07790696620941162
1761380168095188700,1.388188720703125,0.09750860929489136,0.16192591190338135,-0.03965294733643532
1761380168105202700,1.39820263671875,0.088515505194664,0.17018625140190125,-0.15544754266738892
1761380168115264500,1.408264404296875,0.0659494623541832,0.13719487190246582,-0.2519236207008362
1761380168125276000,1.41827587890625,0.03717151656746864,0.065816231071949,-0.3085801899433136
1761380168135296000,1.4282958984375,0.011541156098246574,-0.006311830133199692,-0.3122107684612274
1761380168145328000,1.438328125,-0.0026146629825234413,-0.041601452976465225,-0.26752832531929016
1761380168155338200,1.448338134765625,-0.003680513007566333,-0.03152584284543991,-0.19385145604610443
1761380168165368300,1.458368408203125,0.009592649526894093,-0.007977220229804516,-0.12129038572311401
1761380168175404800,1.46840478515625,0.0320754200220108,0.01144123263657093,-0.07297740876674652
1761380168185429200,1.47842919921875,0.05087767913937569,0.023681852966547012,-0.05222664400935173
1761380168195455500,1.48845556640625,0.05510777235031128,0.01707025244832039,-0.059554364532232285
1761380168205481700,1.498481689453125,0.0420011468231678,-0.014305704273283482,-0.08380244672298431
1761380168215508700,1.5085087890625,0.018602412194013596,-0.0617193728685379,-0.10275459289550781
1761380168225534000,1.518533935546875,-0.015288284979760647,-0.12052430957555771,-0.09720884263515472
1761380168235562500,1.5285625,-0.05715620145201683,-0.19513380527496338,-0.05194352939724922
1761380168245584400,1.53858447265625,-0.10217170417308807,-0.290877103805542,0.030426684767007828
1761380168255599400,1.548599365234375,-0.14462250471115112,-0.40422359108924866,0.1376611739397049
1761380168265635800,1.5586357421875,-0.1865403950214386,-0.5049797296524048,0.2536722719669342
1761380168275652000,1.568652099609375,-0.22018127143383026,-0.5650503635406494,0.3582254946231842
1761380168285687300,1.578687255859375,-0.2503248453140259,-0.5631517767906189,0.43363437056541443
1761380168295712500,1.58871240234375,-0.2812178432941437,-0.5095428824424744,0.47608518600463867
1761380168305730800,1.598730712890625,-0.32958078384399414,-0.44399309158325195,0.482280433177948
1761380168315764200,1.60876416015625,-0.38269007205963135,-0.37957578897476196,0.44988858699798584
1761380168325790000,1.6187900390625,-0.42927104234695435,-0.3520469069480896,0.3766114115715027
1761380168335806500,1.628806396484375,-0.4677082598209381,-0.37388017773628235,0.28188398480415344
1761380168345831200,1.6388310546875,-0.49168989062309265,-0.38796937465667725,0.191403329372406
1761380168355868700,1.64886865234375,-0.49870118498802185,-0.359274685382843,0.11717687547206879
1761380168365893400,1.658893310546875,-0.4999169111251831,-0.2879793345928192,0.0568564310669899
1761380168375923700,1.668923828125,-0.476584792137146,-0.18387576937675476,0.012340543791651726
1761380168385946000,1.678946044921875,-0.42525747418403625,-0.06679881364107132,-0.02333212085068226
1761380168395969300,1.68896923828125,-0.376361608505249,0.01623755693435669,-0.05735604837536812
1761380168405985000,1.698985107421875,-0.35519447922706604,0.03818740323185921,-0.07882293313741684
1761380168416020700,1.709020751953125,-0.3470507264137268,0.03180895745754242,-0.07191155850887299
1761380168426048000,1.719048095703125,-0.3315625786781311,0.010825037956237793,-0.03344104066491127
1761380168436072200,1.729072265625,-0.30453330278396606,-0.010491959750652313,0.011974157765507698
1761380168446079200,1.739079345703125,-0.27688783407211304,-0.012390505522489548,0.033507656306028366
1761380168456124000,1.7491240234375,-0.2635313868522644,-0.018019525334239006,0.008060489781200886
1761380168466147300,1.759147216796875,-0.268577516078949,-0.02951071970164776,-0.055757272988557816
1761380168476169500,1.76916943359375,-0.28383249044418335,-0.017719754949212074,-0.12365524470806122
1761380168486190800,1.77919091796875,-0.3073977828025818,0.032458461821079254,-0.16895386576652527
1761380168496204800,1.789204833984375,-0.3308797776699066,0.08112116903066635,-0.18082809448242188
1761380168506243800,1.799243896484375,-0.34881603717803955,0.09146324545145035,-0.1566133201122284
1761380168516276500,1.8092763671875,-0.3547614812850952,0.0794224739074707,-0.09855780750513077
1761380168526303500,1.819303466796875,-0.3462013602256775,0.05728943273425102,-0.013955972157418728
1761380168536337400,1.82933740234375,-0.32368528842926025,0.01795290969312191,0.0766412690281868
1761380168546354400,1.8393544921875,-0.29723888635635376,-0.01400593388825655,0.1557140052318573
1761380168556380200,1.849380126953125,-0.26537996530532837,-0.027995213866233826,0.2214636206626892
1761380168566406100,1.85940625,-0.2406156212091446,-0.023182235658168793,0.2733405530452728
1761380168576428500,1.869428466796875,-0.2313227355480194,-0.004679747391492128,0.3024182617664337
1761380168586457300,1.879457275390625,-0.23162250220775604,0.011957503855228424,0.3032509386539459
1761380168596483600,1.889483642578125,-0.23153923451900482,0.0197515320032835,0.2877628207206726
1761380168606508800,1.8995087890625,-0.22877469658851624,0.01392266433686018,0.26842764019966125
1761380168616534000,1.909533935546875,-0.23268835246562958,-0.011657733470201492,0.24696075916290283
1761380168626560300,1.919560302734375,-0.24081546068191528,-0.06032044440507889,0.22849157452583313
1761380168636585500,1.92958544921875,-0.24474579095840454,-0.11339643597602844,0.21127143502235413
1761380168646611700,1.93961181640625,-0.24386313557624817,-0.1416914165019989,0.19763189554214478
1761380168656626400,1.94962646484375,-0.2411651909351349,-0.1303168088197708,0.18644046783447266
1761380168666660900,1.959660888671875,-0.2445126324892044,-0.09862442314624786,0.15186695754528046
1761380168676689200,1.969689208984375,-0.2536722719669342,-0.09364490956068039,0.07943912595510483
1761380168686714400,1.97971435546875,-0.2649969458580017,-0.11449559777975082,-0.024164816364645958
1761380168696740400,1.989740234375,-0.27870309352874756,-0.1280851811170578,-0.13761121034622192
1761380168706765000,1.99976513671875,-0.29827144742012024,-0.10412020981311798,-0.2370017170906067
1761380168716789200,2.009789306640625,-0.32098737359046936,-0.04934551939368248,-0.3053160309791565
1761380168726807000,2.01980712890625,-0.34055569767951965,0.009076378308236599,-0.3421711325645447
1761380168736843800,2.02984375,-0.3515472710132599,0.04951205849647522,-0.34513550996780396
1761380168746870500,2.03987060546875,-0.3500317633152008,0.07219468057155609,-0.3169737756252289
1761380168756894200,2.049894287109375,-0.33457693457603455,0.08138763159513474,-0.2674283981323242
1761380168766908000,2.059907958984375,-0.3058156669139862,0.08110451698303223,-0.21331986784934998
1761380168776938200,2.069938232421875,-0.26524674892425537,0.07382676005363464,-0.16812117397785187
1761380168786966800,2.079966796875,-0.22093069553375244,0.06516672670841217,-0.13293147087097168
1761380168796997600,2.08999755859375,-0.18034513294696808,0.06423410773277283,-0.10703464597463608
1761380168807022600,2.100022705078125,-0.14985182881355286,0.06153617799282074,-0.08753292262554169
1761380168817048800,2.110048828125,-0.1298171877861023,0.045981429517269135,-0.0679645836353302
1761380168827063000,2.12006298828125,-0.13184896111488342,0.02584685944020748,-0.04638112336397171
1761380168837090800,2.1300908203125,-0.1448889672756195,0.012174004688858986,-0.01861906610429287
1761380168847106600,2.1401064453125,-0.15283288061618805,0.0135895861312747,0.006844754796475172
1761380168857154600,2.150154541015625,-0.1530160754919052,0.012507082894444466,0.02229957841336727
1761380168867182800,2.160182861328125,-0.14885260164737701,0.00954268779605627,0.024364663287997246
1761380168877183500,2.17018359375,-0.14700402319431305,0.013106622733175755,0.019401799887418747
1761380168887231700,2.180231689453125,-0.15318261086940765,0.0173200611025095,0.004779670853167772
1761380168897256700,2.190256591796875,-0.16843760013580322,0.008310298435389996,-0.01958499290049076
1761380168907279600,2.200279541015625,-0.19363495707511902,-0.024997511878609657,-0.0510941818356514
1761380168917305000,2.21030517578125,-0.2315225899219513,-0.08085470646619797,-0.088515505194664
1761380168927330600,2.22033056640625,-0.28558117151260376,-0.14119181036949158,-0.12868472933769226
1761380168937357000,2.230357177734375,-0.34596821665763855,-0.18872204422950745,-0.1682710498571396
1761380168947382000,2.240382080078125,-0.40510624647140503,-0.20252813398838043,-0.20913973450660706
1761380168957407500,2.250407470703125,-0.45626702904701233,-0.16265869140625,-0.2513240873813629
1761380168967446300,2.2604462890625,-0.503614068031311,-0.07639145851135254,-0.2949739694595337
1761380168977458400,2.27045849609375,-0.5491291880607605,-0.006694869603961706,-0.3319789469242096
1761380168987484700,2.280484619140625,-0.5807049870491028,0.009809150360524654,-0.34012269973754883
1761380168997510000,2.290510009765625,-0.5877829194068909,-0.0019984685350209475,-0.3040669858455658
1761380169007531000,2.300531005859375,-0.5638179183006287,-0.015088438056409359,-0.23448698222637177
1761380169017562000,2.31056201171875,-0.5088933706283569,-0.02959398925304413,-0.16588954627513885
1761380169027587600,2.320587646484375,-0.4292377531528473,-0.03685509040951729,-0.12911772727966309
1761380169037593000,2.330593017578125,-0.34012269973754883,-0.014738705940544605,-0.1334310919046402
1761380169047638800,2.340638671875,-0.2606002986431122,0.04056891053915024,-0.1703028380870819
1761380169057653800,2.35065380859375,-0.20790734887123108,0.08814911544322968,-0.22251282632350922
1761380169067690000,2.36068994140625,-0.17809686064720154,0.09755857288837433,-0.2650635540485382
1761380169077705500,2.37070556640625,-0.1657063513994217,0.05857178196310997,-0.26667898893356323
1761380169087741700,2.38074169921875,-0.15116749703884125,0.005629019811749458,-0.2122207134962082
1761380169097767000,2.390766845703125,-0.13774444162845612,-0.01628751866519451,-0.11789299547672272
1761380169107798500,2.400798583984375,-0.12498755753040314,0.015288284979760647,-0.021533498540520668
1761380169117819000,2.41081884765625,-0.11119811981916428,0.07822339236736298,0.03605570271611214
1761380169127846100,2.42084619140625,-0.1042034849524498,0.09457752853631973,0.0350564680993557
1761380169137872400,2.430872314453125,-0.1112813949584961,0.06418415158987045,-0.005229325965046883
1761380169147899100,2.440899169921875,-0.14796994626522064,0.0271791722625494,-0.03853713721036911
1761380169157901600,2.450901611328125,-0.18156087398529053,0.0009659265051595867,-0.040302447974681854
1761380169167951600,2.46095166015625,-0.18387576937675476,-0.009526033885776997,-0.013056661002337933
1761380169177972500,2.470972412109375,-0.16405761241912842,-0.028777947649359703,0.021983154118061066
1761380169187998000,2.480998046875,-0.13672855496406555,-0.06123640760779381,0.04203445464372635
1761380169198024200,2.491024169921875,-0.1037871316075325,-0.09857445955276489,0.04171803221106529
1761380169208048000,2.501048095703125,-0.06346803158521652,-0.13386408984661102,0.021483536809682846
1761380169218075400,2.511075439453125,-0.03192553669214249,-0.1461380124092102,-0.00046630934230051935
1761380169228086300,2.521086181640625,-0.024031585082411766,-0.12412155419588089,-0.010242151096463203
1761380169238116600,2.53111669921875,-0.04418281093239784,-0.09875765442848206,-0.002931087277829647
1761380169248131800,2.5411318359375,-0.07417649030685425,-0.07812346518039703,0.023981623351573944
1761380169258160400,2.551160400390625,-0.09865773469209671,-0.04691404849290848,0.06954670697450638
1761380169268182500,2.5611826171875,-0.11661063879728317,-0.006928024347871542,0.12104058265686035
1761380169278216200,2.57121630859375,-0.12548717856407166,0.02734571136534214,0.16144295036792755
1761380169288234200,2.581234130859375,-0.12685279548168182,0.042101070284843445,0.17651472985744476
1761380169298254300,2.59125439453125,-0.120724156498909,0.031709033995866776,0.16580627858638763
1761380169308274200,2.601274169921875,-0.09839127212762833,0.008093797601759434,0.14119181036949158
1761380169318311200,2.611311279296875,-0.0744929164648056,-0.018818913027644157,0.12105723470449448
1761380169328344300,2.62134423828125,-0.06315160542726517,-0.03961963951587677,0.11203081905841827
1761380169338369500,2.63136962890625,-0.055674005299806595,-0.045398544520139694,0.11674387007951736
1761380169348409600,2.64140966796875,-0.05031144618988037,-0.022782541811466217,0.12960068881511688
1761380169358435300,2.651435302734375,-0.048446208238601685,0.015071784146130085,0.14089202880859375
1761380169368451600,2.66145166015625,-0.04679747298359871,0.046064700931310654,0.1440562754869461
1761380169378485800,2.67148583984375,-0.04095195233821869,0.06989643722772598,0.14167477190494537
1761380169388517600,2.681517578125,-0.03069314733147621,0.07077909260988235,0.1242714375257492
1761380169398537500,2.691537353515625,-0.016304172575473785,0.0485960952937603,0.09109685570001602
1761380169408563000,2.70156298828125,-0.009242917411029339,-0.005062786862254143,0.04418281093239784
1761380169418567400,2.7115673828125,-0.010358728468418121,-0.057922281324863434,-0.011324655264616013
1761380169428614100,2.7216142578125,-0.014988514594733715,-0.11088170111179352,-0.07619161158800125
1761380169438639900,2.731639892578125,-0.016254210844635963,-0.17100229859352112,-0.1418912708759308
1761380169448666000,2.741666015625,-0.015071784146130085,-0.23313800990581512,-0.19703234732151031
1761380169458689800,2.751689697265625,-0.015338246710598469,-0.26946017146110535,-0.23192228376865387
1761380169468707000,2.76170703125,-0.014855283312499523,-0.27327391505241394,-0.26073354482650757
1761380169478742500,2.771742431640625,-0.011208077892661095,-0.2754722535610199,-0.30524942278862
1761380169488760000,2.781760009765625,-0.006245214492082596,-0.2849150002002716,-0.35722625255584717
1761380169498794500,2.79179443359375,-0.0024980856105685234,-0.25745272636413574,-0.397312194108963
1761380169508820500,2.801820556640625,-0.009742534719407558,-0.17936255037784576,-0.4286049008369446
1761380169518838800,2.8118388671875,-0.029960375279188156,-0.09907408058643341,-0.45754939317703247
1761380169528873500,2.82187353515625,-0.053125955164432526,-0.052626337856054306,-0.47918280959129333
1761380169538897700,2.831897705078125,-0.07527565211057663,-0.03773774951696396,-0.47904956340789795
1761380169548913000,2.841912841796875,-0.09176301211118698,-0.02612997591495514,-0.43649885058403015
1761380169558951400,2.851951416015625,-0.10235489904880524,-0.008510145358741283,-0.36034053564071655
1761380169568973800,2.861973876953125,-0.10423678904771805,-0.0025147395208477974,-0.28216710686683655
1761380169578999600,2.87199951171875,-0.09660930186510086,-0.025230666622519493,-0.23012365400791168
1761380169589024000,2.88202392578125,-0.08838227391242981,-0.061436254531145096,-0.21122147142887115
1761380169599051300,2.89205126953125,-0.08968127518892288,-0.09197951853275299,-0.21741673350334167
1761380169609066200,2.902066162109375,-0.10165543854236603,-0.09759188443422318,-0.23626895248889923
1761380169619082500,2.91208251953125,-0.11442898213863373,-0.08493491262197495,-0.2560204863548279
1761380169629128400,2.92212841796875,-0.12365524470806122,-0.06769812107086182,-0.2654798924922943
1761380169639159300,2.9321591796875,-0.12790198624134064,-0.047530245035886765,-0.2584019899368286
1761380169649185300,2.942185302734375,-0.12785202264785767,-0.028794601559638977,-0.2404823899269104
1761380169659185000,2.952184814453125,-0.1278020590543747,-0.014722052030265331,-0.22108058631420135
1761380169669233700,2.962233642578125,-0.13263170421123505,-0.010275458917021751,-0.21511848270893097
1761380169679256600,2.972256591796875,-0.13909341394901276,0.0005662327748723328,-0.2188989222049713
1761380169689282600,2.982282470703125,-0.14945213496685028,0.027778713032603264,-0.22625994682312012
1761380169699307800,2.992307861328125,-0.16242553293704987,0.06241883710026741,-0.229923814535141
1761380169709333000,3.0023330078125,-0.17837996780872345,0.08263667672872543,-0.22197990119457245
1761380169719350500,3.0123505859375,-0.18655703961849213,0.09689241647720337,-0.1919529139995575
1761380169729374200,3.022374267578125,-0.18562442064285278,0.10530263930559158,-0.13331450521945953
1761380169739410400,3.032410400390625,-0.18087805807590485,0.09214605391025543,-0.05698966234922409
1761380169749427700,3.042427734375,-0.1765480488538742,0.06744831800460815,0.016004402190446854
1761380169759462100,3.052462158203125,-0.16470712423324585,0.03840390592813492,0.06641577184200287
1761380169769487400,3.0624873046875,-0.14740371704101562,0.0014155819080770016,0.08958135545253754
1761380169779512800,3.072512939453125,-0.13050000369548798,-0.034090545028448105,0.08884858340024948
1761380169789525200,3.082525146484375,-0.12109053879976273,-0.05743931606411934,0.07286083698272705
1761380169799564500,3.092564453125,-0.12015791982412338,-0.061785988509655,0.03885355964303017
1761380169809590000,3.102590087890625,-0.12115715444087982,-0.047113895416259766,-0.002964395098388195
1761380169819605500,3.11260546875,-0.12626990675926208,-0.03299138695001602,-0.0407521054148674
1761380169829641700,3.122641845703125,-0.13696171343326569,-0.04399961605668068,-0.06032044440507889
1761380169839667000,3.1326669921875,-0.14693740010261536,-0.08023851364850998,-0.04773009195923805
1761380169849694200,3.142694091796875,-0.1499517560005188,-0.13188226521015167,-0.00654498441144824
1761380169859732200,3.152732177734375,-0.1505846083164215,-0.19088706374168396,0.041601452976465225
1761380169869745700,3.16274560546875,-0.15171706676483154,-0.25557082891464233,0.07902278006076813
1761380169879767000,3.17276708984375,-0.1510009616613388,-0.31286025047302246,0.09822472929954529
1761380169889797000,3.182797119140625,-0.14077545702457428,-0.33466023206710815,0.10430340468883514
1761380169899822600,3.192822509765625,-0.12408824265003204,-0.31051206588745117,0.10383709520101547
1761380169909848600,3.2028486328125,-0.10706795752048492,-0.24709399044513702,0.09680914878845215
1761380169919848400,3.212848388671875,-0.09397798776626587,-0.1579456329345703,0.07077909260988235
1761380169929899500,3.2228994140625,-0.07867304980754852,-0.09256239980459213,0.011308001354336739
1761380169939925500,3.232925537109375,-0.0658828467130661,-0.11586121469736099,-0.08824904263019562
1761380169949951500,3.242951416015625,-0.058638397604227066,-0.25766921043395996,-0.21282024681568146
1761380169959977500,3.2529775390625,-0.07256106287240982,-0.41060203313827515,-0.3229025602340698
1761380169970002700,3.263002685546875,-0.08075478672981262,-0.5039971470832825,-0.34984856843948364
1761380169980026400,3.2730263671875,-0.1119142398238182,-0.5331081748008728,-0.29549023509025574
1761380169990036000,3.283035888671875,-0.14796994626522064,-0.47466960549354553,-0.14142495393753052
1761380170000068900,3.29306884765625,-0.18497492372989655,-0.34583500027656555,0.08461849391460419
1761380170010105300,3.303105224609375,-0.21976493299007416,-0.16275861859321594,0.3281818628311157
1761380170020131300,3.31313134765625,-0.23841729760169983,0.0015155053697526455,0.5202679634094238
1761380170030157000,3.323156982421875,-0.23213878273963928,0.08709992468357086,0.6141127347946167
1761380170040182000,3.33318212890625,-0.19888092577457428,0.11063189059495926,0.5993407368659973
1761380170050217000,3.343217041015625,-0.14976856112480164,0.07885623723268509,0.49903425574302673
1761380170060234800,3.35323486328125,-0.09817476570606232,0.022232962772250175,0.364970326423645
1761380170070259500,3.363259521484375,-0.05305933952331543,-0.03114280290901661,0.24792668223381042
1761380170080285700,3.37328564453125,-0.02103388123214245,-0.06554976850748062,0.191403329372406
1761380170090307000,3.38330712890625,-0.007344372104853392,-0.08473506569862366,0.20261140167713165
1761380170100333800,3.393333740234375,-0.01119142398238182,-0.10382044315338135,0.26531335711479187
1761380170110362400,3.4033623046875,-0.025030819699168205,-0.1303834170103073,0.35073122382164
1761380170120376800,3.413376953125,-0.0399194099009037,-0.16852086782455444,0.4406956434249878
1761380170130413800,3.423413818359375,-0.05865505337715149,-0.2024448662996292,0.5222164988517761
1761380170140438800,3.433438720703125,-0.08170405775308609,-0.22113054990768433,0.5813711881637573
1761380170150461400,3.44346142578125,-0.10858345776796341,-0.21163782477378845,0.6057524681091309
1761380170160479200,3.453479248046875,-0.1321820467710495,-0.1820271760225296,0.5848185420036316
1761380170170505000,3.4635048828125,-0.1422576606273651,-0.14059226214885712,0.5134065747261047
1761380170180534500,3.473534423828125,-0.13935987651348114,-0.10085605084896088,0.4079873561859131
1761380170190568700,3.483568603515625,-0.13264834880828857,-0.06766481697559357,0.28536465764045715
1761380170200592600,3.493592529296875,-0.12631987035274506,-0.03454019874334335,0.1724511831998825
1761380170210619400,3.503619384765625,-0.12716922163963318,0.004996171221137047,0.08410222083330154
1761380170220644600,3.51364453125,-0.14094199240207672,0.04384973272681236,0.0156546700745821
1761380170230670300,3.52367041015625,-0.16017726063728333,0.07645807415246964,-0.040302447974681854
1761380170240695800,3.53369580078125,-0.18059495091438293,0.1062186062335968,-0.08873200416564941
1761380170250712800,3.543712890625,-0.19989681243896484,0.1315658539533615,-0.12623660266399384
1761380170260747500,3.55374755859375,-0.22239623963832855,0.13556279242038727,-0.15018491446971893
1761380170270753500,3.56375341796875,-0.25087442994117737,0.09426110237836838,-0.16577297449111938
1761380170280798700,3.573798828125,-0.27453961968421936,0.024980857968330383,-0.17456622421741486
1761380170290812400,3.5838125,-0.27938589453697205,-0.029710566624999046,-0.17686447501182556
1761380170300850000,3.593849853515625,-0.25931796431541443,-0.057006314396858215,-0.1671718955039978
1761380170310876200,3.603876220703125,-0.22314566373825073,-0.0564400851726532,-0.1398928016424179
1761380170320901000,3.613901123046875,-0.17671458423137665,-0.04048564285039902,-0.09029747545719147
1761380170330926600,3.623926513671875,-0.13762786984443665,-0.01820271834731102,-0.03190888091921806
1761380170340952600,3.63395263671875,-0.11136466264724731,0.016853751614689827,0.005495788529515266
1761380170350977300,3.643977294921875,-0.09551014751195908,0.06413418799638748,0.005295941606163979
1761380170360992800,3.65399267578125,-0.07852315902709961,0.11719352751970291,-0.01916864514350891
1761380170371014400,3.664014404296875,-0.061935871839523315,0.1818106770515442,-0.050744447857141495
1761380170381055000,3.674054931640625,-0.058555129915475845,0.2565200924873352,-0.07465945184230804
1761380170391081200,3.684081298828125,-0.06769812107086182,0.3258003294467926,-0.09346171468496323
1761380170401095200,3.69409521484375,-0.08023851364850998,0.3806582987308502,-0.11424578726291656
1761380170411132200,3.704132080078125,-0.09251244366168976,0.42394179105758667,-0.13664528727531433
1761380170421140500,3.714140380859375,-0.10716787725687027,0.46647587418556213,-0.15817879140377045
1761380170431184000,3.724183837890625,-0.12925095856189728,0.4779670536518097,-0.17504920065402985
1761380170441210000,3.734210205078125,-0.17846325039863586,0.46779152750968933,-0.19037078320980072
1761380170451223300,3.744223388671875,-0.2308231145143509,0.4341173470020294,-0.19253578782081604
1761380170461260800,3.7542607421875,-0.28959473967552185,0.39143338799476624,-0.1830597221851349
1761380170471286800,3.764286865234375,-0.3467676043510437,0.3241182863712311,-0.16394104063510895
1761380170481312000,3.77431201171875,-0.4042568802833557,0.22724252939224243,-0.14014260470867157
1761380170491327200,3.7843271484375,-0.44802334904670715,0.13248181343078613,-0.10833364725112915
1761380170501369600,3.79436962890625,-0.4796990752220154,0.07494257390499115,-0.0782400444149971
1761380170511386600,3.80438671875,-0.5005664229393005,0.057056277990341187,-0.06561638414859772
1761380170521403100,3.814403076171875,-0.5046465992927551,0.07570865005254745,-0.07694104313850403
1761380170531440600,3.824440673828125,-0.4901244044303894,0.12678617238998413,-0.09947377443313599
1761380170541466400,3.83446630859375,-0.4572995603084564,0.1953503042459488,-0.12485432624816895
1761380170551480600,3.84448046875,-0.41693049669265747,0.26562976837158203,-0.15761256217956543
1761380170561517800,3.854517822265625,-0.3664691746234894,0.3022017478942871,-0.19811485707759857
1761380170571543600,3.86454345703125,-0.30937957763671875,0.30326759815216064,-0.23588590323925018
1761380170581569000,3.874569091796875,-0.24827641248703003,0.2849816083908081,-0.25861847400665283
1761380170591594800,3.8845947265625,-0.19073717296123505,0.26329824328422546,-0.26419755816459656
1761380170601621000,3.89462109375,-0.14027583599090576,0.23753464221954346,-0.258668452501297
1761380170611646000,3.90464599609375,-0.10255474597215652,0.20041309297084808,-0.24942553043365479
1761380170621661400,3.914661376953125,-0.0773407369852066,0.1524498462677002,-0.22850823402404785
1761380170631698000,3.924697998046875,-0.06756488978862762,0.0865669995546341,-0.1980648934841156
1761380170641723000,3.934722900390625,-0.07052928954362869,0.01325650792568922,-0.16120979189872742
1761380170651743700,3.94474365234375,-0.0712287500500679,-0.04897913336753845,-0.12177335470914841
1761380170661751600,3.95475146484375,-0.07342706620693207,-0.08884858340024948,-0.08668357133865356
1761380170671799800,3.9647998046875,-0.08814911544322968,-0.1330813467502594,-0.0601205974817276
1761380170681816600,3.974816650390625,-0.12743568420410156,-0.20540925860404968,-0.043483346700668335
1761380170691851300,3.984851318359375,-0.1855744570493698,-0.28634724020957947,-0.01252373680472374
1761380170701877800,3.994877685546875,-0.24359667301177979,-0.33361101150512695,0.066648930311203
1761380170711898400,4.0048984375,-0.2901110351085663,-0.32360202074050903,0.1963994950056076
1761380170721929000,4.014928955078125,-0.3101956248283386,-0.26586294174194336,0.326549768447876
1761380170731954200,4.0249541015625,-0.3030344545841217,-0.21636752784252167,0.40623870491981506
1761380170741980000,4.03497998046875,-0.2644806504249573,-0.19663265347480774,0.43581604957580566
1761380170751991800,4.04499169921875,-0.18773946166038513,-0.1809946447610855,0.45273640751838684
1761380170762031600,4.055031494140625,-0.10072281956672668,-0.139126718044281,0.4740867018699646
1761380170772056800,4.065056884765625,-0.03194218873977661,-0.08103790134191513,0.4876263439655304
1761380170782080000,4.075080078125,0.008027181960642338,-0.02897779457271099,0.47884973883628845
1761380170792108300,4.0851083984375,0.02568032033741474,0.0001498851488577202,0.44259417057037354
1761380170802134800,4.095134765625,0.024064892902970314,0.006844754796475172,0.38512155413627625
1761380170812159700,4.10515966796875,0.007144525181502104,0.010375382378697395,0.32521745562553406
1761380170822173700,4.115173583984375,-0.016420749947428703,0.023681852966547012,0.27640485763549805
1761380170832210700,4.125210693359375,-0.03595577925443649,0.05698966234922409,0.2382507622241974
1761380170842237000,4.13523681640625,-0.048196401447057724,0.11652737110853195,0.19978024065494537
1761380170852251100,4.145251220703125,-0.041135143488645554,0.18002870678901672,0.16207580268383026
1761380170862288100,4.1552880859375,-0.023482006043195724,0.2517237663269043,0.13547950983047485
1761380170872313600,4.165313720703125,0.002947741188108921,0.3240683376789093,0.12077412009239197
1761380170882335000,4.1753349609375,0.0321420356631279,0.36680224537849426,0.11181432008743286
1761380170892365000,4.185364990234375,0.058555129915475845,0.39879441261291504,0.09519372135400772
1761380170902391000,4.19539111328125,0.07917266339063644,0.44282734394073486,0.0703960582613945
1761380170912405800,4.20540576171875,0.09822472929954529,0.4829132854938507,0.03277488425374031
1761380170922442500,4.2154423828125,0.12027449905872345,0.5125738978385925,-0.004080206621438265
1761380170932467700,4.2254677734375,0.13219869136810303,0.5289613008499146,-0.029494065791368484
1761380170942494000,4.235493896484375,0.13073314726352692,0.5206177234649658,-0.04458250477910042
1761380170952519400,4.24551953125,0.12507082521915436,0.461113303899765,-0.04426607862114906
1761380170962545000,4.255544921875,0.11181432008743286,0.34776684641838074,-0.03167572617530823
1761380170972569900,4.26556982421875,0.08761619031429291,0.22317898273468018,-0.01308996882289648
1761380170982584800,4.275584716796875,0.05857178196310997,0.10285451263189316,-0.002964395098388195
1761380170992621600,4.28562158203125,0.034257080405950546,-0.01925191469490528,-0.006195252761244774
1761380171002647300,4.295647216796875,0.029743874445557594,-0.13173238933086395,-0.015171707607805729
1761380171012673800,4.305673828125,0.04056891053915024,-0.20432676374912262,-0.014355666004121304
1761380171022701300,4.315701416015625,0.04726378247141838,-0.2283250391483307,-0.01530493889003992
1761380171032724500,4.325724365234375,0.049445442855358124,-0.23521974682807922,-0.026612939313054085
1761380171042732800,4.33573291015625,0.05162710323929787,-0.2273591160774231,-0.054041922092437744
1761380171052776000,4.34577587890625,0.052076760679483414,-0.21363629400730133,-0.10110585391521454
1761380171062801700,4.3558017578125,0.05179364234209061,-0.21072185039520264,-0.17228464782238007
1761380171072827400,4.365827392578125,0.05164375901222229,-0.21994812786579132,-0.2623656094074249
1761380171082843100,4.375843017578125,0.06288514286279678,-0.20983919501304626,-0.3536456823348999
1761380171092867800,4.385867919921875,0.076158307492733,-0.15519773960113525,-0.42475783824920654
1761380171102904300,4.395904296875,0.07577526569366455,-0.06576626747846603,-0.45856526494026184
1761380171112918800,4.405918701171875,0.06618262082338333,0.05430838465690613,-0.4422944188117981
1761380171122944800,4.41594482421875,0.0535256490111351,0.1875729262828827,-0.3748960494995117
1761380171132970800,4.425970703125,0.04889586567878723,0.3001366853713989,-0.2599174976348877
1761380171143007200,4.43600732421875,0.06961332261562347,0.3898179531097412,-0.11014892905950546
1761380171153021400,4.446021484375,0.11331316828727722,0.46772491931915283,0.03272492438554764
1761380171163035600,4.45603564453125,0.1721014529466629,0.5282785296440125,0.11436236649751663
1761380171173084700,4.466084716796875,0.24334685504436493,0.5636513829231262,0.11799291521310806
1761380171183099000,4.476098876953125,0.3234354853630066,0.5753591060638428,0.07207810133695602
1761380171193135600,4.486135498046875,0.3945976197719574,0.5773409008979797,0.0005662327748723328
1761380171203161000,4.4961611328125,0.44142839312553406,0.5435001850128174,-0.08083805441856384
1761380171213182000,4.506181884765625,0.4659596085548401,0.445991575717926,-0.16725516319274902
1761380171223201000,4.516200927734375,0.47508594393730164,0.29633957147598267,-0.24419620633125305
1761380171233238300,4.52623828125,0.47032293677330017,0.13979287445545197,-0.29307541251182556
1761380171243253200,4.536253173828125,0.45696648955345154,0.022399501875042915,-0.29717227816581726
1761380171253289200,4.546289306640625,0.43366768956184387,-0.04856278747320175,-0.2601839601993561
1761380171263307000,4.55630712890625,0.40052640438079834,-0.09799157828092575,-0.20782408118247986
1761380171273341000,4.5663408203125,0.3682178258895874,-0.14875267446041107,-0.17086906731128693
1761380171283356400,4.5763564453125,0.3460681438446045,-0.198281392455101,-0.16012729704380035
1761380171293392000,4.586391845703125,0.3371916115283966,-0.23157255351543427,-0.17156852781772614
1761380171303417900,4.59641796875,0.33757466077804565,-0.2510409653186798,-0.18968798220157623
1761380171313443300,4.606443359375,0.33943989872932434,-0.24974195659160614,-0.20404364168643951
1761380171323469800,4.6164697265625,0.3353929817676544,-0.2409653514623642,-0.20332752168178558
1761380171333494800,4.626494873046875,0.32188665866851807,-0.23920004069805145,-0.1818939447402954
1761380171343520300,4.636520263671875,0.30440008640289307,-0.2516404986381531,-0.13478004932403564
1761380171353540000,4.6465400390625,0.2816675007343292,-0.27807024121284485,-0.0642174556851387
1761380171363560400,4.656560546875,0.2594345211982727,-0.3207375407218933,0.02671286277472973
1761380171373598200,4.66659814453125,0.23611906170845032,-0.3659861981868744,0.12478771060705185
1761380171383630800,4.676630859375,0.21678388118743896,-0.40345749258995056,0.20920635759830475
1761380171393648600,4.686648681640625,0.20482636988162994,-0.43018701672554016,0.2611665427684784
1761380171403674600,4.696674560546875,0.2068081945180893,-0.44164490699768066,0.2721414566040039
1761380171413695000,4.706695068359375,0.21686714887619019,-0.42865484952926636,0.24066558480262756
1761380171423725800,4.716725830078125,0.225410595536232,-0.3973788321018219,0.17143529653549194
1761380171433751300,4.726751220703125,0.229307621717453,-0.3646872043609619,0.08661695569753647
1761380171443766500,4.7367666015625,0.2263265699148178,-0.3326784074306488,0.016387442126870155
1761380171453803000,4.746802978515625,0.22371190786361694,-0.2883290648460388,-0.012723583728075027
1761380171463828700,4.756828857421875,0.2238284796476364,-0.24359667301177979,-0.004979517310857773
1761380171473854500,4.7668544921875,0.23911675810813904,-0.17088571190834045,0.03760451823472977
1761380171483876600,4.776876708984375,0.26299846172332764,-0.09088035672903061,0.09063055366277695
1761380171493905700,4.78690576171875,0.27077582478523254,-0.040602218359708786,0.12395501136779785
1761380171503931400,4.796931396484375,0.24716059863567352,-0.032042112201452255,0.12089069187641144
1761380171513934800,4.806934814453125,0.2140359878540039,-0.03080972470343113,0.09346171468496323
1761380171523982300,4.816982421875,0.20357733964920044,0.009692572988569736,0.06714854389429092
1761380171533997600,4.82699755859375,0.21358633041381836,0.0971921905875206,0.06111983209848404
1761380171544034000,4.837033935546875,0.21706698834896088,0.21217074990272522,0.07159513980150223
1761380171554048000,4.847048095703125,0.21586792171001434,0.3162909746170044,0.09038074314594269
1761380171564085800,4.857085693359375,0.22531068325042725,0.38054171204566956,0.11472874879837036
1761380171574111700,4.86711181640625,0.24764356017112732,0.39857789874076843,0.14174138009548187
1761380171584125400,4.87712548828125,0.2674283981323242,0.37193164229393005,0.17634819447994232
1761380171594162400,4.887162353515625,0.2772875130176544,0.3011525571346283,0.218965545296669
1761380171604188000,4.89718798828125,0.29459092020988464,0.20464318990707397,0.25960105657577515
1761380171614212000,4.907212158203125,0.31610777974128723,0.0860840305685997,0.2846152186393738
1761380171624239900,4.917239990234375,0.33917343616485596,-0.03858709707856178,0.2873464822769165
1761380171634265300,4.927265380859375,0.35639357566833496,-0.15553081035614014,0.2733238935470581
1761380171644274700,4.937274658203125,0.35882502794265747,-0.23505321145057678,0.24812652170658112
1761380171654305000,4.947304931640625,0.35512787103652954,-0.25986751914024353,0.21859915554523468
1761380171664331300,4.957331298828125,0.35361236333847046,-0.2508910894393921,0.18199387192726135
1761380171674368000,4.967367919921875,0.3583087623119354,-0.2228458970785141,0.13664528727531433
1761380171684393700,4.977393798828125,0.36553657054901123,-0.17385011911392212,0.09354498237371445
1761380171694419200,4.987419189453125,0.36658576130867004,-0.11196420341730118,0.056923046708106995
1761380171704445200,4.997445068359375,0.35714298486709595,-0.05992075055837631,0.024497894570231438
1761380171714459400,5.00745947265625,0.3381741940975189,-0.020101262256503105,-0.007144525181502104
1761380171724488400,5.017488525390625,0.3160744607448578,-0.005778905004262924,-0.03590581938624382
1761380171734521600,5.027521484375,0.2974054217338562,0.008476837538182735,-0.03520635515451431
1761380171744547600,5.037547607421875,0.2816508412361145,0.057755742222070694,0.011990811675786972
1761380171754573300,5.0475732421875,0.262132465839386,0.1419079303741455,0.08553445339202881
1761380171764598800,5.057598876953125,0.24461255967617035,0.2364521473646164,0.15248315036296844
1761380171774613200,5.06761328125,0.23302143812179565,0.32022127509117126,0.1864071637392044
1761380171784649700,5.077649658203125,0.2364521473646164,0.38332292437553406,0.17967897653579712
1761380171794660000,5.08766015625,0.256436824798584,0.42519083619117737,0.1401592642068863
1761380171804702500,5.097702392578125,0.28668031096458435,0.4495221972465515,0.08575095236301422
1761380171814725000,5.10772509765625,0.31402602791786194,0.45538437366485596,0.03127603232860565
1761380171824753200,5.117753173828125,0.33181241154670715,0.4442928731441498,-0.01595444045960903
1761380171834779000,5.12777880859375,0.3434368371963501,0.42220979928970337,-0.055624041706323624
1761380171844805400,5.137805419921875,0.3526630997657776,0.3968125879764557,-0.09755857288837433
1761380171854830300,5.147830322265625,0.36270537972450256,0.3630218207836151,-0.13916002213954926
1761380171864856000,5.15785595703125,0.37261447310447693,0.31522512435913086,-0.16763821244239807
1761380171874881500,5.167881591796875,0.3793093264102936,0.2701096832752228,-0.17276760935783386
1761380171884895700,5.177895751953125,0.38402238488197327,0.24989184737205505,-0.15471477806568146
1761380171894915600,5.18791552734375,0.39324864745140076,0.24604478478431702,-0.11984150111675262
1761380171904958500,5.19795849609375,0.40690484642982483,0.2358359396457672,-0.0843520313501358
1761380171914974700,5.207974609375,0.4232589900493622,0.21290351450443268,-0.05987078696489334
1761380171925010000,5.218010009765625,0.4415283203125,0.1847417652606964,-0.05189356580376625
1761380171935036000,5.228035888671875,0.45941463112831116,0.1545981913805008,-0.06111983209848404
1761380171945071000,5.238071044921875,0.47981566190719604,0.12781871855258942,-0.08012193441390991
1761380171955086300,5.24808642578125,0.5051628947257996,0.11449559777975082,-0.09529364109039307
1761380171965112800,5.25811279296875,0.5249810218811035,0.1199580729007721,-0.09980685263872147
1761380171975126500,5.26812646484375,0.5357061624526978,0.14049233496189117,-0.09685911238193512
1761380171985164300,5.278164306640625,0.5423344373703003,0.1737002283334732,-0.08423545211553574
1761380171995189500,5.288189453125,0.5496121644973755,0.21157120168209076,-0.07299406826496124
1761380172005216000,5.298216064453125,0.555407702922821,0.22379517555236816,-0.06798124313354492
1761380172015232300,5.308232177734375,0.5568066835403442,0.2204144299030304,-0.07269429415464401
1761380172025267000,5.318266845703125,0.5516106486320496,0.21225401759147644,-0.08716654032468796
1761380172035292400,5.32829248046875,0.5417348742485046,0.1945176124572754,-0.10713457316160202
1761380172045319000,5.33831884765625,0.5262300968170166,0.16600611805915833,-0.1231556236743927
1761380172055344600,5.3483447265625,0.5092098116874695,0.14503885805606842,-0.12423813343048096
1761380172065370400,5.358370361328125,0.4968692362308502,0.12653636932373047,-0.10791730135679245
1761380172075394800,5.368394775390625,0.4926391541957855,0.10680149495601654,-0.07945577800273895
1761380172085416200,5.378416259765625,0.49577009677886963,0.09033077955245972,-0.047446973621845245
1761380172095436500,5.3884365234375,0.4988677203655243,0.0818539410829544,-0.022699272260069847
1761380172105473000,5.39847314453125,0.4955369234085083,0.08030512928962708,-0.016220903024077415
1761380172115489000,5.408489013671875,0.48892533779144287,0.0708124041557312,-0.029460757970809937
1761380172125524200,5.418524169921875,0.48259684443473816,0.05505780875682831,-0.04103522002696991
1761380172135550700,5.42855078125,0.4838792085647583,0.05557408183813095,-0.03515639156103134
1761380172145563400,5.4385634765625,0.48850899934768677,0.07242783159017563,-0.01219065859913826
1761380172155581700,5.448581787109375,0.5000834465026855,0.08005531877279282,0.01483862940222025
1761380172165614800,5.45861474609375,0.5269795060157776,0.07399329543113708,0.04175134003162384
1761380172175646500,5.468646484375,0.5655332803726196,0.06583288311958313,0.07479268312454224
1761380172185677000,5.478677001953125,0.6037539839744568,0.07202813774347305,0.11144793033599854
1761380172195703300,5.488703369140625,0.6335644721984863,0.08861542493104935,0.14597147703170776
1761380172205728500,5.498728515625,0.6553811430931091,0.10748430341482162,0.1718849539756775
1761380172215742700,5.50874267578125,0.6683045625686646,0.11629422008991241,0.17829670011997223
1761380172225780000,5.518780029296875,0.6751493215560913,0.0976085364818573,0.15817879140377045
1761380172235806000,5.528805908203125,0.6756988763809204,0.0403357557952404,0.11661063879728317
1761380172245813200,5.538813232421875,0.6638413071632385,-0.04311696067452431,0.06628254055976868
1761380172255858200,5.548858154296875,0.6338143348693848,-0.12437136471271515,0.01308996882289648
1761380172265871400,5.558871337890625,0.5940614342689514,-0.16998641192913055,-0.03862040489912033
1761380172275899000,5.56889892578125,0.556240439414978,-0.17031948268413544,-0.09624291956424713
1761380172285923600,5.578923583984375,0.5232490301132202,-0.1375279426574707,-0.1597442477941513
1761380172295959800,5.588959716796875,0.5071114301681519,-0.08167074620723724,-0.20749099552631378
1761380172305985500,5.598985595703125,0.5199682116508484,-0.021050535142421722,-0.22954076528549194
1761380172316011300,5.60901123046875,0.5598709583282471,0.035755932331085205,-0.22276262938976288
1761380172326015200,5.61901513671875,0.6113648414611816,0.073310486972332,-0.19418452680110931
1761380172336062500,5.6290625,0.6721349358558655,0.08986447006464005,-0.14497223496437073
1761380172346088400,5.63908837890625,0.7216137051582336,0.11196420341730118,-0.07704096287488937
1761380172356114400,5.649114501953125,0.7506414651870728,0.14339011907577515,0.0025147395208477974
1761380172366133000,5.659133056640625,0.7554044723510742,0.16718855500221252,0.07469276338815689
1761380172376165000,5.6691650390625,0.737618088722229,0.18017859756946564,0.1264864057302475
1761380172386190800,5.67919091796875,0.7034609317779541,0.1848083883523941,0.15732944011688232
1761380172396195600,5.689195556640625,0.664890468120575,0.18655703961849213,0.17081910371780396
1761380172406242600,5.69924267578125,0.6343472599983215,0.19661599397659302,0.17879632115364075
1761380172416267800,5.709267822265625,0.6179431676864624,0.21516844630241394,0.19158652424812317
1761380172426293500,5.71929345703125,0.6030045747756958,0.2208307832479477,0.21217074990272522
1761380172436308000,5.729307861328125,0.5933786034584045,0.2524065673351288,0.23428712785243988
1761380172446344700,5.7393447265625,0.6031544804573059,0.2881625294685364,0.24647779762744904
1761380172456368400,5.749368408203125,0.6046033501625061,0.3174067735671997,0.2356860637664795
1761380172466385000,5.759385009765625,0.5927124619483948,0.3332279920578003,0.20670826733112335
1761380172476422100,5.769422119140625,0.5699799060821533,0.33146268129348755,0.17461618781089783
1761380172486447900,5.77944775390625,0.5438998937606812,0.3142092227935791,0.15806220471858978
1761380172496473000,5.78947314453125,0.5186691880226135,0.29069390892982483,0.15614701807498932
1761380172506499300,5.799499267578125,0.49598658084869385,0.25398871302604675,0.14826971292495728
1761380172516502500,5.80950244140625,0.4784000813961029,0.19606642425060272,0.12079077214002609
1761380172526527700,5.81952783203125,0.456516832113266,0.1398095339536667,0.0732438713312149
1761380172536554500,5.829554443359375,0.42352545261383057,0.11056527495384216,0.016770482063293457
1761380172546578700,5.83957861328125,0.385654479265213,0.14222434163093567,-0.03792094066739082
1761380172556606500,5.8496064453125,0.36227238178253174,0.21969830989837646,-0.09627622365951538
1761380172566621400,5.859621337890625,0.36095672845840454,0.2796357274055481,-0.1536988914012909
1761380172576644600,5.86964453125,0.3759119510650635,0.2899777889251709,-0.20685815811157227
1761380172586670800,5.8796708984375,0.40302449464797974,0.2731240391731262,-0.2522900104522705
1761380172596706300,5.889706298828125,0.43281832337379456,0.2614496648311615,-0.2945076525211334
1761380172606740500,5.899740478515625,0.4610466957092285,0.23128943145275116,-0.33471018075942993
1761380172616766700,5.9097666015625,0.48329630494117737,0.24219773709774017,-0.34478577971458435
1761380172626807300,5.919807373046875,0.4836793541908264,0.2960065007209778,-0.32959744334220886
1761380172636832800,5.929832763671875,0.47212153673171997,0.37254786491394043,-0.290260910987854
1761380172646850600,5.9398505859375,0.4607635736465454,0.416247695684433,-0.2434634417295456
1761380172656865500,5.949865478515625,0.4585985839366913,0.42405837774276733,-0.19296880066394806
1761380172666898700,5.959898681640625,0.4662427306175232,0.41996151208877563,-0.13438035547733307
1761380172676946000,5.96994580078125,0.4809814393520355,0.4145157039165497,-0.07204478979110718
1761380172686961400,5.97996142578125,0.5028313398361206,0.3934984505176544,-0.01678713597357273
1761380172696972800,5.989972900390625,0.5326585173606873,0.34347012639045715,0.03269161656498909
1761380172707013000,6.00001318359375,0.5577059388160706,0.25640350580215454,0.08183728903532028
1761380172717038000,6.0100380859375,0.5762584209442139,0.14747032523155212,0.12750229239463806
1761380172727053000,6.020052978515625,0.5906473994255066,0.043433383107185364,0.16325822472572327
1761380172737089500,6.030089599609375,0.606168806552887,-0.023565275594592094,0.18685680627822876
1761380172747115300,6.040115234375,0.6211073994636536,-0.030026990920305252,0.20336082577705383
1761380172757129200,6.050129150390625,0.6296175122261047,0.011807618662714958,0.21113820374011993
1761380172767166700,6.060166748046875,0.627585768699646,0.0737268403172493,0.2091064304113388
1761380172777192700,6.070192626953125,0.6209741234779358,0.13194888830184937,0.20515945553779602
1761380172787218200,6.08021826171875,0.6133300065994263,0.18484169244766235,0.21188762784004211
1761380172797232600,6.090232666015625,0.5976586937904358,0.21801626682281494,0.22344544529914856
1761380172807269600,6.10026953125,0.5733439922332764,0.21566806733608246,0.2378510683774948
1761380172817295400,6.11029541015625,0.5447658896446228,0.1911868304014206,0.25911810994148254
1761380172827307500,6.1203076171875,0.515754759311676,0.16130971908569336,0.28523144125938416
1761380172837346600,6.1303466796875,0.4869268834590912,0.1374613344669342,0.3084636330604553
1761380172847371800,6.140371826171875,0.4592147767543793,0.11747664213180542,0.3210706412792206
1761380172857397500,6.1503974609375,0.4337676167488098,0.09944046288728714,0.31417590379714966
1761380172867420400,6.16042041015625,0.40503960847854614,0.07697434723377228,0.2860807776451111
1761380172877449500,6.170449462890625,0.36352142691612244,0.05176033452153206,0.23711830377578735
1761380172887475000,6.180474853515625,0.31900554895401,0.07114548236131668,0.1852247267961502
1761380172897489200,6.1904892578125,0.2795690894126892,0.15583059191703796,0.1380775272846222
1761380172907526100,6.200526123046875,0.24382981657981873,0.22567705810070038,0.09461083263158798
1761380172917540400,6.210540283203125,0.21358633041381836,0.2362356334924698,0.05655666068196297
1761380172927550200,6.22055029296875,0.2041768729686737,0.20482636988162994,0.03572262451052666
1761380172937591800,6.230591796875,0.20582561194896698,0.1684209406375885,0.038387250155210495
1761380172947628800,6.24062890625,0.2127869427204132,0.13626225292682648,0.07214471697807312
1761380172957642800,6.250642822265625,0.2208307832479477,0.12851817905902863,0.12840160727500916
1761380172967680300,6.26068017578125,0.23073984682559967,0.1530826985836029,0.18629057705402374
1761380172977705500,6.27070556640625,0.23711830377578735,0.17100229859352112,0.22174674272537231
1761380172987732200,6.280732177734375,0.2336709350347519,0.1599441021680832,0.2226460576057434
1761380172997741000,6.290740966796875,0.2287413775920868,0.14533862471580505,0.18364261090755463
1761380173007783000,6.300782958984375,0.23143932223320007,0.14415620267391205,0.11068185418844223
1761380173017809000,6.310808837890625,0.2370183765888214,0.16718855500221252,0.013206546194851398
1761380173027831300,6.320831298828125,0.26737844944000244,0.23815083503723145,-0.06438399851322174
1761380173037848800,6.330848876953125,0.3101789653301239,0.34353673458099365,-0.09849119186401367
1761380173047885000,6.340885009765625,0.35374557971954346,0.43365103006362915,-0.08799923211336136
1761380173057911800,6.350911865234375,0.3971123695373535,0.47675132751464844,-0.036172281950712204
1761380173067926800,6.3609267578125,0.4367486536502838,0.4724213182926178,0.04138495400547981
1761380173077963300,6.37096337890625,0.46690887212753296,0.43400076031684875,0.1211405023932457
1761380173087988500,6.380988525390625,0.48399579524993896,0.3613564372062683,0.18540792167186737
1761380173098014200,6.39101416015625,0.49064069986343384,0.2550545632839203,0.22038112580776215
1761380173108029000,6.40102880859375,0.4872766137123108,0.13902679085731506,0.22179670631885529
1761380173118065700,6.411065673828125,0.47710105776786804,0.0637344941496849,0.20032982528209686
1761380173128091100,6.421091064453125,0.46044716238975525,0.05197683721780777,0.16735509037971497
1761380173138116600,6.43111669921875,0.44412633776664734,0.07474272698163986,0.1303001493215561
1761380173148143400,6.441143310546875,0.43933001160621643,0.09925727546215057,0.10850019007921219
1761380173158145500,6.4511455078125,0.44655779004096985,0.12060757726430893,0.10911638289690018
1761380173168182000,6.46118212890625,0.4631783962249756,0.13644544780254364,0.13013361394405365
1761380173178219300,6.47121923828125,0.4814643859863281,0.13358096778392792,0.1627919226884842
1761380173188245500,6.48124560546875,0.49272242188453674,0.11464548110961914,0.20064625144004822
1761380173198264000,6.49126416015625,0.4975354075431824,0.10058958828449249,0.23806756734848022
1761380173208297200,6.501297119140625,0.49320539832115173,0.10157216340303421,0.2633815109729767
1761380173218322400,6.511322509765625,0.47758403420448303,0.10483632981777191,0.26511350274086
1761380173228344000,6.521343994140625,0.4534691870212555,0.1112813949584961,0.2277088463306427
1761380173238373000,6.531373046875,0.42887136340141296,0.13464681804180145,0.16444066166877747
1761380173248399000,6.541399169921875,0.4043734669685364,0.1954169124364853,0.10625191032886505
1761380173258418200,6.551418212890625,0.3717651069164276,0.2863805592060089,0.06033709645271301
1761380173268459800,6.561459716796875,0.32381853461265564,0.3454519510269165,0.015787901356816292
1761380173278476300,6.571476318359375,0.2842321991920471,0.36470386385917664,-0.02692936360836029
1761380173288490200,6.581490234375,0.2758719325065613,0.3817408084869385,-0.06669888645410538
1761380173298516000,6.591515869140625,0.2871299684047699,0.40089279413223267,-0.1087833046913147
1761380173308553200,6.60155322265625,0.31007906794548035,0.3737136125564575,-0.1457882821559906
1761380173318578700,6.61157861328125,0.34020596742630005,0.30341750383377075,-0.18172740936279297
1761380173328606200,6.621606201171875,0.3652367889881134,0.23282158374786377,-0.232771635055542
1761380173338630000,6.6316298828125,0.3813244700431824,0.17408326268196106,-0.3039837181568146
1761380173348657400,6.641657470703125,0.39894428849220276,0.15544754266738892,-0.3792760372161865
1761380173358672600,6.651672607421875,0.4215436279773712,0.20595884323120117,-0.43380090594291687
1761380173368707800,6.661707763671875,0.4375147223472595,0.31499195098876953,-0.4611799418926239
1761380173378732800,6.67173291015625,0.44967207312583923,0.42322567105293274,-0.46502697467803955
1761380173388759000,6.681759033203125,0.470139741897583,0.4706226885318756,-0.4347168803215027
1761380173398781400,6.691781494140625,0.5000334978103638,0.4675750434398651,-0.37228140234947205
1761380173408810000,6.70181005859375,0.5352898240089417,0.4461914300918579,-0.28503158688545227
1761380173418822000,6.71182177734375,0.5668822526931763,0.421943336725235,-0.19545023143291473
1761380173428852500,6.7218525390625,0.5880993604660034,0.3921661376953125,-0.11869238317012787
1761380173438886700,6.73188671875,0.6023550629615784,0.35159724950790405,-0.06391768902540207
1761380173448912600,6.74191259765625,0.619425356388092,0.3056491017341614,-0.025480475276708603
1761380173458927400,6.75192724609375,0.6381776332855225,0.2589515745639801,0.0027145864441990852
1761380173468964000,6.761964111328125,0.6580290794372559,0.2115378975868225,0.02822836861014366
1761380173478989800,6.77198974609375,0.680478572845459,0.1769643872976303,0.056806471198797226
1761380173489006300,6.78200634765625,0.6926858425140381,0.17380015552043915,0.09014758467674255
1761380173499041000,6.792041015625,0.7053594589233398,0.2192986160516739,0.11644410341978073
1761380173509067500,6.802067626953125,0.7131868004798889,0.3253673315048218,0.12125708162784576
1761380173519092000,6.812092041015625,0.7187991738319397,0.47390350699424744,0.08999770134687424
1761380173529103600,6.822103515625,0.7332214713096619,0.600689709186554,0.020101262256503105
1761380173539143400,6.832143310546875,0.7586186528205872,0.6292011737823486,-0.06987978518009186
1761380173549169400,6.84216943359375,0.7838659882545471,0.5595712065696716,-0.1505013406276703
1761380173559195000,6.85219482421875,0.7984714508056641,0.44515886902809143,-0.20022989809513092
1761380173569209300,6.862209228515625,0.8002367615699768,0.3407388925552368,-0.21793299913406372
1761380173579234800,6.87223486328125,0.8025683164596558,0.2762882709503174,-0.20635853707790375
1761380173589271600,6.882271484375,0.8037673830986023,0.225410595536232,-0.18365925550460815
1761380173599298300,6.89229833984375,0.816307783126831,0.1990974247455597,-0.15581393241882324
1761380173609333200,6.902333251953125,0.8365423083305359,0.2032109498977661,-0.12800191342830658
1761380173619339300,6.91233935546875,0.8612233996391296,0.21220405399799347,-0.1074010357260704
1761380173629374700,6.922374755859375,0.888136088848114,0.2131200134754181,-0.09759188443422318
1761380173639400400,6.932400390625,0.9218935370445251,0.24343012273311615,-0.08874865621328354
1761380173649423600,6.942423583984375,0.9468244314193726,0.30644848942756653,-0.08153751492500305
1761380173659452200,6.9524521484375,0.9771345853805542,0.3838225305080414,-0.06951339542865753
1761380173669477400,6.962477294921875,1.0124075412750244,0.4318191111087799,-0.053125955164432526
1761380173679504100,6.972504150390625,1.0385874509811401,0.4117344915866852,-0.0588715523481369
1761380173689529000,6.982529052734375,1.0720118284225464,0.31985488533973694,-0.0885821208357811
1761380173699554800,6.992554931640625,1.0893152952194214,0.1622423380613327,-0.12367189675569534
1761380173709569300,7.0025693359375,1.0538424253463745,0.021616768091917038,-0.1125304326415062
1761380173719606000,7.01260595703125,1.004896640777588,-0.1327316164970398,-0.09610968828201294
1761380173729631200,7.02263134765625,0.9704729914665222,-0.1775805801153183,-0.06982982158660889
1761380173739648000,7.03264794921875,0.9502052068710327,-0.10731776058673859,-0.010575229302048683
1761380173749672700,7.042672607421875,0.9269896745681763,0.04065218195319176,0.10478636622428894
1761380173759708700,7.052708740234375,0.9112350344657898,0.18962135910987854,0.25657007098197937
