time,seconds_elapsed,z,y,x
1761379013638618000,0.0906181640625,-0.0004330015217419714,-0.0014655436389148235,0.0009992342675104737
1761379013658688300,0.110688232421875,0.0003663859097287059,0.0006328483577817678,-0.0005995405954308808
1761379013668693800,0.12069384765625,-0.00011657733557512984,-0.00024980856687761843,0.0002831163874361664
1761379013678740200,0.130740234375,0.00016653904458507895,0.0006994639988988638,0.0002831163874361664
1761379013688766500,0.140766357421875,-0.0002165007608709857,0.00044965543202124536,0.0005495788645930588
1761379013698792400,0.15079248046875,0.00046630934230051935,-0.00019984686514362693,0.0003330780891701579
1761379013708804000,0.16080419921875,-0.00023315467115025967,0.0003164241788908839,-0.0002165007608709857
1761379013718845700,0.170845703125,0.0007327718194574118,0.00004996171628590673,-0.0000666156192892231
1761379013728871700,0.18087158203125,0.00046630934230051935,-0.0006328483577817678,-0.00009992343257181346
1761379013738898200,0.190898193359375,0.0002165007608709857,0.0003330780891701579,-0.0002997702977154404
1761379013748927700,0.200927734375,0.0005162710440345109,0.0001498851488577202,-0.0001498851488577202
1761379013758953700,0.21095361328125,-0.000016653904822305776,-0.0000666156192892231,-0.0001498851488577202
1761379013768966100,0.220966064453125,0.00018319295486435294,-0.0003497319994494319,-0.0006161945057101548
1761379013778980900,0.23098095703125,0.00019984686514362693,0.00008326952229253948,0.0007660796400159597
1761379013789027300,0.24102734375,-0.00039969373028725386,-0.0002664624771568924,0.0005329249543137848
1761379013799054000,0.25105419921875,0.0005495788645930588,-0.0008660030434839427,-0.0007494257297366858
1761379013809080600,0.26108056640625,-0.00004996171628590673,0.0000666156192892231,-0.0015821210108697414
1761379013819106600,0.2711064453125,0.0001332312385784462,0.0004163476114626974,-0.0008993108640424907
1761379013829132500,0.281132568359375,0.00004996171628590673,0.00046630934230051935,0.0004996171337552369
1761379013839138300,0.29113818359375,-0.00009992343257181346,0.0009159647743217647,-0.00038303982000797987
1761379013849185300,0.301185302734375,-0.0003663859097287059,0.00018319295486435294,-0.00003330780964461155
1761379013859211500,0.31121142578125,-0.00018319295486435294,-0.00003330780964461155,-0.0001498851488577202
1761379013869217000,0.321217041015625,-0.0001332312385784462,0.0005495788645930588,0.0000666156192892231
1761379013879263700,0.331263671875,0.00011657733557512984,-0.0005329249543137848,-0.0003663859097287059
1761379013889290000,0.3412900390625,0.0002165007608709857,-0.00024980856687761843,-0.00003330780964461155
1761379013899316000,0.35131591796875,-0.00023315467115025967,0.0005495788645930588,0.0005828866851516068
1761379013909314000,0.36131396484375,-0.0006828100886195898,-0.0003497319994494319,0.00044965543202124536
1761379013919368400,0.371368408203125,-0.0003164241788908839,-0.0002831163874361664,0.0004996171337552369
1761379013929394700,0.381394775390625,-0.00019984686514362693,0.00009992343257181346,0.0007993874605745077
1761379013939421400,0.39142138671875,0.00018319295486435294,-0.00009992343257181346,0.0009326186846010387
1761379013949447000,0.401447021484375,0.0003497319994494319,-0.00039969373028725386,0.0009492725948803127
1761379013959473200,0.41147314453125,0.0005662327748723328,0.00009992343257181346,0.0003497319994494319
1761379013969499400,0.42149951171875,0.0001332312385784462,0.00024980856687761843,-0.00011657733557512984
1761379013979525400,0.431525390625,0.0001332312385784462,-0.0004996171337552369,-0.00024980856687761843
1761379013989551900,0.4415517578125,-0.00009992343257181346,-0.00003330780964461155,-0.0002165007608709857
1761379013999578000,0.451578125,-0.00009992343257181346,0.0000666156192892231,-0.0002831163874361664
1761379014009603800,0.461603759765625,0.00023315467115025967,0.0002165007608709857,-0.00011657733557512984
1761379014019619600,0.47161962890625,0.00046630934230051935,0.0001332312385784462,-0.0003497319994494319
1761379014029658000,0.481658203125,0.00023315467115025967,-0.00038303982000797987,-0.0006161945057101548
1761379014039666200,0.491666259765625,-0.0000666156192892231,0.00011657733557512984,-0.00008326952229253948
1761379014049711400,0.50171142578125,0.00019984686514362693,-0.00024980856687761843,-0.0002165007608709857
1761379014059735800,0.51173583984375,-0.0006328483577817678,0.0005828866851516068,0.0006994639988988638
1761379014069785300,0.521785400390625,0.0004163476114626974,-0.000016653904822305776,-0.00039969373028725386
1761379014079787300,0.531787353515625,0.0005662327748723328,-0.0018985451897606254,0
1761379014089813500,0.5418134765625,0.0004330015217419714,0.0004330015217419714,0.0002831163874361664
1761379014099839500,0.551839599609375,0.0004330015217419714,-0.00038303982000797987,0.0004996171337552369
1761379014109866500,0.561866455078125,0.00048296325257979333,-0.0006495022680610418,0.00003330780964461155
1761379014119892000,0.57189208984375,-0.0003663859097287059,0.0005329249543137848,-0.00004996171628590673
1761379014129922600,0.581922607421875,-0.00039969373028725386,-0.00011657733557512984,0.00023315467115025967
1761379014139947800,0.59194775390625,0.0001498851488577202,-0.000016653904822305776,-0.0008493491332046688
1761379014149966800,0.601966796875,0.0004163476114626974,0.0010825038189068437,-0.0003330780891701579
1761379014159976200,0.61197607421875,0.0005662327748723328,-0.00019984686514362693,-0.0002997702977154404
1761379014170026500,0.622026611328125,0.0009159647743217647,-0.0004330015217419714,-0.0003164241788908839
1761379014180049400,0.63204931640625,0.00019984686514362693,0.0009326186846010387,-0.00019984686514362693
1761379014190075600,0.64207568359375,0.00011657733557512984,0.00011657733557512984,-0.0002831163874361664
1761379014200081400,0.652081298828125,-0.00009992343257181346,-0.0002997702977154404,-0.00046630934230051935
1761379014210127600,0.662127685546875,-0.0000666156192892231,0.00038303982000797987,-0.0002664624771568924
1761379014220153600,0.672153564453125,-0.0003330780891701579,-0.00046630934230051935,-0.0005995405954308808
1761379014230179800,0.682179931640625,0.0002831163874361664,-0.0009992342675104737,-0.0004163476114626974
1761379014240175400,0.69217529296875,-0.0000666156192892231,-0.00009992343257181346,0.0002997702977154404
1761379014250243600,0.70224365234375,0.0001332312385784462,0.0003164241788908839,-0.0003330780891701579
1761379014260260000,0.712260009765625,-0.0004330015217419714,-0.0002831163874361664,0.0003497319994494319
1761379014270290200,0.722290283203125,0.0001498851488577202,-0.0001332312385784462,0.00003330780964461155
1761379014280313000,0.73231298828125,0.0005495788645930588,0.0001332312385784462,0.0004996171337552369
1761379014290340000,0.742340087890625,-0.0005162710440345109,-0.0003663859097287059,0.0005662327748723328
1761379014300365300,0.752365234375,-0.00019984686514362693,0.0003330780891701579,0.0001498851488577202
1761379014310391300,0.762391357421875,0.0005828866851516068,-0.0005828866851516068,0.00016653904458507895
1761379014320418000,0.77241796875,0,0.00023315467115025967,0.00019984686514362693
1761379014330443800,0.78244384765625,0.0003164241788908839,0.00011657733557512984,-0.0005162710440345109
1761379014340470000,0.792469970703125,0.0002664624771568924,-0.00039969373028725386,-0.00039969373028725386
1761379014350496500,0.80249658203125,-0.0005495788645930588,-0.0001332312385784462,0.0006828100886195898
1761379014360500700,0.812500732421875,0.0003663859097287059,0.000016653904822305776,0.0002664624771568924
1761379014370525700,0.822525634765625,0.0003164241788908839,0.00019984686514362693,-0.0010325420880690217
1761379014380553200,0.83255322265625,0.0006161945057101548,0.00018319295486435294,-0.0003663859097287059
1761379014390580200,0.842580322265625,0.0004996171337552369,0.0005828866851516068,0.0003663859097287059
1761379014400620800,0.852620849609375,0.0005995405954308808,0.0004996171337552369,0.00008326952229253948
1761379014410657000,0.862656982421875,0.000016653904822305776,0.00008326952229253948,0.0007161179091781378
1761379014420679700,0.8726796875,-0.0003497319994494319,0,0.0006161945057101548
1761379014430707700,0.882707763671875,-0.0009992342675104737,0.00004996171628590673,-0.0003663859097287059
1761379014440744000,0.892743896484375,-0.00044965543202124536,0.0001498851488577202,0.0007993874605745077
1761379014450758100,0.902758056640625,-0.00044965543202124536,-0.0002831163874361664,0.0003663859097287059
1761379014460784600,0.91278466796875,-0.0003663859097287059,0.0005162710440345109,0.00024980856687761843
1761379014470801200,0.92280126953125,0.00019984686514362693,-0.0008326952229253948,-0.0009825803572311997
1761379014480836400,0.93283642578125,-0.0004163476114626974,-0.0001498851488577202,0.000016653904822305776
1761379014490862300,0.9428623046875,0.0001332312385784462,-0.0002831163874361664,0.0006661561783403158
1761379014500888600,0.952888671875,0.0001498851488577202,0.00004996171628590673,0.0002831163874361664
1761379014510914800,0.962914794921875,-0.00004996171628590673,-0.00009992343257181346,0.00044965543202124536
1761379014520943900,0.97294384765625,0.0000666156192892231,0.0000666156192892231,0.0004330015217419714
1761379014530971400,0.982971435546875,-0.00046630934230051935,-0.0002831163874361664,0.00039969373028725386
1761379014540972000,0.992971923828125,-0.00018319295486435294,0.000016653904822305776,-0.00009992343257181346
1761379014551041000,1.003041015625,-0.0004330015217419714,-0.0002997702977154404,0.00018319295486435294
1761379014561040400,1.013040283203125,0.0005495788645930588,-0.00024980856687761843,-0.00009992343257181346
1761379014571036200,1.0230361328125,0.0000666156192892231,-0.0001332312385784462,-0.00024980856687761843
1761379014581098000,1.033097900390625,0.00003330780964461155,-0.0002165007608709857,-0.0007494257297366858
1761379014591124500,1.04312451171875,-0.0001332312385784462,-0.00018319295486435294,-0.0001332312385784462
1761379014601128700,1.053128662109375,0.00019984686514362693,0.0002997702977154404,0.00019984686514362693
1761379014611177000,1.063177001953125,0.0007327718194574118,0.00044965543202124536,0.0005662327748723328
1761379014621202400,1.073202392578125,0.00004996171628590673,0.0007660796400159597,0.0006994639988988638
1761379014631229000,1.08322900390625,0.0001332312385784462,-0.00003330780964461155,-0.00004996171628590673
1761379014641256200,1.093256103515625,0.0002165007608709857,-0.0009492725948803127,-0.00008326952229253948
1761379014651281200,1.10328125,0.0003330780891701579,0.0010491959983482957,0.0005495788645930588
1761379014661307400,1.113307373046875,0,0.0002664624771568924,0.0002664624771568924
1761379014671334000,1.123333984375,0.0006828100886195898,-0.0003663859097287059,-0.0006994639988988638
1761379014681360400,1.1333603515625,0.00016653904458507895,0.0004330015217419714,-0.0003164241788908839
1761379014691386000,1.14338623046875,0.00019984686514362693,0.0002165007608709857,-0.0002831163874361664
1761379014701412400,1.153412353515625,-0.00016653904458507895,-0.00024980856687761843,-0.0005495788645930588
1761379014711438800,1.16343896484375,-0.0001332312385784462,-0.0002831163874361664,0.0003663859097287059
1761379014721464800,1.17346484375,0.0003330780891701579,-0.00024980856687761843,0.0002165007608709857
1761379014731490600,1.183490478515625,-0.00016653904458507895,-0.0000666156192892231,-0.0004330015217419714
1761379014741517600,1.193517578125,0.00016653904458507895,0.00046630934230051935,0.0000666156192892231
1761379014751543600,1.20354345703125,0.0000666156192892231,0.00039969373028725386,-0.00039969373028725386
1761379014761569300,1.2135693359375,-0.0006328483577817678,-0.00018319295486435294,-0.0007327718194574118
1761379014771621600,1.22362158203125,-0.00019984686514362693,0.00048296325257979333,0.00011657733557512984
1761379014781582000,1.23358203125,0.0002165007608709857,0.00009992343257181346,0.0001498851488577202
1761379014791651000,1.243651123046875,-0.00008326952229253948,-0.0010325420880690217,-0.00024980856687761843
1761379014801652500,1.253652587890625,-0.00038303982000797987,0.0016487365355715156,0.00008326952229253948
1761379014811703000,1.263703125,-0.000016653904822305776,-0.0003164241788908839,-0.0005329249543137848
1761379014821729500,1.2737294921875,-0.00008326952229253948,-0.0010991577291861176,-0.00008326952229253948
1761379014831752400,1.28375244140625,0.0003497319994494319,0.0008826569537632167,0.0006661561783403158
1761379014841778400,1.2937783203125,-0.0003663859097287059,-0.00039969373028725386,0.0005329249543137848
1761379014851805200,1.30380517578125,-0.00019984686514362693,-0.0010491959983482957,0.0007327718194574118
1761379014861831400,1.31383154296875,0.0003330780891701579,0.0007993874605745077,-0.0000666156192892231
1761379014871858000,1.32385791015625,0.0002165007608709857,-0.00016653904458507895,0.00024980856687761843
1761379014881885200,1.33388525390625,-0.0002831163874361664,-0.0002997702977154404,0.0007327718194574118
1761379014891914500,1.34391455078125,0.00048296325257979333,0.00039969373028725386,0.00004996171628590673
1761379014901944600,1.353944580078125,-0.0003497319994494319,-0.0005662327748723328,0.0005995405954308808
1761379014911969800,1.3639697265625,-0.00004996171628590673,-0.00044965543202124536,0.0007494257297366858
1761379014921970000,1.373969970703125,0.0002997702977154404,0.0005495788645930588,-0.0002997702977154404
1761379014932005600,1.384005615234375,-0.0003164241788908839,0,-0.00009992343257181346
1761379014942039300,1.394039306640625,0.0007827335502952337,-0.00018319295486435294,-0.0006161945057101548
1761379014952066600,1.404066650390625,0.0006495022680610418,0.0005329249543137848,-0.00019984686514362693
1761379014962092800,1.4140927734375,0.0002831163874361664,0.00003330780964461155,-0.0002165007608709857
1761379014972117500,1.424117431640625,0.000016653904822305776,0.0004996171337552369,-0.0005995405954308808
1761379014982146600,1.434146484375,0.00018319295486435294,-0.00023315467115025967,0.00018319295486435294
1761379014992171500,1.444171630859375,0.0007161179091781378,-0.00018319295486435294,0.0001498851488577202
1761379015002198300,1.4541982421875,-0.0002165007608709857,0.0003330780891701579,0.0009659265051595867
1761379015012224300,1.464224365234375,0.00023315467115025967,0.00018319295486435294,0.00009992343257181346
1761379015022250000,1.47425,0.00024980856687761843,-0.0015155053697526455,0.0005162710440345109
1761379015032275700,1.484275634765625,0.0009159647743217647,0.0003330780891701579,0.0011158116394653916
1761379015042303500,1.494303466796875,-0.0002664624771568924,-0.0010825038189068437,0.0008993108640424907
1761379015052329200,1.5043291015625,-0.0011324655497446656,-0.00008326952229253948,0.0000666156192892231
1761379015062355200,1.514355224609375,-0.00004996171628590673,0.0009825803572311997,0.0009492725948803127
1761379015072381000,1.524380859375,0.00003330780964461155,-0.0009159647743217647,0.0005329249543137848
1761379015082387000,1.534386962890625,-0.0002165007608709857,-0.0006495022680610418,-0.00008326952229253948
1761379015092433200,1.54443310546875,0.0004996171337552369,0.0006328483577817678,-0.0006828100886195898
1761379015102437400,1.554437255859375,-0.000016653904822305776,-0.0012490428052842617,-0.0014821975491940975
1761379015112486400,1.564486328125,0,0.00003330780964461155,0.0003497319994494319
1761379015122513000,1.574512939453125,0.00008326952229253948,0.00044965543202124536,-0.0006161945057101548
1761379015132538600,1.58453857421875,-0.00016653904458507895,-0.0001498851488577202,-0.0006495022680610418
1761379015142565400,1.5945654296875,0.0001332312385784462,0.0000666156192892231,-0.00004996171628590673
1761379015152591400,1.60459130859375,0.0003330780891701579,0.00023315467115025967,-0.00048296325257979333
1761379015162595000,1.614594970703125,0.0000666156192892231,-0.0002997702977154404,0.0003663859097287059
1761379015172647400,1.6246474609375,0.0000666156192892231,0.0005329249543137848,0.00016653904458507895
1761379015182669000,1.6346689453125,0.000016653904822305776,0.0000666156192892231,0.0009159647743217647
1761379015192696800,1.64469677734375,-0.0004330015217419714,0.0000666156192892231,0.00048296325257979333
1761379015202723600,1.6547236328125,0.00048296325257979333,0.0005995405954308808,0.00004996171628590673
1761379015212748000,1.664748046875,-0.00038303982000797987,0.0003497319994494319,0.0005995405954308808
1761379015222773500,1.6747734375,0.00008326952229253948,-0.0002997702977154404,0.0008493491332046688
1761379015232800500,1.684800537109375,-0.0001498851488577202,-0.0001332312385784462,-0.0006328483577817678
1761379015242826800,1.69482666015625,-0.0007827335502952337,-0.0003164241788908839,-0.0007161179091781378
1761379015252832800,1.704832763671875,-0.0003663859097287059,-0.0002997702977154404,-0.00018319295486435294
1761379015262879000,1.71487890625,-0.0006661561783403158,-0.00016653904458507895,-0.0002165007608709857
1761379015272905500,1.724905517578125,0.0000666156192892231,-0.0005495788645930588,-0.0002997702977154404
1761379015282913300,1.734913330078125,0.0005828866851516068,-0.0002165007608709857,-0.00039969373028725386
1761379015292966400,1.74496630859375,0.0003330780891701579,0.00011657733557512984,0.0003663859097287059
1761379015302969600,1.754969482421875,0.00018319295486435294,-0.0003663859097287059,-0.00011657733557512984
1761379015313031200,1.76503125,-0.0002997702977154404,-0.00038303982000797987,-0.0002165007608709857
1761379015323040500,1.77504052734375,-0.00016653904458507895,0.00009992343257181346,0.0004330015217419714
1761379015333061600,1.7850615234375,0.0005828866851516068,-0.00023315467115025967,0.00011657733557512984
1761379015343088600,1.795088623046875,0.0008993108640424907,0.0003497319994494319,-0.0006495022680610418
1761379015353093400,1.80509326171875,0.00023315467115025967,-0.0002165007608709857,-0.0002664624771568924
1761379015363140000,1.81514013671875,0.0005828866851516068,-0.0003497319994494319,0.00011657733557512984
1761379015373167400,1.82516748046875,0.00039969373028725386,0.00048296325257979333,-0.0002831163874361664
1761379015383193900,1.83519384765625,0.0004330015217419714,0,0.0007327718194574118
1761379015393219800,1.8452197265625,-0.00039969373028725386,0.00003330780964461155,-0.000016653904822305776
1761379015403244500,1.85524462890625,-0.0001332312385784462,-0.00009992343257181346,-0.0001498851488577202
1761379015413234200,1.865234130859375,-0.00009992343257181346,-0.00019984686514362693,0.0004996171337552369
1761379015423298600,1.875298583984375,0.0003497319994494319,-0.0006994639988988638,-0.00019984686514362693
1761379015433324800,1.88532470703125,0.00016653904458507895,0.0009159647743217647,-0.00009992343257181346
1761379015443349000,1.895348876953125,-0.00004996171628590673,0.00046630934230051935,-0.0004163476114626974
1761379015453376800,1.905376708984375,0.000016653904822305776,-0.0004996171337552369,-0.00011657733557512984
1761379015463382000,1.915382080078125,-0.0007327718194574118,0.0004330015217419714,0
1761379015473428700,1.9254287109375,-0.0007494257297366858,0.00038303982000797987,-0.00019984686514362693
1761379015483478800,1.935478759765625,0.0002165007608709857,0.0008160413126461208,-0.00011657733557512984
1761379015493481000,1.94548095703125,0.00009992343257181346,0.00004996171628590673,0.0003164241788908839
1761379015503507000,1.9555068359375,-0.0001498851488577202,0.00016653904458507895,-0.00019984686514362693
1761379015513534000,1.965533935546875,-0.00023315467115025967,-0.0006161945057101548,-0.0006328483577817678
1761379015523560000,1.975559814453125,-0.00011657733557512984,-0.0009492725948803127,-0.0007161179091781378
1761379015533563600,1.985563720703125,0.0006328483577817678,-0.00023315467115025967,-0.0008660030434839427
1761379015543607300,1.995607177734375,0.00039969373028725386,-0.00019984686514362693,-0.00016653904458507895
1761379015553641700,2.005641845703125,0.0001332312385784462,-0.00004996171628590673,-0.00019984686514362693
1761379015563667200,2.015667236328125,0,0.00011657733557512984,-0.00008326952229253948
1761379015573690600,2.025690673828125,0.00046630934230051935,0.0002664624771568924,-0.0003497319994494319
1761379015583694000,2.035694091796875,-0.0006328483577817678,0.0002165007608709857,0.0003663859097287059
1761379015593745000,2.045744873046875,-0.00019984686514362693,0.0000666156192892231,0.0011824272805824876
1761379015603769900,2.055769775390625,0.0003497319994494319,0.0003330780891701579,-0.0004163476114626974
1761379015613796600,2.065796630859375,-0.000016653904822305776,-0.000016653904822305776,-0.00044965543202124536
1761379015623821000,2.075821044921875,-0.0004330015217419714,0.00046630934230051935,-0.00008326952229253948
1761379015633843500,2.085843505859375,-0.0001332312385784462,0.00019984686514362693,-0.00003330780964461155
1761379015643873500,2.09587353515625,-0.0004330015217419714,-0.00039969373028725386,0.00046630934230051935
1761379015653878300,2.105878173828125,0.0001498851488577202,0,0.0000666156192892231
1761379015663931000,2.115930908203125,-0.0002831163874361664,0.00004996171628590673,-0.00019984686514362693
1761379015673959700,2.125959716796875,0.0005662327748723328,-0.0005828866851516068,-0.0003497319994494319
1761379015683982300,2.135982421875,-0.0002165007608709857,0.00011657733557512984,0.0007827335502952337
1761379015693983200,2.145983154296875,-0.0009992342675104737,-0.00046630934230051935,0.0002165007608709857
1761379015704030500,2.156030517578125,-0.00048296325257979333,0.00011657733557512984,0.0001332312385784462
1761379015714057500,2.166057373046875,0.00024980856687761843,0.0005495788645930588,-0.0002664624771568924
1761379015724083000,2.1760830078125,-0.0003663859097287059,-0.00024980856687761843,-0.0005162710440345109
1761379015734110000,2.18610986328125,-0.00019984686514362693,0.00008326952229253948,-0.0001498851488577202
1761379015744135400,2.196135498046875,-0.0004163476114626974,0.00008326952229253948,-0.0005495788645930588
1761379015754161700,2.20616162109375,0,-0.0002831163874361664,-0.0003663859097287059
1761379015764188200,2.216188232421875,-0.0001332312385784462,0.00024980856687761843,-0.0007327718194574118
1761379015774214700,2.226214599609375,0.00044965543202124536,-0.00009992343257181346,0.0000666156192892231
1761379015784237800,2.23623779296875,0.00038303982000797987,-0.0001332312385784462,0.0001332312385784462
1761379015794267100,2.24626708984375,-0.0002664624771568924,0.0005162710440345109,-0.0009992342675104737
1761379015804292600,2.256292724609375,-0.00018319295486435294,0.0007327718194574118,0.00009992343257181346
1761379015814297000,2.266297119140625,0.0002831163874361664,0.0005995405954308808,-0.00011657733557512984
1761379015824345300,2.276345458984375,-0.00011657733557512984,0.0006828100886195898,-0.00011657733557512984
1761379015834372400,2.286372314453125,-0.00011657733557512984,-0.0003330780891701579,0.0008993108640424907
1761379015844398300,2.2963984375,0.0002997702977154404,-0.0002831163874361664,0.0002664624771568924
1761379015854412000,2.306412109375,-0.0003330780891701579,0.0004996171337552369,0.0005495788645930588
1761379015864450600,2.316450439453125,0.0002831163874361664,0.0009326186846010387,0.00018319295486435294
1761379015874475800,2.326475830078125,0.0001332312385784462,0.0000666156192892231,0.00044965543202124536
1761379015884501500,2.33650146484375,-0.00008326952229253948,0.00044965543202124536,-0.00008326952229253948
1761379015894528800,2.34652880859375,0.00016653904458507895,-0.00003330780964461155,0.0003164241788908839
1761379015904554200,2.35655419921875,0.0003330780891701579,0.0003330780891701579,-0.0003330780891701579
1761379015914580200,2.366580322265625,0.0003663859097287059,0.0006495022680610418,-0.0004330015217419714
1761379015924569900,2.37656982421875,-0.00048296325257979333,-0.00018319295486435294,-0.0002831163874361664
1761379015934632200,2.386632080078125,-0.00016653904458507895,-0.0003330780891701579,-0.0004163476114626974
1761379015944661800,2.396661865234375,-0.0006161945057101548,0.00011657733557512984,-0.00046630934230051935
1761379015954668500,2.40666845703125,0.0003164241788908839,0.00004996171628590673,-0.00038303982000797987
1761379015964714800,2.41671484375,0.00023315467115025967,0.0003497319994494319,-0.00024980856687761843
1761379015974738700,2.42673876953125,0.0000666156192892231,0.0005329249543137848,0.0007327718194574118
1761379015984746200,2.436746337890625,-0.00044965543202124536,0.00003330780964461155,0.0001498851488577202
1761379015994788400,2.446788330078125,0.0001498851488577202,-0.0008326952229253948,-0.00004996171628590673
1761379016004814300,2.456814453125,0.0002664624771568924,0.00038303982000797987,0.0004163476114626974
1761379016014819800,2.46681982421875,-0.00008326952229253948,-0.0001332312385784462,-0.0005995405954308808
1761379016024868400,2.476868408203125,0.0005995405954308808,0.0001498851488577202,0.0001332312385784462
1761379016034895600,2.4868955078125,-0.00039969373028725386,0.0009659265051595867,0.0006161945057101548
1761379016044924200,2.496924072265625,-0.00046630934230051935,-0.0005495788645930588,0.0006828100886195898
1761379016054961000,2.5069609375,-0.00003330780964461155,0.000016653904822305776,0.0000666156192892231
1761379016064964400,2.51696435546875,0.000016653904822305776,0.0011657733703032136,0.0003663859097287059
1761379016074977300,2.526977294921875,0.000016653904822305776,0.00016653904458507895,-0.00011657733557512984
1761379016085028600,2.537028564453125,0.00024980856687761843,0.0003164241788908839,-0.0005828866851516068
1761379016095030800,2.54703076171875,0.0002165007608709857,0.00008326952229253948,0.000016653904822305776
1761379016105077200,2.5570771484375,-0.00003330780964461155,0,-0.0006495022680610418
1761379016115084300,2.567084228515625,0.00008326952229253948,0.0007993874605745077,0.0001332312385784462
1761379016125130500,2.577130615234375,-0.0002664624771568924,0.0008826569537632167,-0.0004996171337552369
1761379016135156700,2.58715673828125,0.0000666156192892231,-0.000016653904822305776,0.00003330780964461155
1761379016145181200,2.59718115234375,-0.00003330780964461155,-0.0000666156192892231,0.00008326952229253948
1761379016155207700,2.607207763671875,-0.00004996171628590673,-0.0008160413126461208,0.00044965543202124536
1761379016165234000,2.61723388671875,0.00024980856687761843,-0.0004330015217419714,0.0004163476114626974
1761379016175264000,2.627263916015625,0.00011657733557512984,0.0003164241788908839,-0.00016653904458507895
1761379016195335700,2.647335693359375,-0.0003164241788908839,0.00011657733557512984,0.0003663859097287059
1761379016205338400,2.65733837890625,0.0005662327748723328,-0.00009992343257181346,-0.0001498851488577202
1761379016215364600,2.667364501953125,0.0007161179091781378,0.00024980856687761843,-0.00019984686514362693
1761379016225391000,2.67739111328125,-0.0007660796400159597,0.0005162710440345109,0.00048296325257979333
1761379016235421000,2.6874208984375,-0.00008326952229253948,0.0013989279977977276,0.0002997702977154404
1761379016255469600,2.707469482421875,-0.0001332312385784462,0.000016653904822305776,0.000016653904822305776
1761379016265495600,2.71749560546875,-0.0003164241788908839,-0.000016653904822305776,-0.0008826569537632167
1761379016275521500,2.727521484375,0.0001332312385784462,0.00023315467115025967,-0.0001332312385784462
1761379016285548000,2.737548095703125,-0.00003330780964461155,0.000016653904822305776,0.00023315467115025967
1761379016295571500,2.747571533203125,-0.00008326952229253948,-0.0003497319994494319,-0.00044965543202124536
1761379016305600300,2.757600341796875,0,0.0002997702977154404,0.00003330780964461155
1761379016315584500,2.76758447265625,-0.0004996171337552369,-0.00004996171628590673,0.0007161179091781378
1761379016325654500,2.777654541015625,-0.0005662327748723328,0.00019984686514362693,0.00011657733557512984
1761379016335666200,2.787666259765625,0.00004996171628590673,0,0.0002997702977154404
1761379016345705700,2.797705810546875,0.00039969373028725386,-0.0000666156192892231,0.00016653904458507895
1761379016355736800,2.80773681640625,-0.00016653904458507895,0.0005329249543137848,-0.0004996171337552369
1761379016365758200,2.81775830078125,-0.00004996171628590673,0.00048296325257979333,-0.0002165007608709857
1761379016375783700,2.82778369140625,0.0002664624771568924,0.0001498851488577202,0.0010158881777897477
1761379016385809700,2.8378095703125,0.00018319295486435294,-0.0006495022680610418,0.0004163476114626974
1761379016395836200,2.847836181640625,0.0003497319994494319,-0.0003164241788908839,0.0003164241788908839
1761379016405862100,2.857862060546875,-0.0001498851488577202,0.00011657733557512984,-0.00011657733557512984
1761379016415889000,2.867888916015625,-0.00024980856687761843,-0.00024980856687761843,0.0002831163874361664
1761379016425914600,2.87791455078125,-0.0002997702977154404,0.00039969373028725386,-0.00009992343257181346
1761379016435943400,2.887943359375,-0.00039969373028725386,0.0008493491332046688,-0.0003497319994494319
1761379016445967400,2.89796728515625,0.00023315467115025967,-0.00018319295486435294,-0.00046630934230051935
1761379016455974400,2.907974365234375,0.0002831163874361664,0.0007993874605745077,0.0005329249543137848
1761379016466010000,2.918010009765625,0.0003497319994494319,0.00008326952229253948,0.0001498851488577202
1761379016476045600,2.928045654296875,0.0006661561783403158,0.00004996171628590673,0.0002664624771568924
1761379016486071800,2.93807177734375,0.00018319295486435294,0.0003330780891701579,0.0001332312385784462
1761379016496115200,2.948115234375,-0.00024980856687761843,0.0008160413126461208,-0.0002165007608709857
1761379016506124000,2.9581240234375,-0.0008493491332046688,0.00004996171628590673,-0.0002997702977154404
1761379016516150000,2.96814990234375,-0.00008326952229253948,0.00008326952229253948,0.00008326952229253948
1761379016526176500,2.978176513671875,0.0007993874605745077,0.00038303982000797987,-0.00004996171628590673
1761379016536188200,2.988188232421875,-0.0001498851488577202,0.00004996171628590673,0.0000666156192892231
1761379016546229000,2.99822900390625,-0.0004330015217419714,0.0001332312385784462,0.00011657733557512984
1761379016556235300,3.0082353515625,0.0000666156192892231,0.0002831163874361664,0.00009992343257181346
1761379016566281500,3.018281494140625,-0.00011657733557512984,-0.00003330780964461155,-0.0001332312385784462
1761379016576307500,3.028307373046875,0.00011657733557512984,0.00044965543202124536,-0.00008326952229253948
1761379016586333700,3.038333740234375,-0.0002165007608709857,0.0006328483577817678,0.00011657733557512984
1761379016596359700,3.048359619140625,-0.0002831163874361664,0.0007161179091781378,0.0005495788645930588
1761379016606386000,3.058385986328125,0.00011657733557512984,-0.0000666156192892231,-0.000016653904822305776
1761379016616412400,3.068412353515625,0.00019984686514362693,0.0001498851488577202,-0.0002831163874361664
1761379016626438400,3.0784384765625,-0.000016653904822305776,-0.0002831163874361664,-0.00024980856687761843
1761379016636464600,3.088464599609375,0.00008326952229253948,-0.0007993874605745077,-0.00003330780964461155
1761379016646490400,3.098490478515625,-0.00009992343257181346,-0.0002831163874361664,-0.0001332312385784462
1761379016656516900,3.108516845703125,-0.00008326952229253948,0.0005162710440345109,-0.0002165007608709857
1761379016666522400,3.1185224609375,0.00008326952229253948,-0.00023315467115025967,0
1761379016676569300,3.1285693359375,-0.0004330015217419714,0.000016653904822305776,-0.0002997702977154404
1761379016696600800,3.148600830078125,-0.00019984686514362693,-0.0005828866851516068,0.0006994639988988638
1761379016706649900,3.15864990234375,-0.00046630934230051935,0.0005995405954308808,0.00048296325257979333
1761379016716676000,3.168676025390625,-0.0006328483577817678,0.0001498851488577202,0.00039969373028725386
1761379016726702000,3.1787021484375,-0.0004330015217419714,-0.0002997702977154404,-0.00024980856687761843
1761379016736719600,3.1887197265625,0.0004163476114626974,0.0004330015217419714,-0.0006161945057101548
1761379016746755300,3.19875537109375,-0.0005162710440345109,-0.0000666156192892231,-0.00008326952229253948
1761379016756781000,3.208781005859375,0.00018319295486435294,-0.0006161945057101548,-0.00009992343257181346
1761379016766807000,3.21880712890625,0.00048296325257979333,0.000016653904822305776,-0.0005329249543137848
1761379016776833500,3.22883349609375,0.000016653904822305776,0.00008326952229253948,0.0002165007608709857
1761379016786858500,3.2388583984375,-0.0001498851488577202,-0.0004330015217419714,-0.00011657733557512984
1761379016796886000,3.248885986328125,0.0005828866851516068,-0.0005662327748723328,-0.00023315467115025967
1761379016806912300,3.258912353515625,-0.0002997702977154404,-0.0002664624771568924,-0.00018319295486435294
1761379016816939000,3.26893896484375,-0.0004163476114626974,-0.00011657733557512984,0.0003330780891701579
1761379016826943700,3.27894384765625,-0.0003330780891701579,0.0005495788645930588,0.000016653904822305776
1761379016836991000,3.288990966796875,0.0004996171337552369,0.00019984686514362693,0.00038303982000797987
1761379016847016700,3.2990166015625,-0.00024980856687761843,0.0003497319994494319,0.0000666156192892231
1761379016857042400,3.30904248046875,-0.00024980856687761843,-0.0007327718194574118,0.0008660030434839427
1761379016867069000,3.31906884765625,-0.0002831163874361664,0.0000666156192892231,0.0004163476114626974
1761379016877122600,3.32912255859375,0.0002165007608709857,0.00004996171628590673,0.0009326186846010387
1761379016887122000,3.339121826171875,-0.0001332312385784462,0.0000666156192892231,-0.00008326952229253948
1761379016897116000,3.349115966796875,-0.0006328483577817678,-0.0010491959983482957,0.0003497319994494319
1761379016907173000,3.359173095703125,-0.0007660796400159597,-0.00003330780964461155,-0.00004996171628590673
1761379016917200600,3.36920068359375,-0.0004163476114626974,-0.0006828100886195898,-0.0000666156192892231
1761379016927226600,3.3792265625,0.0004330015217419714,-0.00008326952229253948,-0.0000666156192892231
1761379016937253000,3.389253173828125,0.0003663859097287059,-0.00009992343257181346,0.0001498851488577202
1761379016947278600,3.399278564453125,0.0005662327748723328,0.0004330015217419714,-0.0010491959983482957
1761379016957305600,3.4093056640625,-0.0005995405954308808,0.0005162710440345109,-0.0006161945057101548
1761379016967330800,3.419330810546875,0.0003663859097287059,-0.00039969373028725386,-0.0008326952229253948
1761379016977357000,3.429357177734375,0.0001498851488577202,0.0005329249543137848,-0.0007827335502952337
1761379016987383300,3.43938330078125,0.00009992343257181346,-0.0003663859097287059,-0.00004996171628590673
1761379016997403600,3.449403564453125,0.00016653904458507895,-0.00044965543202124536,0.0003497319994494319
1761379017007436300,3.459436279296875,0.0001498851488577202,0.0003330780891701579,0.00048296325257979333
1761379017017462300,3.469462158203125,-0.0004996171337552369,0.00008326952229253948,0.0005828866851516068
1761379017027465500,3.479465576171875,-0.0003497319994494319,-0.00009992343257181346,0.00004996171628590673
1761379017037515300,3.489515380859375,0.00009992343257181346,0.0008493491332046688,-0.00024980856687761843
1761379017047540200,3.499540283203125,-0.00016653904458507895,-0.00048296325257979333,0.00011657733557512984
1761379017057566200,3.509566162109375,-0.00008326952229253948,-0.00023315467115025967,0.00023315467115025967
1761379017067571700,3.51957177734375,0.00038303982000797987,0.0007161179091781378,-0.0008326952229253948
1761379017077619500,3.529619384765625,-0.0001332312385784462,0.0003164241788908839,-0.00018319295486435294
1761379017087645200,3.539645263671875,-0.00038303982000797987,0.00016653904458507895,-0.00016653904458507895
1761379017097654300,3.549654296875,0.000016653904822305776,0.00039969373028725386,-0.00004996171628590673
1761379017107699200,3.55969921875,-0.0010991577291861176,-0.0005995405954308808,0.00018319295486435294
1761379017117723600,3.5697236328125,-0.0001498851488577202,-0.0007993874605745077,0.00046630934230051935
1761379017127750400,3.57975048828125,-0.0003497319994494319,0.0003164241788908839,0.00024980856687761843
1761379017137776600,3.589776611328125,-0.0002831163874361664,-0.0009492725948803127,0.0001498851488577202
1761379017147802000,3.599802001953125,0.0000666156192892231,-0.00016653904458507895,0.0003497319994494319
1761379017157807000,3.60980712890625,0.0003330780891701579,0.00016653904458507895,0.00009992343257181346
1761379017167855000,3.619855224609375,0.00016653904458507895,-0.0010825038189068437,-0.0001332312385784462
1761379017177880800,3.629880859375,-0.0002664624771568924,-0.000016653904822305776,0.0008993108640424907
1761379017187907000,3.639906982421875,0.00024980856687761843,-0.00009992343257181346,0.0001498851488577202
1761379017197911000,3.6499111328125,0.00019984686514362693,-0.0001498851488577202,0.0007827335502952337
1761379017207960000,3.6599599609375,-0.00009992343257181346,0.00004996171628590673,-0.00003330780964461155
1761379017217986000,3.669986083984375,0.0001498851488577202,0.0006495022680610418,-0.00009992343257181346
1761379017227990000,3.679989990234375,0.00003330780964461155,-0.00008326952229253948,0.00009992343257181346
1761379017238039000,3.6900390625,-0.00023315467115025967,0.00003330780964461155,0.00039969373028725386
1761379017248064000,3.70006396484375,-0.0003164241788908839,-0.00019984686514362693,-0.0005995405954308808
1761379017258090200,3.71009033203125,-0.00024980856687761843,0.0004330015217419714,0.00009992343257181346
1761379017268117000,3.720116943359375,-0.0002831163874361664,0.0002165007608709857,-0.000016653904822305776
1761379017278143700,3.730143798828125,0.00024980856687761843,-0.00009992343257181346,-0.00009992343257181346
1761379017288169700,3.740169677734375,-0.00039969373028725386,-0.0004330015217419714,-0.00008326952229253948
1761379017298195000,3.75019482421875,-0.0003330780891701579,-0.00004996171628590673,-0.00018319295486435294
1761379017308222500,3.760222412109375,-0.0000666156192892231,-0.0003164241788908839,-0.000016653904822305776
1761379017318247400,3.770247314453125,-0.000016653904822305776,0.0001498851488577202,-0.0011491194600239396
1761379017328274200,3.780274169921875,-0.000016653904822305776,0.0002165007608709857,-0.0001332312385784462
1761379017338299600,3.790299560546875,-0.0009159647743217647,0.00023315467115025967,-0.0002664624771568924
1761379017348326000,3.800325927734375,-0.0002997702977154404,0.00048296325257979333,-0.00039969373028725386
1761379017358352400,3.810352294921875,-0.00003330780964461155,0.00011657733557512984,0.00016653904458507895
1761379017368377900,3.8203779296875,-0.0007161179091781378,0.0003497319994494319,0.0007660796400159597
1761379017378382800,3.8303828125,-0.00038303982000797987,0.0004996171337552369,0.00004996171628590673
1761379017388431000,3.84043115234375,-0.000016653904822305776,-0.0003497319994494319,0
1761379017398456800,3.850456787109375,0.00003330780964461155,-0.0007161179091781378,0.000016653904822305776
1761379017408483600,3.860483642578125,-0.00046630934230051935,-0.00004996171628590673,0.000016653904822305776
1761379017418509300,3.87050927734375,-0.0006495022680610418,-0.0001498851488577202,0.00038303982000797987
1761379017428535800,3.880535888671875,-0.00009992343257181346,-0.0001498851488577202,0.0003330780891701579
1761379017438562800,3.890562744140625,0.0004330015217419714,0.00008326952229253948,-0.0008160413126461208
1761379017448588300,3.90058837890625,0.0002997702977154404,0.00008326952229253948,-0.00044965543202124536
1761379017458614300,3.9106142578125,-0.0001332312385784462,-0.0003497319994494319,-0.0008160413126461208
1761379017468640500,3.920640625,0.00011657733557512984,0.0001498851488577202,0.00019984686514362693
1761379017478666800,3.930666748046875,-0.0004330015217419714,-0.00019984686514362693,-0.0003330780891701579
1761379017488692200,3.940692138671875,0.00018319295486435294,-0.00046630934230051935,0.00004996171628590673
1761379017498719200,3.95071923828125,0.0007327718194574118,-0.0010158881777897477,-0.00044965543202124536
1761379017508743700,3.96074365234375,0.0006994639988988638,-0.00011657733557512984,-0.00004996171628590673
1761379017518771000,3.97077099609375,-0.00048296325257979333,-0.0006161945057101548,0
1761379017528797400,3.98079736328125,-0.00048296325257979333,0.0004330015217419714,0.00004996171628590673
1761379017538824200,3.99082421875,-0.000016653904822305776,0.00004996171628590673,-0.00004996171628590673
1761379017548849700,4.000849609375,0.000016653904822305776,0.0005162710440345109,0.0005329249543137848
1761379017558854400,4.0108544921875,0,0.0004996171337552369,-0.00023315467115025967
1761379017568880000,4.020880126953125,-0.00011657733557512984,0.00046630934230051935,0.0001332312385784462
1761379017578906400,4.03090625,0.00004996171628590673,-0.00011657733557512984,-0.00008326952229253948
1761379017588933000,4.04093310546875,-0.00044965543202124536,0.0002831163874361664,-0.0007161179091781378
1761379017598958000,4.0509580078125,0.00009992343257181346,0.00038303982000797987,-0.0002165007608709857
1761379017608992800,4.06099267578125,0.0006161945057101548,0.00016653904458507895,0.000016653904822305776
1761379017619018200,4.071018310546875,-0.00039969373028725386,0.0004330015217419714,0.00011657733557512984
1761379017629040600,4.08104052734375,-0.0003164241788908839,0.00019984686514362693,-0.0003497319994494319
1761379017639086000,4.091086181640625,-0.0006495022680610418,0,-0.00038303982000797987
1761379017649111800,4.10111181640625,-0.000016653904822305776,0.00039969373028725386,-0.0003497319994494319
1761379017659138600,4.111138671875,0.00038303982000797987,-0.0001498851488577202,-0.0008660030434839427
1761379017669164800,4.121164794921875,0.0002664624771568924,-0.0006661561783403158,0.00003330780964461155
1761379017679167700,4.131167724609375,0.0002831163874361664,-0.0002997702977154404,-0.0001498851488577202
1761379017689217000,4.141217041015625,-0.0000666156192892231,0.00038303982000797987,-0.0002831163874361664
1761379017699243500,4.151243408203125,0.0008160413126461208,0.0004163476114626974,-0.00009992343257181346
1761379017709248000,4.161248046875,0.0002165007608709857,-0.00011657733557512984,-0.000016653904822305776
1761379017719295200,4.171295166015625,-0.00046630934230051935,0.0006328483577817678,0.0006495022680610418
1761379017729321700,4.18132177734375,-0.00016653904458507895,0.0000666156192892231,-0.0002997702977154404
1761379017739348700,4.1913486328125,0.0000666156192892231,0.0006994639988988638,-0.000016653904822305776
1761379017749374500,4.20137451171875,-0.00004996171628590673,-0.00008326952229253948,0.0011657733703032136
1761379017759381500,4.211381591796875,-0.0005162710440345109,-0.00004996171628590673,0.0009492725948803127
1761379017769426200,4.22142626953125,-0.0003330780891701579,0.00023315467115025967,0.0006661561783403158
1761379017779452700,4.23145263671875,-0.00004996171628590673,0.0005162710440345109,0.0011324655497446656
1761379017789479000,4.24147900390625,0.0002165007608709857,0.00016653904458507895,0.0007327718194574118
1761379017799504400,4.25150439453125,0.0003330780891701579,0.00019984686514362693,0
1761379017809531400,4.261531494140625,0.00011657733557512984,0.0009159647743217647,-0.0001332312385784462
1761379017819556900,4.271556884765625,0.0002165007608709857,-0.00019984686514362693,-0.00016653904458507895
1761379017829583000,4.2815830078125,0.0005495788645930588,-0.0005828866851516068,-0.0000666156192892231
1761379017839587300,4.29158740234375,0.00039969373028725386,0.0002664624771568924,-0.0008826569537632167
1761379017849635000,4.301635009765625,0.00039969373028725386,0.0004330015217419714,-0.0006828100886195898
1761379017859662000,4.311662109375,-0.00004996171628590673,0.00009992343257181346,-0.00023315467115025967
1761379017869688300,4.321688232421875,0.000016653904822305776,-0.00016653904458507895,-0.0006495022680610418
1761379017879692500,4.331692626953125,0.0003330780891701579,0.0003330780891701579,-0.0008493491332046688
1761379017889741300,4.3417412109375,0.00024980856687761843,0.0002664624771568924,-0.0007161179091781378
1761379017899766800,4.351766845703125,0.0004330015217419714,0.00011657733557512984,0.0009992342675104737
1761379017909791000,4.361791015625,0.00024980856687761843,-0.00038303982000797987,0.00016653904458507895
1761379017919819300,4.3718193359375,-0.0006661561783403158,-0.0011657733703032136,-0.00038303982000797987
1761379017929845200,4.38184521484375,-0.00023315467115025967,0.0010325420880690217,0.0001498851488577202
1761379017939872300,4.391872314453125,-0.0003164241788908839,-0.0002997702977154404,0.0002997702977154404
1761379017949898200,4.401898193359375,-0.0005662327748723328,-0.0002664624771568924,0.0003330780891701579
1761379017959923700,4.411923828125,-0.00039969373028725386,-0.00019984686514362693,0.00004996171628590673
1761379017969950000,4.421949951171875,-0.00004996171628590673,-0.0004996171337552369,-0.00008326952229253948
1761379017979977000,4.43197705078125,0,-0.0004996171337552369,0.00003330780964461155
1761379017990003000,4.4420029296875,-0.00011657733557512984,0.0003164241788908839,-0.0005995405954308808
1761379018000028400,4.4520283203125,-0.0003497319994494319,-0.0004163476114626974,-0.0007327718194574118
1761379018010055700,4.4620556640625,-0.0009825803572311997,-0.0005495788645930588,0.0005495788645930588
1761379018020081200,4.4720810546875,-0.0002831163874361664,0.0001332312385784462,-0.0000666156192892231
1761379018030108000,4.48210791015625,0.00048296325257979333,-0.00038303982000797987,-0.00004996171628590673
1761379018040115000,4.492114990234375,-0.00011657733557512984,-0.00016653904458507895,-0.0003330780891701579
1761379018050161000,4.502160888671875,-0.0004163476114626974,0.0009659265051595867,0.00039969373028725386
1761379018060185900,4.512185791015625,-0.00048296325257979333,-0.00039969373028725386,-0.0006161945057101548
1761379018070212000,4.522212158203125,-0.0000666156192892231,-0.000016653904822305776,-0.0003164241788908839
1761379018080199200,4.53219921875,0.0006661561783403158,0.0007660796400159597,0.0002165007608709857
1761379018090275300,4.542275390625,0.0002831163874361664,0.00018319295486435294,0.0003330780891701579
1761379018100290300,4.552290283203125,0.0005828866851516068,-0.00046630934230051935,0.0001498851488577202
1761379018110294500,4.56229443359375,0.00003330780964461155,0.0001498851488577202,0.0006994639988988638
1761379018120343000,4.572343017578125,-0.0002664624771568924,0.0000666156192892231,0.0007494257297366858
1761379018130369300,4.582369384765625,-0.0006328483577817678,0.00016653904458507895,-0.0003330780891701579
1761379018140396300,4.592396240234375,-0.0000666156192892231,-0.0005995405954308808,0.0005662327748723328
1761379018150422000,4.602422119140625,0.0002831163874361664,0.00016653904458507895,-0.00023315467115025967
1761379018160447200,4.612447265625,-0.000016653904822305776,0.00011657733557512984,-0.0010658499086275697
1761379018170474200,4.62247412109375,-0.00046630934230051935,0.00019984686514362693,0.00008326952229253948
1761379018180500200,4.632500244140625,-0.00016653904458507895,-0.00038303982000797987,-0.00018319295486435294
1761379018190527000,4.64252685546875,-0.00018319295486435294,0.00048296325257979333,0.00004996171628590673
1761379018200553200,4.65255322265625,0.00038303982000797987,-0.0003164241788908839,-0.00008326952229253948
1761379018210556200,4.66255615234375,0.00023315467115025967,-0.00023315467115025967,0.00024980856687761843
1761379018220600600,4.6726005859375,0.00011657733557512984,0.00024980856687761843,0.0002831163874361664
1761379018230631700,4.682631591796875,0.0004996171337552369,0.00024980856687761843,0.00011657733557512984
1761379018240641800,4.692641845703125,0.0002997702977154404,0.00044965543202124536,-0.00008326952229253948
1761379018250684400,4.702684326171875,0.0007827335502952337,0.00011657733557512984,-0.00011657733557512984
1761379018260689200,4.712689208984375,0.0007327718194574118,-0.000016653904822305776,-0.000016653904822305776
1761379018270736000,4.72273583984375,0.0002664624771568924,0.0004163476114626974,0.0000666156192892231
1761379018280723200,4.73272314453125,0.0003164241788908839,-0.00008326952229253948,0.00004996171628590673
1761379018290788400,4.742788330078125,0.00018319295486435294,-0.0003497319994494319,0.00046630934230051935
1761379018300814600,4.752814697265625,0.000016653904822305776,-0.0006495022680610418,-0.00019984686514362693
1761379018310840600,4.762840576171875,-0.0001332312385784462,0.0002165007608709857,-0.00023315467115025967
1761379018320866600,4.772866455078125,-0.00038303982000797987,-0.0003663859097287059,0.0002165007608709857
1761379018330893000,4.78289306640625,-0.00044965543202124536,-0.0005162710440345109,0.0002664624771568924
1761379018340920000,4.792920166015625,0.0002165007608709857,-0.00024980856687761843,-0.00019984686514362693
1761379018350930400,4.802930419921875,0.0003497319994494319,-0.0008160413126461208,-0.0003330780891701579
1761379018360949000,4.812948974609375,0.0000666156192892231,-0.0006495022680610418,0.0003330780891701579
1761379018370997000,4.8229970703125,-0.0002664624771568924,-0.0002831163874361664,0.0002831163874361664
1761379018381024500,4.8330244140625,-0.0000666156192892231,0.0003497319994494319,0.00024980856687761843
1761379018391050800,4.84305078125,0.0005995405954308808,0.0003497319994494319,-0.00019984686514362693
1761379018401076000,4.853075927734375,-0.000016653904822305776,0.0002664624771568924,0.0001332312385784462
1761379018411072000,4.863072021484375,-0.00009992343257181346,0.0002165007608709857,-0.0003497319994494319
1761379018421129000,4.87312890625,-0.0004330015217419714,-0.0003663859097287059,-0.0006495022680610418
1761379018431155200,4.8831552734375,-0.0002165007608709857,0.0001498851488577202,-0.0005495788645930588
1761379018441163500,4.89316357421875,0.0003497319994494319,0.0003330780891701579,-0.00024980856687761843
1761379018451207400,4.90320751953125,0.0003497319994494319,0.0002831163874361664,-0.0002165007608709857
1761379018461234400,4.913234375,0.00048296325257979333,0.00016653904458507895,0.0002997702977154404
1761379018471259600,4.923259765625,0.0003497319994494319,-0.00019984686514362693,0.000016653904822305776
1761379018481251300,4.933251220703125,-0.0003330780891701579,0.0003497319994494319,-0.00011657733557512984
1761379018491312000,4.94331201171875,0.0001498851488577202,0.00024980856687761843,0.0003164241788908839
1761379018501338000,4.953338134765625,-0.0000666156192892231,0.00046630934230051935,0.0005995405954308808
1761379018511365000,4.963365234375,0.00039969373028725386,-0.00024980856687761843,-0.0009492725948803127
1761379018521390800,4.973390869140625,-0.0003164241788908839,-0.00009992343257181346,0.00008326952229253948
1761379018531416800,4.983416748046875,0.0000666156192892231,-0.0003164241788908839,-0.00019984686514362693
1761379018541443000,4.993443115234375,0.0001498851488577202,0.0002997702977154404,-0.0007827335502952337
1761379018551470300,5.00347021484375,0.00011657733557512984,0.0005995405954308808,-0.00018319295486435294
1761379018561495800,5.013495849609375,-0.0001498851488577202,-0.00018319295486435294,-0.00019984686514362693
1761379018571521300,5.023521240234375,0.0007660796400159597,-0.0004330015217419714,-0.0007827335502952337
1761379018581548000,5.033548095703125,0.0009992342675104737,0.00009992343257181346,-0.0009659265051595867
1761379018591573200,5.0435732421875,0.0002165007608709857,0.0002165007608709857,-0.0010158881777897477
1761379018601558000,5.05355810546875,0.00004996171628590673,-0.00024980856687761843,0.0005162710440345109
1761379018611628300,5.063628173828125,0.0005162710440345109,0.00019984686514362693,0.00011657733557512984
1761379018621653800,5.07365380859375,-0.0005162710440345109,-0.00011657733557512984,0.0001332312385784462
1761379018631683800,5.083683837890625,0.0004330015217419714,0,-0.0002165007608709857
1761379018641668600,5.093668701171875,0.0006161945057101548,0.0007161179091781378,0.0001332312385784462
1761379018651733800,5.103733642578125,-0.0000666156192892231,0.000016653904822305776,0.00016653904458507895
1761379018661757400,5.11375732421875,-0.0003330780891701579,-0.0000666156192892231,0.0001332312385784462
1761379018671783400,5.123783447265625,-0.00009992343257181346,0.0000666156192892231,0.0001332312385784462
1761379018681808600,5.13380859375,0.0003164241788908839,-0.0006994639988988638,0.00048296325257979333
1761379018691836400,5.14383642578125,-0.0006661561783403158,-0.0001332312385784462,0.0003330780891701579
1761379018701865000,5.153864990234375,-0.0004163476114626974,0.00008326952229253948,0.0010158881777897477
1761379018711889200,5.16388916015625,-0.0004330015217419714,0.0004330015217419714,0.0005828866851516068
1761379018721916400,5.17391650390625,-0.00003330780964461155,-0.0006828100886195898,0.0004163476114626974
1761379018731940600,5.183940673828125,-0.00019984686514362693,0.0001498851488577202,0.0006994639988988638
1761379018741968000,5.1939677734375,0.0006661561783403158,-0.0004163476114626974,0.00018319295486435294
1761379018751993300,5.203993408203125,0.0007161179091781378,-0.0012490428052842617,0.0003164241788908839
1761379018762019800,5.214019775390625,-0.00044965543202124536,0.0004330015217419714,-0.00011657733557512984
1761379018772022000,5.22402197265625,-0.00016653904458507895,0.0000666156192892231,-0.000016653904822305776
1761379018782071800,5.23407177734375,-0.00046630934230051935,0.00039969373028725386,0.0002664624771568924
1761379018792098300,5.244098388671875,0.00011657733557512984,0.0002664624771568924,-0.0005995405954308808
1761379018802124500,5.25412451171875,0.0005162710440345109,-0.0003164241788908839,-0.0005662327748723328
1761379018812150300,5.264150390625,0.0004996171337552369,0.0002664624771568924,-0.0005828866851516068
1761379018822160000,5.274159912109375,0.0003330780891701579,-0.0003164241788908839,-0.00003330780964461155
1761379018832202200,5.2842021484375,0.0002997702977154404,-0.00039969373028725386,0.00039969373028725386
1761379018842238200,5.29423828125,0.0008493491332046688,-0.00016653904458507895,0.0006328483577817678
1761379018852256300,5.30425634765625,0.0002997702977154404,-0.00018319295486435294,-0.0005329249543137848
1761379018862281000,5.314281005859375,0.0002664624771568924,-0.00019984686514362693,0.00003330780964461155
1761379018872307200,5.32430712890625,0.0005828866851516068,0.0009992342675104737,0.0011990811908617616
1761379018882333000,5.3343330078125,-0.0001332312385784462,-0.0009825803572311997,0.00044965543202124536
1761379018892359000,5.34435888671875,-0.0002664624771568924,-0.00003330780964461155,-0.0002664624771568924
1761379018902386000,5.354385986328125,-0.00023315467115025967,0.0005495788645930588,0.00016653904458507895
1761379018912413000,5.364412841796875,-0.00024980856687761843,-0.0017320060869678855,0.0003330780891701579
1761379018922438000,5.37443798828125,0.00016653904458507895,0.0003164241788908839,-0.0002664624771568924
1761379018932465000,5.38446484375,0.0007660796400159597,0.0005495788645930588,-0.00046630934230051935
1761379018942468400,5.39446826171875,0.0005662327748723328,-0.0003330780891701579,-0.0002997702977154404
1761379018952517400,5.404517333984375,0.0006328483577817678,-0.0006994639988988638,-0.00019984686514362693
1761379018962528800,5.41452880859375,0.00016653904458507895,0.0007993874605745077,-0.00018319295486435294
1761379018972565800,5.424565673828125,-0.0002664624771568924,-0.0006661561783403158,-0.00004996171628590673
1761379018982585600,5.434585693359375,-0.0004163476114626974,-0.00003330780964461155,-0.00011657733557512984
1761379018992625400,5.44462548828125,0.00009992343257181346,0.0004163476114626974,-0.00038303982000797987
1761379019002648300,5.4546484375,0.00023315467115025967,-0.0008326952229253948,0.00018319295486435294
1761379019012674000,5.464674072265625,-0.0003330780891701579,0.0004330015217419714,0.0002997702977154404
1761379019022700800,5.47470068359375,-0.0005662327748723328,0.0006495022680610418,0.0004163476114626974
1761379019032727300,5.484727294921875,0.0003497319994494319,0.00019984686514362693,-0.00019984686514362693
1761379019042753300,5.494753173828125,0.0001332312385784462,0.0001332312385784462,0.00004996171628590673
1761379019052778500,5.504778564453125,0.00016653904458507895,0.0012656967155635357,0.0005162710440345109
1761379019062805200,5.51480517578125,-0.0002997702977154404,-0.0002997702977154404,0.0008826569537632167
1761379019072831000,5.5248310546875,-0.00004996171628590673,0.000016653904822305776,0.0005995405954308808
1761379019082856700,5.534856689453125,-0.00023315467115025967,-0.00011657733557512984,0.0006495022680610418
1761379019092883700,5.5448837890625,0.00009992343257181346,-0.0002664624771568924,0.00023315467115025967
1761379019102910000,5.554909912109375,-0.00003330780964461155,0.000016653904822305776,0.00016653904458507895
1761379019112936200,5.564936279296875,-0.00018319295486435294,-0.00016653904458507895,0.0004163476114626974
1761379019122962200,5.574962158203125,0.00009992343257181346,-0.00046630934230051935,0.0007494257297366858
1761379019132989000,5.584989013671875,0.0002831163874361664,-0.0003330780891701579,-0.000016653904822305776
1761379019143004200,5.595004150390625,0.00023315467115025967,-0.00009992343257181346,-0.00044965543202124536
1761379019153040400,5.605040283203125,0.0004996171337552369,-0.0003164241788908839,0.00038303982000797987
1761379019163067000,5.61506689453125,0.00011657733557512984,0.0006161945057101548,-0.0004163476114626974
1761379019173072000,5.62507177734375,0.00011657733557512984,-0.000016653904822305776,-0.0005162710440345109
1761379019183119000,5.635119140625,0.00004996171628590673,0.0002997702977154404,0.00011657733557512984
1761379019193145000,5.64514501953125,0.0004330015217419714,-0.00003330780964461155,-0.0003497319994494319
1761379019203172900,5.6551728515625,0.0003164241788908839,0.0006994639988988638,0.000016653904822305776
1761379019213197800,5.66519775390625,0.00011657733557512984,-0.00008326952229253948,0.0005162710440345109
1761379019223223800,5.675223876953125,-0.00009992343257181346,0.00018319295486435294,0.0001498851488577202
1761379019233251000,5.6852509765625,0.0007827335502952337,0.0011158116394653916,0.0005995405954308808
1761379019243276800,5.69527685546875,0,0.0017320060869678855,0.00019984686514362693
1761379019253302500,5.705302490234375,0.0005162710440345109,-0.0016653904458507895,0.00038303982000797987
1761379019263329300,5.715329345703125,0.00011657733557512984,0.0008993108640424907,-0.00018319295486435294
1761379019273355000,5.72535498046875,0.0003164241788908839,0.0014322358183562756,0.0010325420880690217
1761379019283381800,5.7353818359375,-0.000016653904822305776,0.019468415528535843,0.00997568853199482
1761379019293407700,5.74540771484375,-0.0010825038189068437,0.03662193566560745,0.009659265168011189
1761379019303434200,5.755434326171875,-0.0010325420880690217,0.021700037643313408,0.011058192700147629
1761379019313459500,5.76545947265625,-0.0009659265051595867,0.004063552711158991,0.004679747391492128
1761379019323486500,5.775486572265625,-0.0007327718194574118,0.006828100886195898,0.003080972470343113
1761379019333475300,5.785475341796875,-0.0014821975491940975,0.005912136286497116,0.003264165250584483
1761379019343538000,5.795537841796875,-0.0001498851488577202,0.0009825803572311997,0.0024980856105685234
1761379019353562000,5.80556201171875,0.0004996171337552369,0.002981049008667469,-0.00011657733557512984
1761379019363584800,5.815584716796875,0.0006161945057101548,0.0008660030434839427,-0.003930321428924799
1761379019373618200,5.8256181640625,0.0017486599972471595,-0.00472970912232995,-0.0075608729384839535
1761379019383644000,5.835643798828125,0.0011824272805824876,-0.01325650792568922,-0.00954268779605627
1761379019393669400,5.84566943359375,0.0005662327748723328,-0.02712921053171158,-0.009242917411029339
1761379019403697200,5.855697265625,-0.0005162710440345109,-0.02612997591495514,-0.00816041324287653
1761379019413721600,5.8657216796875,-0.0003330780891701579,-0.020734110847115517,-0.003597243456169963
1761379019423748400,5.875748291015625,-0.0004996171337552369,-0.003014356829226017,0.0014988514594733715
1761379019433774600,5.885774658203125,-0.0014821975491940975,0.00464643957093358,-0.003680513007566333
