time,seconds_elapsed,z,y,x
1761379581804911400,0.099911376953125,-0.3766780197620392,0.4059722423553467,-0.30696478486061096
1761379581814938600,0.109938720703125,-0.3951638638973236,0.4411785900592804,-0.297838419675827
1761379581824962600,0.119962646484375,-0.3775107264518738,0.43365103006362915,-0.2681778371334076
1761379581834988800,0.12998876953125,-0.3306466341018677,0.3691338002681732,-0.2425641268491745
1761379581845015300,0.140015380859375,-0.28218376636505127,0.2430470883846283,-0.23262174427509308
1761379581855041000,0.150041015625,-0.2528895437717438,0.036255549639463425,-0.21566806733608246
1761379581865055700,0.1600556640625,-0.2577524781227112,-0.20982255041599274,-0.17444965243339539
1761379581875082000,0.17008203125,-0.2820838391780853,-0.3981282413005829,-0.09259571135044098
1761379581885108200,0.180108154296875,-0.28974464535713196,-0.4659096300601959,0.023265505209565163
1761379581895150600,0.190150634765625,-0.277504026889801,-0.4580323398113251,0.1274689882993698
1761379581905185800,0.200185791015625,-0.25850191712379456,-0.409186452627182,0.18284322321414948
1761379581915187700,0.210187744140625,-0.23240524530410767,-0.3138428330421448,0.18554115295410156
1761379581925224200,0.22022412109375,-0.20672492682933807,-0.19060394167900085,0.14836964011192322
1761379581935273700,0.230273681640625,-0.19488398730754852,-0.0745595321059227,0.08360259979963303
1761379581945296000,0.2402958984375,-0.19436772167682648,-0.0013323123566806316,-0.00018319295486435294
1761379581955311400,0.250311279296875,-0.18657369911670685,-0.00039969373028725386,-0.0754588395357132
1761379581965348000,0.26034814453125,-0.16214241087436676,-0.04951205849647522,-0.12129038572311401
1761379581975374000,0.2703740234375,-0.1269027590751648,-0.1083003431558609,-0.1340639293193817
1761379581985399800,0.28039990234375,-0.10243816673755646,-0.14763686060905457,-0.1222563162446022
1761379581995426000,0.290426025390625,-0.0985078439116478,-0.15916137397289276,-0.09579326212406158
1761379582005452300,0.300452392578125,-0.10790064930915833,-0.15817879140377045,-0.061935871839523315
1761379582015478000,0.31047802734375,-0.1236385926604271,-0.15371553599834442,-0.028661370277404785
1761379582025504000,0.32050390625,-0.13756124675273895,-0.15909475088119507,-0.0054624807089567184
1761379582035530200,0.3305302734375,-0.15081776678562164,-0.17733077704906464,0.005895482376217842
1761379582045556500,0.340556396484375,-0.1661893129348755,-0.19421783089637756,0.008143759332597256
1761379582055582200,0.350582275390625,-0.19013762474060059,-0.20925632119178772,0.004146822262555361
1761379582065608400,0.3606083984375,-0.2168005257844925,-0.2526230812072754,0.00009992343257181346
1761379582075634400,0.370634521484375,-0.2395830750465393,-0.3370583653450012,0.0017653139075264335
1761379582085640000,0.380639892578125,-0.24572835862636566,-0.4221764802932739,0.024331355467438698
1761379582095686400,0.390686279296875,-0.23230531811714172,-0.4669588506221771,0.06017055734992027
1761379582105677600,0.400677490234375,-0.20724119246006012,-0.4548514485359192,0.09620960801839828
1761379582115738600,0.410738525390625,-0.17579862475395203,-0.40234169363975525,0.11559475213289261
1761379582125749800,0.420749755859375,-0.13719487190246582,-0.3288480043411255,0.09875765442848206
1761379582135796500,0.43079638671875,-0.09366156160831451,-0.246660977602005,0.04050229489803314
1761379582145816800,0.44081689453125,-0.05649004504084587,-0.1421743780374527,-0.032758232206106186
1761379582155843600,0.450843505859375,-0.033507656306028366,-0.006728177424520254,-0.09814146161079407
1761379582165869000,0.460869140625,-0.025064127519726753,0.1258702129125595,-0.15747933089733124
1761379582175896000,0.47089599609375,-0.02651301585137844,0.2184825837612152,-0.22169677913188934
1761379582185922800,0.4809228515625,-0.0283949077129364,0.25745272636413574,-0.27453961968421936
1761379582195951600,0.49095166015625,-0.031409263610839844,0.2533392012119293,-0.3020019233226776
1761379582205973200,0.50097314453125,-0.035805895924568176,0.22362864017486572,-0.3008694350719452
1761379582215999200,0.510999267578125,-0.03900344669818878,0.1724511831998825,-0.28606411814689636
1761379582226024700,0.521024658203125,-0.03335777297616005,0.10370386391878128,-0.2717917263507843
1761379582236051000,0.531051025390625,-0.01950172334909439,0.02809513732790947,-0.27125880122184753
1761379582246077200,0.5410771484375,-0.0054624807089567184,-0.04413284733891487,-0.2785198986530304
1761379582256068400,0.551068359375,0.010775076225399971,-0.08423545211553574,-0.2621990740299225
1761379582266129400,0.56112939453125,0.027478942647576332,-0.07231125235557556,-0.21018894016742706
1761379582276159200,0.5711591796875,0.03723813220858574,-0.04008594900369644,-0.14587154984474182
1761379582286163700,0.581163818359375,0.04266730323433876,-0.029943721368908882,-0.08403560519218445
1761379582296197400,0.591197265625,0.04699731990695,-0.047030627727508545,-0.025197358801960945
1761379582306212900,0.601212890625,0.04588150605559349,-0.0819205567240715,0.0308929942548275
1761379582316261600,0.61126171875,0.041767992079257965,-0.1210738867521286,0.09371152520179749
1761379582326264300,0.621264404296875,0.04230091720819473,-0.15817879140377045,0.1782800555229187
1761379582336311600,0.6313115234375,0.03975287079811096,-0.19561676681041718,0.30353406071662903
1761379582346337800,0.641337890625,0.026696208864450455,-0.25343912839889526,0.47008976340293884
1761379582356363300,0.65136328125,-0.008210374973714352,-0.33697509765625,0.6537656784057617
1761379582366389200,0.66138916015625,-0.04842955619096756,-0.4257737398147583,0.8177733421325684
1761379582376415700,0.671415771484375,-0.07607503980398178,-0.5397197604179382,0.9498388171195984
1761379582386442800,0.68144287109375,-0.08548448979854584,-0.6384108066558838,1.0533428192138672
1761379582396469800,0.6914697265625,-0.09724214673042297,-0.7163843512535095,1.134297490119934
1761379582406454300,0.701454345703125,-0.11464548110961914,-0.7418981790542603,1.1937685012817383
1761379582416521200,0.711521240234375,-0.12540389597415924,-0.7085570096969604,1.2212141752243042
1761379582426548000,0.7215478515625,-0.10453656315803528,-0.6174102425575256,1.211121916770935
1761379582436579600,0.73157958984375,-0.05690639093518257,-0.47780051827430725,1.177714228630066
1761379582446599700,0.741599609375,-0.01836925745010376,-0.3221198320388794,1.1320991516113281
1761379582456625400,0.75162548828125,-0.019518377259373665,-0.218532532453537,1.0488462448120117
1761379582466652200,0.761652099609375,-0.05119410157203674,-0.2145189493894577,0.8876031637191772
1761379582476677600,0.771677734375,-0.07905608415603638,-0.32901453971862793,0.6496188640594482
1761379582486704000,0.7817041015625,-0.08420214056968689,-0.5143725275993347,0.37955915927886963
1761379582496729600,0.7917294921875,-0.06425076723098755,-0.6727344989776611,0.11068185418844223
1761379582506756000,0.801756103515625,-0.050577908754348755,-0.6936184763908386,-0.16449062526226044
1761379582516781800,0.81178173828125,-0.08635049313306808,-0.5110750198364258,-0.49245595932006836
1761379582526807600,0.8218076171875,-0.1715518683195114,-0.1629417985677719,-0.9219435453414917
1761379582536834000,0.831833984375,-0.26496362686157227,0.27030953764915466,-1.4237090349197388
1761379582546860000,0.841860107421875,-0.29522377252578735,0.5984414219856262,-1.8924164772033691
1761379582556890000,0.85189013671875,-0.20261140167713165,0.5865505337715149,-2.2007968425750732
1761379582566912500,0.86191259765625,0.003647205187007785,0.1491856724023819,-2.3011865615844727
1761379582576916000,0.871916015625,0.25467151403427124,-0.4129335582256317,-2.2296414375305176
1761379582586967600,0.881967529296875,0.42683959007263184,-0.7028780579566956,-2.034890651702881
1761379582596990500,0.891990478515625,0.459847629070282,-0.5549747347831726,-1.7592518329620361
1761379582607014400,0.902014404296875,0.4844287931919098,-0.09221266955137253,-1.4348337650299072
1761379582627069000,0.92206884765625,0.9441098570823669,0.3772942125797272,-0.34103867411613464
1761379582637075000,0.932074951171875,1.0104923248291016,0.2807515263557434,0.19233594834804535
1761379582647120600,0.94212060546875,0.9393967986106873,0.040302447974681854,0.5425176024436951
1761379582657147100,0.952147216796875,0.8467178344726562,-0.2542884647846222,0.6680547595024109
1761379582667180000,0.962179931640625,0.7420480251312256,-0.3661361038684845,0.5492457747459412
1761379582677178000,0.97217822265625,0.6355962753295898,-0.23355436325073242,0.28403234481811523
1761379582687202600,0.98220263671875,0.6012559533119202,0.07384341210126877,-0.022599348798394203
1761379582697273600,0.992273681640625,0.6502350568771362,0.4625622034072876,-0.3902842700481415
1761379582707294500,1.00229443359375,0.688922107219696,0.8448193073272705,-0.8453022241592407
1761379582717303300,1.01230322265625,0.647054135799408,1.1691374778747559,-1.3368422985076904
1761379582727329000,1.0223291015625,0.5189689993858337,1.362805724143982,-1.7610005140304565
1761379582737335300,1.032335205078125,0.3452520966529846,1.4030414819717407,-2.0258309841156006
1761379582747381500,1.042381591796875,0.16021056473255157,1.32651686668396,-2.0830869674682617
1761379582757406700,1.05240673828125,-0.015105091966688633,1.1792796850204468,-1.904207468032837
1761379582767428600,1.0624287109375,-0.17892955243587494,0.9856113791465759,-1.492456316947937
1761379582777459200,1.072459228515625,-0.31853923201560974,0.7462281584739685,-0.9151986837387085
1761379582787463000,1.082462890625,-0.43809762597084045,0.5080273747444153,-0.26557981967926025
1761379582797511200,1.09251123046875,-0.5179364681243896,0.3538455069065094,0.35422855615615845
1761379582807515000,1.102514892578125,-0.5139061808586121,0.275272399187088,0.891350269317627
1761379582817563400,1.1125634765625,-0.39741212129592896,0.2522733509540558,1.3343608379364014
1761379582827590000,1.12258984375,-0.17594850063323975,0.31242725253105164,1.6754660606384277
1761379582837593600,1.132593505859375,0.126419797539711,0.46162959933280945,1.9031249284744263
1761379582847642400,1.142642333984375,0.4500551223754883,0.6414251327514648,2.0322093963623047
1761379582857667600,1.15266748046875,0.7410821318626404,0.7890620231628418,2.0847856998443604
1761379582867693300,1.162693359375,0.9543520212173462,0.8696169257164001,2.0955774784088135
1761379582877719300,1.17271923828125,1.0320757627487183,0.9201115965843201,2.057206869125366
1761379582887715000,1.182715087890625,0.9730377197265625,0.962096095085144,1.9763022661209106
1761379582897757700,1.1927578125,0.8147090077400208,0.9595813155174255,1.837192177772522
1761379582907775700,1.202775634765625,0.6107153296470642,0.8162911534309387,1.6152788400650024
1761379582917804000,1.212803955078125,0.40777087211608887,0.510275661945343,1.3120611906051636
1761379582927849000,1.222848876953125,0.22650976479053497,0.08758288621902466,0.9597978591918945
1761379582937879000,1.232879150390625,0.10465313494205475,-0.38152429461479187,0.6117478609085083
1761379582947900700,1.242900634765625,0.061852604150772095,-0.7802854180335999,0.3182228207588196
1761379582957916200,1.252916259765625,0.08057159185409546,-0.9889422059059143,0.11474540084600449
1761379582967942000,1.26294189453125,0.11501186341047287,-1.0113416910171509,-0.023915007710456848
1761379582977968400,1.272968505859375,0.15931124985218048,-0.9047067165374756,-0.12666960060596466
1761379582987995000,1.282994873046875,0.21983154118061066,-0.7390336990356445,-0.21213744580745697
1761379582998028000,1.293028076171875,0.27891960740089417,-0.5344570875167847,-0.2988876402378082
1761379583008046600,1.303046630859375,0.30786406993865967,-0.31654077768325806,-0.36512020230293274
1761379583018065000,1.31306494140625,0.30221840739250183,-0.1268361359834671,-0.3684176802635193
1761379583028109600,1.323109619140625,0.27598851919174194,0.017253445461392403,-0.28842899203300476
1761379583038125800,1.333125732421875,0.2508244514465332,0.12397167086601257,-0.1394098401069641
1761379583048163000,1.3431630859375,0.250124990940094,0.15594716370105743,0.07405991107225418
1761379583058189800,1.35318994140625,0.2783866822719574,0.06834762543439865,0.34638455510139465
1761379583068195000,1.363195068359375,0.3172735273838043,-0.13459685444831848,0.6391602158546448
1761379583078239700,1.37323974609375,0.36130645871162415,-0.39679592847824097,0.9114682078361511
1761379583088245200,1.383245361328125,0.40379056334495544,-0.6084170937538147,1.117427110671997
1761379583098280400,1.393280517578125,0.45072129368782043,-0.6874398589134216,1.2300407886505127
1761379583108318000,1.40331787109375,0.4743698239326477,-0.5982581973075867,1.2121877670288086
1761379583118344700,1.4133447265625,0.4650436341762543,-0.49688589572906494,1.0262469053268433
1761379583128369400,1.423369384765625,0.502448320388794,-0.5333579778671265,0.7305734753608704
1761379583138381800,1.4333818359375,0.6282685399055481,-0.770692765712738,0.4283384382724762
1761379583148423700,1.443423583984375,0.7460449934005737,-1.2172671556472778,0.1884056180715561
1761379583158449200,1.45344921875,0.7385673522949219,-1.4892420768737793,0.03047664649784565
1761379583168467500,1.463467529296875,0.5724613070487976,-1.1145459413528442,-0.09131336212158203
1761379583178499600,1.47349951171875,0.2662459909915924,-0.21949847042560577,-0.3610899746417999
1761379583188522000,1.48352197265625,-0.19346840679645538,0.40144237875938416,-0.8908839821815491
1761379583198551300,1.49355126953125,-0.6974489092826843,0.6129636168479919,-1.4334182739257812
1761379583208562700,1.503562744140625,-1.0046634674072266,0.68753981590271,-1.6694539785385132
1761379583218605300,1.513605224609375,-0.970123291015625,0.5236986875534058,-1.6180601119995117
1761379583228630000,1.523630126953125,-0.5598210096359253,0.18226033449172974,-1.4289883375167847
1761379583238647000,1.53364697265625,0.1354462057352066,-0.10558575391769409,-1.2501087188720703
1761379583248686000,1.54368603515625,0.8550947308540344,-0.24321362376213074,-1.1979320049285889
1761379583258698500,1.553698486328125,1.2501087188720703,-0.21871572732925415,-1.2806353569030762
1761379583268732000,1.56373193359375,1.1684046983718872,-0.1373947113752365,-1.4169641733169556
1761379583278763300,1.57376318359375,0.7410154938697815,-0.011974157765507698,-1.4522870779037476
1761379583288786400,1.583786376953125,0.1961163878440857,0.1950838416814804,-1.315058946609497
1761379583298801200,1.59380126953125,-0.2739567458629608,0.40349081158638,-1.0170539617538452
1761379583308827100,1.6038271484375,-0.5807549953460693,0.5942113399505615,-0.615095317363739
1761379583318852900,1.613852783203125,-0.722729504108429,0.7474772334098816,-0.1858409196138382
1761379583328890600,1.623890625,-0.7232790589332581,0.8579425811767578,0.22029785811901093
1761379583338906600,1.63390673828125,-0.6110650897026062,0.9136665463447571,0.6026215553283691
1761379583348932900,1.643932861328125,-0.4286049008369446,0.8725979924201965,0.9550848007202148
1761379583358968800,1.65396875,-0.2588183283805847,0.6806284189224243,1.232122540473938
1761379583368994300,1.663994384765625,-0.1458549052476883,0.41746342182159424,1.3936487436294556
1761379583379020800,1.674020751953125,-0.08804919570684433,0.20505952835083008,1.4235258102416992
1761379583389046500,1.684046630859375,-0.06576626747846603,0.11942514777183533,1.3355932235717773
1761379583399073300,1.6940732421875,-0.06848085671663284,0.16192591190338135,1.159794569015503
1761379583409089000,1.704089111328125,-0.09829134494066238,0.2994871735572815,0.9412120580673218
1761379583419125000,1.714125,-0.16367457807064056,0.49502065777778625,0.731439471244812
1761379583429151200,1.724151123046875,-0.28223371505737305,0.6911370754241943,0.5419347286224365
1761379583439177500,1.734177490234375,-0.4232756495475769,0.8202381134033203,0.3832896053791046
1761379583449192400,1.7441923828125,-0.5309431552886963,0.7785367369651794,0.2741565704345703
1761379583459228700,1.754228759765625,-0.5638346076011658,0.5715786814689636,0.2201313078403473
1761379583469233700,1.764233642578125,-0.5094596147537231,0.26586294174194336,0.22942419350147247
1761379583479281400,1.774281494140625,-0.4033575654029846,-0.03833729028701782,0.29787173867225647
1761379583489307600,1.7843076171875,-0.2923426330089569,-0.24676090478897095,0.4006929397583008
1761379583499333000,1.7943330078125,-0.18624061346054077,-0.36062365770339966,0.4998336434364319
1761379583509360400,1.8043603515625,-0.0919129028916359,-0.44134512543678284,0.5511943101882935
1761379583519375000,1.814375,0.005046132951974869,-0.4902743101119995,0.5501784086227417
1761379583529413000,1.8244130859375,0.1438397765159607,-0.45150402188301086,0.5435168147087097
1761379583539429400,1.834429443359375,0.30751433968544006,-0.3804251551628113,0.5468975901603699
1761379583549457200,1.84445703125,0.43893030285835266,-0.3361424207687378,0.5309597849845886
1761379583559489300,1.8544892578125,0.5142226219177246,-0.3903008997440338,0.502997875213623
1761379583569511400,1.864511474609375,0.5531261563301086,-0.4931720793247223,0.516104519367218
1761379583579523000,1.874523193359375,0.5909970998764038,-0.6051196455955505,0.6479035019874573
1761379583589567700,1.884567626953125,0.6450057625770569,-0.624771237373352,0.8871201872825623
1761379583599593700,1.89459375,0.7030279636383057,-0.5779737830162048,1.1196752786636353
1761379583609619500,1.904619384765625,0.7559040784835815,-0.5496287941932678,1.2008631229400635
1761379583619636200,1.91463623046875,0.808214008808136,-0.6318491697311401,1.1010229587554932
1761379583629675500,1.924675537109375,0.8416217565536499,-0.8045668005943298,0.9086037278175354
1761379583639699200,1.93469921875,0.8199883103370667,-0.9870436191558838,0.7002967000007629
1761379583649721900,1.944721923828125,0.7637647390365601,-1.0638347864151,0.4915233552455902
1761379583659770400,1.954770263671875,0.7832664251327515,-1.0953938961029053,0.3165574371814728
1761379583669768700,1.964768798828125,0.9228761196136475,-1.117343783378601,0.16197587549686432
1761379583679802400,1.97480224609375,1.1034544706344604,-1.0959935188293457,-0.011790964752435684
1761379583689816800,1.98481689453125,1.1837595701217651,-1.0052130222320557,-0.22772549092769623
1761379583699844000,1.994843994140625,1.1127640008926392,-0.8186227083206177,-0.5050962567329407
1761379583709879800,2.0048798828125,0.9617630243301392,-0.5883491635322571,-0.8343106508255005
1761379583719894000,2.01489404296875,0.879426121711731,-0.4032076895236969,-1.1585122346878052
1761379583729931800,2.024931884765625,0.9586154222488403,-0.37221476435661316,-1.3839561939239502
1761379583739958500,2.03495849609375,1.1308001279830933,-0.48452872037887573,-1.449089527130127
1761379583749973200,2.04497314453125,1.2902779579162598,-0.5233322978019714,-1.4282056093215942
1761379583760010000,2.055010009765625,1.3324955701828003,-0.4694402813911438,-1.5039142370224
1761379583770036000,2.065035888671875,1.2155351638793945,-0.24476243555545807,-1.700746774673462
1761379583780059000,2.075058837890625,0.9627788662910461,0.24449597299098969,-1.9522373676300049
1761379583790088400,2.08508837890625,0.6714021563529968,0.9053395986557007,-2.17834734916687
1761379583800114700,2.09511474609375,0.515138566493988,1.2951241731643677,-2.3382582664489746
1761379583810140400,2.105140380859375,0.5317758321762085,1.1706196069717407,-2.447091579437256
1761379583820147200,2.115147216796875,0.6183428168296814,0.7005465030670166,-2.5068624019622803
1761379583830192400,2.1251923828125,0.6601607799530029,0.288512259721756,-2.484179735183716
1761379583840218400,2.13521826171875,0.6339142322540283,0.21127143502235413,-2.3483171463012695
1761379583850239500,2.145239501953125,0.595127284526825,0.46489375829696655,-2.1104161739349365
1761379583860270800,2.155270751953125,0.569746732711792,0.8909838795661926,-1.8081310987472534
1761379583870297000,2.165297119140625,0.5463979840278625,1.3588587045669556,-1.4832466840744019
1761379583880323300,2.1753232421875,0.5070614218711853,1.8163747787475586,-1.162276029586792
1761379583890337500,2.185337646484375,0.4418114423751831,2.1968166828155518,-0.8503483533859253
1761379583900377900,2.1953779296875,0.3539954125881195,2.3686683177948,-0.5302769541740417
1761379583910401800,2.20540185546875,0.27965235710144043,2.3017194271087646,-0.16895386576652527
1761379583920406500,2.215406494140625,0.24667763710021973,2.0092103481292725,0.23713494837284088
1761379583930432300,2.225432373046875,0.2300736904144287,1.5823041200637817,0.6334812045097351
1761379583940458200,2.235458251953125,0.21893222630023956,1.1610935926437378,0.9516041278839111
1761379583950484000,2.24548388671875,0.21808288991451263,0.7763383984565735,1.1361960172653198
1761379583960510200,2.25551025390625,0.24574501812458038,0.511158287525177,1.1592450141906738
1761379583970538800,2.265538818359375,0.29262575507164,0.3826567828655243,1.0289448499679565
1761379583980568000,2.275568115234375,0.3583087623119354,0.30166882276535034,0.8021519780158997
1761379583990594600,2.285594482421875,0.4815143644809723,0.356426864862442,0.5790396332740784
1761379584000635600,2.2956357421875,0.6980317831039429,0.5880993604660034,0.46456068754196167
1761379584010665200,2.305665283203125,0.9512211084365845,0.9301705360412598,0.48905855417251587
1761379584020680400,2.315680419921875,1.0971925258636475,1.3013027906417847,0.5371883511543274
1761379584030701800,2.325701904296875,1.1048533916473389,1.6030882596969604,0.5061787962913513
1761379584040736800,2.33573681640625,0.9682080745697021,1.7043273448944092,0.3625222146511078
1761379584050755600,2.345755615234375,0.6911037564277649,1.5592718124389648,0.12255608290433884
1761379584060791000,2.355791015625,0.3363422751426697,1.1986148357391357,-0.10143893212080002
1761379584070817800,2.36581787109375,-0.009642611257731915,0.7575028538703918,-0.18447530269622803
1761379584080833500,2.37583349609375,-0.24711063504219055,0.5362557172775269,-0.08586753159761429
1761379584090869200,2.385869140625,-0.3503648638725281,0.5401360988616943,0.105519138276577
1761379584100896000,2.39589599609375,-0.3831230700016022,0.5182861685752869,0.2694268822669983
1761379584110910700,2.40591064453125,-0.3608568012714386,0.43608251214027405,0.3986944854259491
1761379584120948000,2.415947998046875,-0.2786697745323181,0.31557485461235046,0.5123740434646606
1761379584130974200,2.42597412109375,-0.17226798832416534,0.17263437807559967,0.5933786034584045
1761379584141000000,2.436,-0.08220367133617401,-0.025980090722441673,0.6234555840492249
1761379584151015200,2.44601513671875,-0.014938552863895893,-0.2887953519821167,0.6297174692153931
1761379584161052000,2.456052001953125,0.011457886546850204,-0.6223230957984924,0.6409921646118164
1761379584171078400,2.466078369140625,-0.02997702918946743,-1.0685145854949951,0.6753324866294861
1761379584181096000,2.476095947265625,-0.09549348801374435,-1.600640058517456,0.7794860005378723
1761379584191129900,2.4861298828125,-0.07987212389707565,-2.1263372898101807,1.008277416229248
1761379584201155800,2.49615576171875,0.06108652427792549,-2.5821712017059326,1.2952907085418701
1761379584211182000,2.50618212890625,0.2511741816997528,-2.9922738075256348,1.4810317754745483
1761379584221191700,2.516191650390625,0.3044167160987854,-3.290245294570923,1.4266901016235352
1761379584231223300,2.526223388671875,0.0350564680993557,-3.3436543941497803,1.0806385278701782
1761379584241260300,2.53626025390625,-0.5030145645141602,-3.034924268722534,0.5865838527679443
1761379584251275000,2.54627490234375,-1.1069684028625488,-2.3279826641082764,0.15964433550834656
1761379584261312300,2.556312255859375,-1.60846745967865,-1.4147158861160278,-0.18136101961135864
1761379584271338200,2.566338134765625,-1.820521593093872,-0.4105687141418457,-0.4524199664592743
1761379584281355000,2.57635498046875,-1.6568803787231445,0.36866748332977295,-0.6612932682037354
1761379584291391500,2.5863916015625,-1.3091301918029785,0.6596778035163879,-0.9440432190895081
1761379584301417500,2.59641748046875,-1.0912970304489136,0.47793376445770264,-1.4649274349212646
1761379584311426300,2.60642626953125,-1.0657000541687012,0.025114089250564575,-2.0844359397888184
1761379584321471500,2.616471435546875,-1.0814379453659058,-0.48764297366142273,-2.474520444869995
1761379584331494700,2.62649462890625,-1.0389539003372192,-0.8625890016555786,-2.4139835834503174
1761379584341520600,2.636520751953125,-0.9621294140815735,-0.9913403391838074,-1.9986017942428589
1761379584351523800,2.64652392578125,-0.8479002714157104,-0.8460350036621094,-1.4877099990844727
1761379584361565700,2.656565673828125,-0.6258204579353333,-0.5018654465675354,-1.0803221464157104
1761379584371598000,2.66659814453125,-0.32090410590171814,-0.0015321592800319195,-0.8127438426017761
1761379584381609700,2.676609619140625,-0.048496171832084656,0.5519437193870544,-0.6028047204017639
1761379584391362000,2.686362060546875,0.057888973504304886,0.9829467535018921,-0.4068049192428589
1761379584406691000,2.701691162109375,-0.22774215042591095,1.215435266494751,-0.20199520885944366
1761379584416694500,2.711694580078125,-0.6247878670692444,1.0514609813690186,-0.1937681883573532
1761379584426743300,2.721743408203125,-1.0650339126586914,0.5105754137039185,-0.27570539712905884
1761379584436769800,2.731769775390625,-1.3021854162216187,-0.20141232013702393,-0.2281918078660965
1761379584446794800,2.741794677734375,-1.2630155086517334,-0.816790759563446,0.05918797850608826
1761379584456821500,2.751821533203125,-1.0622526407241821,-1.133131742477417,0.4756854772567749
1761379584466846500,2.761846435546875,-0.7225629687309265,-1.1035209894180298,0.9036075472831726
1761379584476876800,2.771876708984375,-0.27264106273651123,-0.8262501955032349,1.2628822326660156
1761379584486877700,2.781877685546875,0.1802119016647339,-0.4393799602985382,1.4965698719024658
1761379584496928800,2.7919287109375,0.5031477808952332,-0.11409590393304825,1.5486632585525513
1761379584506955800,2.801955810546875,0.6190090179443359,0.10978253930807114,1.410136103630066
1761379584516976400,2.811976318359375,0.5437000393867493,0.24632790684700012,1.1310999393463135
1761379584527004000,2.82200390625,0.32458460330963135,0.30007004737854004,0.7801355123519897
1761379584537028600,2.832028564453125,-0.006245214492082596,0.27807024121284485,0.44206124544143677
1761379584547055600,2.8420556640625,-0.3750126361846924,0.2546381950378418,0.2156181037425995
1761379584557081900,2.852081787109375,-0.6843089461326599,0.2810845971107483,0.1455884426832199
1761379584567085600,2.86208544921875,-0.8758454918861389,0.3229525089263916,0.20249482989311218
1761379584577133800,2.8721337890625,-0.939446747303009,0.33187901973724365,0.33013036847114563
1761379584587163400,2.882163330078125,-0.8873367309570312,0.3026014566421509,0.48877546191215515
1761379584597191400,2.89219140625,-0.7779039144515991,0.23996610939502716,0.6493191123008728
1761379584607203000,2.902203125,-0.6594946384429932,0.16713859140872955,0.7977054119110107
1761379584617215200,2.91221533203125,-0.5746429562568665,0.10127239674329758,0.9115681052207947
1761379584627273700,2.922273681640625,-0.5799222588539124,0.13517974317073822,0.9251910448074341
1761379584637289500,2.93228955078125,-0.6403259634971619,0.2746228873729706,0.8024684190750122
1761379584647316500,2.94231640625,-0.7173336148262024,0.4401960074901581,0.5727277994155884
1761379584657342000,2.952342041015625,-0.808347225189209,0.48750975728034973,0.301785409450531
1761379584667345700,2.962345703125,-0.9176967740058899,0.3464012145996094,0.10382044315338135
1761379584677394400,2.97239453125,-0.9985347986221313,0.16194257140159607,0.09759188443422318
1761379584687419600,2.982419677734375,-1.0080608129501343,0.021899884566664696,0.2894781827926636
1761379584697423400,2.99242333984375,-0.896296501159668,-0.10318759083747864,0.5983914732933044
1761379584707471000,3.00247119140625,-0.654748260974884,-0.2349199801683426,0.9816311001777649
1761379584717498000,3.012498046875,-0.36373794078826904,-0.3301137089729309,1.3739304542541504
1761379584727524600,3.022524658203125,-0.12443798035383224,-0.3648204505443573,1.6664396524429321
1761379584737571800,3.03257177734375,0.025896821171045303,-0.3991940915584564,1.7816847562789917
1761379584747576300,3.042576416015625,0.0026646247133612633,-0.7017622590065002,1.626853346824646
1761379584757603300,3.052603271484375,-0.14577162265777588,-1.2162013053894043,1.305249810218811
1761379584767627800,3.062627685546875,-0.29016098380088806,-1.6398433446884155,0.9827969074249268
1761379584777654500,3.072654541015625,-0.3647538125514984,-1.8786604404449463,0.7263100743293762
1761379584787679700,3.0826796875,-0.3027346730232239,-1.8935823440551758,0.5491791367530823
1761379584797706200,3.092706298828125,-0.1491190642118454,-1.7136534452438354,0.4118010997772217
1761379584807731500,3.1027314453125,-0.028961140662431717,-1.3948811292648315,0.3353763222694397
1761379584817759000,3.112759033203125,0.05114414170384407,-0.977317750453949,0.40192532539367676
1761379584827784000,3.122783935546875,0.169536754488945,-0.559804379940033,0.5524766445159912
1761379584837809700,3.1328095703125,0.38998448848724365,-0.24466250836849213,0.6316659450531006
1761379584847817200,3.142817138671875,0.6965162754058838,-0.06606604158878326,0.5297107696533203
1761379584857865000,3.152864990234375,0.8607071042060852,-0.19088706374168396,0.14462250471115112
1761379584867895800,3.162895751953125,0.6988977789878845,-0.6510844230651855,-0.5282951593399048
1761379584877903600,3.172903564453125,0.35034820437431335,-1.1265534162521362,-1.312727451324463
1761379584887941400,3.18294140625,0.030459992587566376,-1.3266167640686035,-2.005629777908325
1761379584897955600,3.19295556640625,-0.12272262573242188,-1.125370979309082,-2.5175375938415527
1761379584907994000,3.202994140625,-0.08686676621437073,-0.6346303224563599,-2.8011534214019775
1761379584918015700,3.213015625,0.06515007466077805,0.08628387749195099,-2.7856485843658447
1761379584928045600,3.223045654296875,0.29076051712036133,0.8482333421707153,-2.4813485145568848
1761379584938071300,3.2330712890625,0.5478468537330627,1.3959802389144897,-2.0127742290496826
1761379584948074200,3.24307421875,0.8585087656974792,1.526363730430603,-1.514972448348999
1761379584958101500,3.2531015625,1.2129038572311401,1.2117048501968384,-1.0572065114974976
1761379584968127000,3.263126953125,1.4668259620666504,0.7049264907836914,-0.6929523348808289
1761379584978153200,3.2731533203125,1.535473346710205,0.21413591504096985,-0.4871433675289154
1761379584988178400,3.283178466796875,1.4175970554351807,-0.17861312627792358,-0.49173983931541443
1761379585008220200,3.30322021484375,0.9184795022010803,-0.2506246268749237,-0.9671921730041504
1761379585018264800,3.313264892578125,0.6846086978912354,0.12463782727718353,-1.2391338348388672
1761379585028291000,3.323291015625,0.48439547419548035,0.7649804353713989,-1.3552114963531494
1761379585038332200,3.333332275390625,0.27585527300834656,1.485111951828003,-1.2790699005126953
1761379585048358100,3.343358154296875,0.08553445339202881,2.044066905975342,-1.0399863719940186
1761379585058384000,3.3533837890625,-0.04787997528910637,2.3207216262817383,-0.6938682794570923
1761379585068411000,3.363410888671875,-0.09694238007068634,2.2547554969787598,-0.28453195095062256
1761379585078436600,3.3734365234375,-0.0878160372376442,1.8732811212539673,0.14493893086910248
1761379585088439300,3.383439208984375,-0.08605072647333145,1.3436204195022583,0.5275956988334656
1761379585098487800,3.39348779296875,-0.10889988392591476,0.8161579370498657,0.7882626056671143
1761379585108513000,3.403512939453125,-0.1610599160194397,0.34423622488975525,0.8829567432403564
1761379585118517200,3.413517333984375,-0.2181328386068344,-0.045365236699581146,0.7939082980155945
1761379585128548900,3.423548828125,-0.26100000739097595,-0.29064396023750305,0.5521602034568787
1761379585138592000,3.433592041015625,-0.26073354482650757,-0.31978827714920044,0.26681220531463623
1761379585148595000,3.443594970703125,-0.23726817965507507,-0.12055761367082596,0.0646338015794754
1761379585158622200,3.453622314453125,-0.23165582120418549,0.23328790068626404,-0.0015321592800319195
1761379585168648200,3.463648193359375,-0.25828540325164795,0.5666158199310303,0.05309264734387398
1761379585178674000,3.473673828125,-0.3104454278945923,0.7214138507843018,0.20109589397907257
1761379585188699600,3.48369970703125,-0.3699665069580078,0.6755822896957397,0.42079421877861023
1761379585198725400,3.493725341796875,-0.41816288232803345,0.4724046587944031,0.6912869215011597
1761379585208740600,3.50374072265625,-0.4595645070075989,0.17796362936496735,0.971971869468689
1761379585218762000,3.513761962890625,-0.4765348434448242,-0.13403062522411346,1.2050598859786987
1761379585228792600,3.52379248046875,-0.45578405261039734,-0.4314693808555603,1.351331114768982
1761379585238819000,3.533819091796875,-0.4013257920742035,-0.648919403553009,1.3971127271652222
1761379585248854000,3.54385400390625,-0.3215702474117279,-0.7635315656661987,1.3721318244934082
1761379585258889700,3.5538896484375,-0.25657007098197937,-0.7700266242027283,1.3102459907531738
1761379585268930800,3.563930908203125,-0.25342246890068054,-0.6492358446121216,1.208923578262329
1761379585278957000,3.57395703125,-0.3084636330604553,-0.3531460464000702,1.0680315494537354
1761379585288982300,3.583982177734375,-0.3829232454299927,0.10013993084430695,0.8951807022094727
1761379585299008800,3.5940087890625,-0.4807316064834595,0.47876644134521484,0.6824936866760254
1761379585309034000,3.604033935546875,-0.5758920311927795,0.5373882055282593,0.43719831109046936
1761379585319049700,3.6140498046875,-0.6561638712882996,0.15018491446971893,0.20302775502204895
1761379585329086700,3.624086669921875,-0.7852649092674255,-0.46580973267555237,0.0197515320032835
1761379585339107300,3.634107421875,-0.9832631945610046,-0.8627055883407593,-0.0713619813323021
1761379585349128000,3.6441279296875,-1.1231393814086914,-0.8221200108528137,-0.08823239058256149
1761379585359165400,3.65416552734375,-1.1646409034729004,-0.47550228238105774,-0.23029018938541412
1761379585369181400,3.664181396484375,-1.1378780603408813,0.054924577474594116,-0.6322321891784668
1761379585379203600,3.67420361328125,-1.0514110326766968,0.7425976395606995,-1.3036344051361084
1761379585389243400,3.684243408203125,-0.9234090447425842,1.3244850635528564,-2.1501524448394775
1761379585399269400,3.694269287109375,-0.810195803642273,1.4932557344436646,-3.0081615447998047
1761379585409290800,3.704290771484375,-0.8282653093338013,1.081054925918579,-3.6902055740356445
1761379585419321300,3.7143212890625,-0.9986347556114197,0.35817551612854004,-4.031160831451416
1761379585429347300,3.724347412109375,-1.2165510654449463,-0.3453020751476288,-3.9356675148010254
1761379585439373300,3.734373291015625,-1.2986547946929932,-0.6486196517944336,-3.375896453857422
1761379585449389600,3.7443896484375,-1.1411588191986084,-0.5213671326637268,-2.4833970069885254
1761379585459425000,3.754425048828125,-0.7329716682434082,-0.24313035607337952,-1.5093101263046265
1761379585469451000,3.764450927734375,-0.29259246587753296,-0.06948009133338928,-0.6630752086639404
1761379585479471600,3.7744716796875,-0.06751493364572525,0.15526434779167175,0.017803024500608444
1761379585489503700,3.784503662109375,-0.08070482313632965,0.4765181839466095,0.5266963839530945
1761379585499529000,3.794529052734375,-0.2095227837562561,0.7651470303535461,0.8462182283401489
1761379585509568800,3.80456884765625,-0.3456018269062042,0.9843290448188782,0.97806715965271
1761379585519582000,3.81458203125,-0.4213770925998688,1.109100103378296,0.921826958656311
1761379585529597000,3.824596923828125,-0.40777087211608887,1.0710293054580688,0.6975154876708984
1761379585539612200,3.834612060546875,-0.3040836453437805,0.8527631759643555,0.4345836341381073
1761379585549659400,3.844659423828125,-0.12260604649782181,0.5406856536865234,0.2841489315032959
1761379585559685400,3.854685302734375,0.1178097203373909,0.21908211708068848,0.31604114174842834
1761379585569711900,3.8647119140625,0.3736969828605652,-0.03565600886940956,0.5262134075164795
1761379585579737300,3.8747373046875,0.6098992824554443,-0.14042572677135468,0.8583256006240845
1761379585589763000,3.88476318359375,0.8093964457511902,-0.11437901854515076,1.234437346458435
1761379585599790000,3.8947900390625,0.962096095085144,-0.032425154000520706,1.5768250226974487
1761379585609804800,3.9048046875,1.0552080869674683,0.0704626739025116,1.8265669345855713
1761379585619842300,3.91484228515625,1.0870336294174194,0.19013762474060059,1.9491896629333496
1761379585629857000,3.92485693359375,1.0326253175735474,0.23801760375499725,1.937698483467102
1761379585639895000,3.93489501953125,0.8983948826789856,0.20852354168891907,1.8232028484344482
1761379585649909000,3.944908935546875,0.7124040722846985,0.13131603598594666,1.641608715057373
1761379585659959300,3.954959228515625,0.4993007183074951,0.05425842106342316,1.3904844522476196
1761379585669972200,3.96497216796875,0.2970057427883148,0.0075275651179254055,1.0716954469680786
1761379585679988500,3.974988525390625,0.13471344113349915,-0.003613897366449237,0.7009628415107727
1761379585690013000,3.985012939453125,0.038270674645900726,0.046947356313467026,0.30306777358055115
1761379585700050000,3.9950498046875,0.02058422565460205,0.1848083883523941,-0.06854747235774994
1761379585710065700,4.005065673828125,0.040019333362579346,0.34730052947998047,-0.361606240272522
1761379585720102100,4.01510205078125,0.040219180285930634,0.47959914803504944,-0.49460431933403015
1761379585730128400,4.02512841796875,-0.00954268779605627,0.6325985789299011,-0.43781450390815735
1761379585740145000,4.035144775390625,-0.12527066469192505,0.7377846240997314,-0.24216443300247192
1761379585750168300,4.045168212890625,-0.3007528781890869,0.7475771307945251,0.007344372104853392
1761379585760206800,4.055206787109375,-0.49806833267211914,0.6356961727142334,0.24213112890720367
1761379585770232600,4.065232666015625,-0.6692704558372498,0.40928637981414795,0.4123840034008026
1761379585780258300,4.07525830078125,-0.8013026118278503,0.06181929633021355,0.4693070352077484
1761379585790284800,4.085284912109375,-0.86720210313797,-0.38587096333503723,0.45483478903770447
1761379585800310500,4.095310546875,-0.8306801319122314,-0.7591515779495239,0.45072129368782043
1761379585810325000,4.105324951171875,-0.7158347964286804,-0.9757023453712463,0.4716052711009979
1761379585820362800,4.11536279296875,-0.5494289994239807,-1.024098515510559,0.5200681686401367
1761379585830389000,4.125388916015625,-0.31534168124198914,-0.887036919593811,0.5649504065513611
1761379585840415200,4.135415283203125,-0.016887059435248375,-0.6566135287284851,0.5116745829582214
1761379585850429000,4.145428955078125,0.2567366063594818,-0.5186858773231506,0.28278329968452454
1761379585860467200,4.15546728515625,0.40225842595100403,-0.540385901927948,-0.07637480646371841
1761379585870505200,4.165505126953125,0.33819085359573364,-0.8121609687805176,-0.45192036032676697
1761379585880519000,4.175518798828125,0.09775841981172562,-1.2874467372894287,-0.6742166876792908
1761379585890544600,4.185544677734375,-0.19773180782794952,-1.6489863395690918,-0.6205411553382874
1761379585900571000,4.19557080078125,-0.3841223120689392,-1.7100396156311035,-0.3568931818008423
1761379585910586400,4.20558642578125,-0.3750126361846924,-1.5107256174087524,0.040135908871889114
1761379585920603100,4.21560302734375,-0.2192320078611374,-1.1906709671020508,0.48149770498275757
1761379585930649300,4.2256494140625,-0.04369984567165375,-0.8840559124946594,0.8359594345092773
1761379585940662500,4.23566259765625,0.05252641439437866,-0.8533960580825806,0.9706062078475952
1761379585950690000,4.24568994140625,0.23733480274677277,-0.9611634612083435,0.9671755433082581
1761379585960727600,4.2557275390625,0.6869735717773438,-0.9051397442817688,0.9757023453712463
1761379585970753800,4.26575390625,1.2692606449127197,-0.6683545112609863,0.9862942099571228
1761379585980767700,4.275767822265625,1.6815115213394165,-0.2328382432460785,0.8979951739311218
1761379585990805000,4.285804931640625,1.74944269657135,0.4221598207950592,0.6419747471809387
1761379586000831500,4.29583154296875,1.5010164976119995,1.1660897731781006,0.20412690937519073
1761379586010849800,4.305849853515625,1.042351245880127,1.8161249160766602,-0.343769907951355
1761379586020881200,4.315881103515625,0.5053128004074097,2.2591354846954346,-0.9012094140052795
1761379586030909400,4.325909423828125,-0.0687972828745842,2.4062061309814453,-1.4540190696716309
1761379586040925200,4.33592529296875,-0.7470108866691589,2.101506233215332,-2.0394537448883057
1761379586050950000,4.345949951171875,-1.5146559476852417,1.3607739210128784,-2.607618570327759
1761379586060987600,4.355987548828125,-2.176881790161133,0.48316308856010437,-3.0063962936401367
1761379586071006200,4.366006103515625,-2.5895323753356934,-0.364970326423645,-3.1628763675689697
1761379586081040000,4.376039794921875,-2.687474012374878,-1.1918200254440308,-3.104654312133789
1761379586091054000,4.38605419921875,-2.4550020694732666,-1.7884628772735596,-2.823869466781616
1761379586101091600,4.396091552734375,-1.953419804573059,-2.0043141841888428,-2.2792866230010986
1761379586111117800,4.406117919921875,-1.3423880338668823,-1.775922417640686,-1.4776177406311035
1761379586121132500,4.416132568359375,-0.7653468251228333,-1.1959335803985596,-0.5253307819366455
1761379586131158500,4.426158447265625,-0.3576093018054962,-0.4201280474662781,0.31993815302848816
1761379586141196000,4.436196044921875,-0.08092132210731506,0.17135202884674072,1.065067172050476
1761379586151221800,4.4462216796875,0.03385739028453827,0.5063619613647461,1.589948296546936
1761379586161248000,4.456248046875,0.018069487065076828,0.5664659142494202,1.8291982412338257
1761379586171273500,4.4662734375,-0.03890352323651314,0.38170748949050903,1.9109690189361572
1761379586181277400,4.47627734375,-0.04125172272324562,0.15066787600517273,1.8961635828018188
1761379586191314400,4.486314453125,0.0643506869673729,0.012140696868300438,1.8639216423034668
1761379586201352200,4.496352294921875,0.24551185965538025,0.04300038143992424,1.8562109470367432
1761379586211374600,4.50637451171875,0.43761464953422546,0.2021617442369461,1.8766785860061646
1761379586221404700,4.51640478515625,0.5585886240005493,0.40753769874572754,1.9305706024169922
1761379586231430000,4.526429931640625,0.5797390937805176,0.6125306487083435,2.0470480918884277
1761379586241444900,4.53644482421875,0.4851115942001343,0.7530395984649658,2.2090904712677
1761379586251482000,4.546482177734375,0.2832496166229248,0.7899280190467834,2.3516314029693604
1761379586261499600,4.556499755859375,-0.024198124185204506,0.7103223204612732,2.406139612197876
1761379586271522600,4.5665224609375,-0.4061387777328491,0.5476303696632385,2.3506486415863037
1761379586281561000,4.57656103515625,-0.7862974405288696,0.30493301153182983,2.2098066806793213
1761379586291574800,4.58657470703125,-1.045165777206421,-0.03377411887049675,2.068648099899292
1761379586301601300,4.596601318359375,-1.113779902458191,-0.388502299785614,2.0200188159942627
1761379586311626800,4.606626708984375,-1.0424511432647705,-0.639243483543396,2.0692808628082275
1761379586321664500,4.61666455078125,-0.8964797258377075,-0.6601274609565735,2.1505019664764404
1761379586331690500,4.6266904296875,-0.6641244292259216,-0.49558690190315247,2.2295913696289062
1761379586341696800,4.63669677734375,-0.36192265152931213,-0.2874796986579895,2.2922933101654053
1761379586351742700,4.64674267578125,-0.0045631700195372105,-0.17351703345775604,2.336026668548584
1761379586361767400,4.656767333984375,0.2716585099697113,-0.194251149892807,2.2670462131500244
1761379586371794700,4.666794677734375,0.3995271623134613,-0.2786531448364258,1.9875270128250122
1761379586381802000,4.676802001953125,0.42685621976852417,-0.2763715386390686,1.4687411785125732
1761379586391836000,4.6868359375,0.3860708177089691,-0.23871707916259766,0.8071647882461548
1761379586401872100,4.6968720703125,0.33284494280815125,-0.3102622330188751,0.24577832221984863
1761379586411909000,4.7069091796875,0.2721247971057892,-0.4212605357170105,-0.009392802603542805
1761379586421924900,4.7169248046875,0.20705799758434296,-0.6385773420333862,0.08375249058008194
1761379586431950600,4.72695068359375,0.21193759143352509,-0.9837294816970825,0.40893661975860596
1761379586441965600,4.736965576171875,0.41456565260887146,-1.25597083568573,0.8334446549415588
1761379586451974700,4.746974609375,0.5373382568359375,-1.4539358615875244,1.0768414735794067
1761379586462017300,4.757017333984375,0.4855612516403198,-1.1170939207077026,0.9151320457458496
1761379586472044500,4.76704443359375,0.48757636547088623,-0.023365428671240807,0.35311275720596313
1761379586482080500,4.77708056640625,0.49793508648872375,0.9148989319801331,-0.5498453378677368
1761379586492106500,4.7871064453125,0.366069495677948,1.16953706741333,-1.5483468770980835
1761379586502133200,4.79713330078125,0.26086676120758057,1.0393534898757935,-2.2951245307922363
1761379586512142000,4.80714208984375,0.38302314281463623,0.6523667573928833,-2.694701671600342
1761379586522185700,4.817185791015625,0.7517239451408386,0.07827335596084595,-2.823702812194824
1761379586532211200,4.827211181640625,1.2262769937515259,-0.39971035718917847,-2.738151788711548
1761379586542229800,4.837229736328125,1.6154288053512573,-0.6461881399154663,-2.5404200553894043
1761379586552263200,4.84726318359375,1.8359930515289307,-0.7713755369186401,-2.3657538890838623
1761379586562289400,4.857289306640625,1.907854676246643,-0.7069915533065796,-2.2356369495391846
1761379586572312600,4.8673125,1.8754462003707886,-0.31625765562057495,-2.1171109676361084
1761379586582329900,4.877329833984375,1.746161937713623,0.3952304720878601,-1.9473577737808228
1761379586592367600,4.88736767578125,1.5258474349975586,1.2117880582809448,-1.6904546022415161
1761379586602387000,4.897386962890625,1.2362526655197144,1.8970129489898682,-1.3569267988204956
1761379586612419600,4.907419677734375,0.8967627882957458,2.216834545135498,-0.9621626734733582
1761379586622441200,4.917441162109375,0.544499397277832,2.071962356567383,-0.49875113368034363
1761379586632472000,4.92747216796875,0.2091730386018753,1.5661665201187134,0.05206010490655899
1761379586642485000,4.937485107421875,-0.05982082709670067,0.8245681524276733,0.6636914014816284
1761379586652524300,4.947524169921875,-0.2072911560535431,-0.036005742847919464,1.2181165218353271
1761379586662549000,4.957549072265625,-0.22456125915050507,-0.7951406836509705,1.597342610359192
1761379586672565800,4.967565673828125,-0.1344636231660843,-1.24624502658844,1.7570701837539673
1761379586682590000,4.97758984375,0.013656201772391796,-1.3330950736999512,1.7256776094436646
1761379586692628200,4.987628173828125,0.17618165910243988,-1.117077350616455,1.5440667867660522
1761379586702651400,4.9976513671875,0.3465011417865753,-0.7054760456085205,1.2634484767913818
1761379586712668400,5.00766845703125,0.5201514363288879,-0.24169811606407166,0.9543187022209167
1761379586722710500,5.01771044921875,0.6562138199806213,0.12631987035274506,0.6445561051368713
1761379586732720600,5.027720703125,0.7194986343383789,0.33549290895462036,0.3610566556453705
1761379586742744800,5.037744873046875,0.6932687759399414,0.3703661859035492,0.11587786674499512
1761379586752772400,5.0477724609375,0.5897814035415649,0.2709423899650574,-0.09519372135400772
1761379586762800400,5.05780029296875,0.42732253670692444,0.08881527185440063,-0.27042609453201294
1761379586772804000,5.06780419921875,0.24800994992256165,-0.09477737545967102,-0.3875197172164917
1761379586782856200,5.077856201171875,0.07905608415603638,-0.2332545965909958,-0.43463361263275146
1761379586792887800,5.0878876953125,-0.052659645676612854,-0.2627653181552887,-0.41811293363571167
1761379586802903800,5.09790380859375,-0.10560241341590881,-0.13999272882938385,-0.36507025361061096
1761379586812939800,5.107939697265625,-0.0617193728685379,0.11945845931768417,-0.2926757335662842
1761379586822954500,5.11795458984375,0.04887920990586281,0.39962708950042725,-0.22244620323181152
1761379586832991700,5.12799169921875,0.15035144984722137,0.5779570937156677,-0.18602411448955536
1761379586843006200,5.138006103515625,0.2272924929857254,0.654132068157196,-0.17811350524425507
1761379586853044200,5.148044189453125,0.3055492043495178,0.6489027738571167,-0.17463284730911255
1761379586863077400,5.158077392578125,0.34958210587501526,0.5829366445541382,-0.1981315016746521
1761379586873098000,5.168097900390625,0.3073311448097229,0.480664998292923,-0.26258212327957153
1761379586883121400,5.178121337890625,0.19513380527496338,0.3791761100292206,-0.3376745879650116
1761379586893126700,5.188126708984375,0.08668357133865356,0.306864857673645,-0.40782082080841064
1761379586903176000,5.198176025390625,0.042017802596092224,0.2846318781375885,-0.4633282721042633
1761379586913212200,5.208212158203125,0.048113130033016205,0.30320098996162415,-0.4934052526950836
1761379586923227100,5.21822705078125,0.08651703596115112,0.32223641872406006,-0.4839624762535095
1761379586933252600,5.228252685546875,0.12468778342008591,0.3175399899482727,-0.44515886902809143
1761379586943256000,5.238256103515625,0.13026684522628784,0.3002365827560425,-0.39504727721214294
1761379586953305000,5.24830517578125,0.09675918519496918,0.3073311448097229,-0.341438353061676
1761379586963331600,5.25833154296875,0.0572727769613266,0.3380243182182312,-0.2861640453338623
1761379586973345800,5.268345703125,0.02111715078353882,0.3314460217952728,-0.2395830750465393
1761379586983371800,5.278371826171875,-0.011491194367408752,0.25885164737701416,-0.19296880066394806
1761379586993410000,5.28841015625,-0.03169238194823265,0.16499023139476776,-0.132248654961586
1761379587003435300,5.298435302734375,-0.02313227392733097,0.09959035366773605,-0.04088533669710159
1761379587013461500,5.30846142578125,0.010641844943165779,0.07196152210235596,0.06033709645271301
1761379587023486500,5.318486572265625,0.052459798753261566,0.03820405900478363,0.12805187702178955
1761379587033512700,5.3285126953125,0.08856546878814697,-0.014405627734959126,0.16227564215660095
1761379587043517400,5.338517333984375,0.11126473546028137,-0.06563303619623184,0.18031182885169983
1761379587053565200,5.348565185546875,0.1186424195766449,-0.09615964442491531,0.17886294424533844
1761379587063591200,5.358591064453125,0.11539490520954132,-0.09272894263267517,0.15882828831672668
1761379587073608700,5.368608642578125,0.10342074930667877,-0.054008614271879196,0.12050765752792358
1761379587083642600,5.378642578125,0.07137863337993622,-0.005529096350073814,0.0576891265809536
1761379587093668400,5.38866845703125,0.02579689770936966,0.05752258747816086,-0.009526033885776997
1761379587103695000,5.398695068359375,-0.018169410526752472,0.10255474597215652,-0.06521669030189514
1761379587113710300,5.40871044921875,-0.05405857414007187,0.1001732349395752,-0.09197951853275299
1761379587123747300,5.418747314453125,-0.08187059313058853,0.06198583543300629,-0.08806584775447845
1761379587133770200,5.428770263671875,-0.09925727546215057,0.003397396532818675,-0.05982082709670067
1761379587143799000,5.438799072265625,-0.1021883636713028,-0.05710623785853386,-0.02576358988881111
1761379587153830100,5.448830078125,-0.09512710571289062,-0.10971592366695404,-0.00038303982000797987
1761379587163851500,5.4588515625,-0.08072147518396378,-0.1452386975288391,0.01773640885949135
1761379587173871600,5.46887158203125,-0.06688208132982254,-0.14125841856002808,0.012307235971093178
1761379587183903200,5.4789033203125,-0.05004498362541199,-0.08461849391460419,-0.023648545145988464
1761379587193930200,5.48893017578125,-0.029544027522206306,0.019018759950995445,-0.07357694953680038
1761379587203946800,5.49894677734375,0,0.13672855496406555,-0.11755991727113724
1761379587213981700,5.508981689453125,0.030343415215611458,0.2150019109249115,-0.13674521446228027
1761379587224008000,5.519008056640625,0.04854613170027733,0.23380416631698608,-0.12460451573133469
1761379587234033700,5.52903369140625,0.045365236699581146,0.20122912526130676,-0.08578426390886307
1761379587244062700,5.539062744140625,0.029577335342764854,0.12505416572093964,-0.009809150360524654
1761379587254085600,5.549085693359375,0.013622893951833248,0.05349234119057655,0.09327851980924606
1761379587264111900,5.55911181640625,0.003347434801980853,0.0000666156192892231,0.18041175603866577
1761379587274115300,5.569115234375,0.009226263500750065,-0.05164375901222229,0.21984820067882538
1761379587284164000,5.5791640625,0.036089010536670685,-0.07204478979110718,0.21814949810504913
1761379587294190000,5.589190185546875,0.07252775877714157,-0.047280434519052505,0.1903541386127472
1761379587304207000,5.59920703125,0.0946274846792221,0.01590447872877121,0.14227430522441864
1761379587314220000,5.609219970703125,0.10362059623003006,0.11584456264972687,0.09730876237154007
1761379587324256500,5.619256591796875,0.11196420341730118,0.2470107227563858,0.10105589777231216
1761379587344320000,5.639320068359375,0.11241386085748672,0.4195285141468048,0.32423487305641174
1761379587354345700,5.649345703125,0.10187193751335144,0.42081087827682495,0.5000001788139343
1761379587364372200,5.659372314453125,0.10485298186540604,0.3722980320453644,0.6646906733512878
1761379587374410800,5.66941064453125,0.1049695611000061,0.2717917263507843,0.7660462856292725
1761379587384424000,5.679423828125,0.08410222083330154,0.09289547801017761,0.7936584949493408
1761379587394450200,5.6894501953125,0.04454919695854187,-0.11965830624103546,0.7793194651603699
1761379587404461300,5.69946142578125,-0.01582120917737484,-0.258668452501297,0.7368519902229309
1761379587414502400,5.70950244140625,-0.09382809698581696,-0.24619467556476593,0.6534159779548645
1761379587424528100,5.719528076171875,-0.17603176832199097,-0.12367189675569534,0.49057406187057495
1761379587434554400,5.729554443359375,-0.23328790068626404,0.04378311708569527,0.23828406631946564
1761379587444570600,5.739570556640625,-0.23678521811962128,0.23843395709991455,-0.05314261093735695
1761379587454606600,5.749606689453125,-0.197715163230896,0.416247695684433,-0.3071146607398987
1761379587464632300,5.75963232421875,-0.15116749703884125,0.5319090485572815,-0.4732706546783447
1761379587474647800,5.769647705078125,-0.10192190110683441,0.6190422773361206,-0.5362390875816345
1761379587484684500,5.7796845703125,-0.022566040977835655,0.6893550753593445,-0.47515255212783813
1761379587494710500,5.78971044921875,0.09221266955137253,0.6715853810310364,-0.2787530720233917
1761379587504730400,5.79973046875,0.2255438268184662,0.534557044506073,0.02951071970164776
1761379587514762000,5.809761962890625,0.3440030515193939,0.335609495639801,0.38652047514915466
1761379587524788200,5.819788330078125,0.41611447930336,0.15306603908538818,0.7035441994667053
1761379587534826000,5.829825927734375,0.443143755197525,0.03144257143139839,0.8935985565185547
1761379587544840400,5.83984033203125,0.46329498291015625,-0.03795424848794937,0.9000769257545471
1761379587554866700,5.84986669921875,0.4936550557613373,-0.17360030114650726,0.7403993010520935
1761379587564893000,5.859892822265625,0.5350566506385803,-0.35409530997276306,0.44925573468208313
1761379587574898200,5.869898193359375,0.5938615798950195,-0.48732656240463257,0.10591883212327957
1761379587584945000,5.87994482421875,0.6531161665916443,-0.6130635738372803,-0.19273564219474792
1761379587594971000,5.889970947265625,0.7212972640991211,-0.7785367369651794,-0.37442973256111145
1761379587604988000,5.89998779296875,0.8271661400794983,-0.9305369257926941,-0.43789777159690857
1761379587615023400,5.9100234375,0.9833630919456482,-1.0867005586624146,-0.4226427972316742
1761379587625048800,5.920048828125,1.1698535680770874,-1.277787446975708,-0.41434913873672485
1761379587635074800,5.93007470703125,1.3290648460388184,-1.3574930429458618,-0.542717456817627
1761379587645089500,5.940089599609375,1.4262737035751343,-1.2823007106781006,-0.9024417996406555
1761379587655117800,5.950117919921875,1.4387807846069336,-1.0765917301177979,-1.4396134614944458
1761379587665153000,5.960153076171875,1.3228529691696167,-0.7174168825149536,-1.990857720375061
1761379587675169000,5.9701689453125,1.0675818920135498,-0.2566699683666229,-2.4295883178710938
1761379587685194500,5.980194580078125,0.6819440722465515,0.20281125605106354,-2.6837100982666016
1761379587695230700,5.990230712890625,0.22461120784282684,0.560553789138794,-2.7315900325775146
1761379587705245700,6.00024560546875,-0.18325956165790558,0.6929356455802917,-2.544650077819824
1761379587715283200,6.010283203125,-0.4495221972465515,0.5587717890739441,-2.119492530822754
1761379587725309400,6.020309326171875,-0.5574894547462463,0.21531833708286285,-1.4988014698028564
1761379587735323600,6.03032373046875,-0.5474305152893066,-0.2491590678691864,-0.7532727718353271
1761379587745361700,6.040361572265625,-0.4637446403503418,-0.679512619972229,0.004929556045681238
1761379587755387400,6.050387451171875,-0.3464678227901459,-0.9758355617523193,0.6568133234977722
1761379587765413400,6.060413330078125,-0.24226436018943787,-1.1435736417770386,1.1110485792160034
1761379587775429000,6.07042919921875,-0.18732312321662903,-1.1763153076171875,1.312227725982666
1761379587785462500,6.080462646484375,-0.168487548828125,-1.0696136951446533,1.2675620317459106
1761379587795492000,6.0904921875,-0.15997740626335144,-0.8334946036338806,1.0670156478881836
1761379587805516500,6.1005166015625,-0.14866940677165985,-0.5012992024421692,0.8288315534591675
1761379587815543600,6.11054345703125,-0.15588055551052094,-0.10310432314872742,0.6616929173469543
1761379587825569500,6.120569580078125,-0.20003004372119904,0.30999577045440674,0.62635338306427
1761379587835583500,6.13058349609375,-0.25890159606933594,0.6203912496566772,0.7356029748916626
1761379587845622000,6.1406220703125,-0.31340983510017395,0.7455453276634216,0.9652103781700134
1761379587855647500,6.1506474609375,-0.33257848024368286,0.6872233748435974,1.2779207229614258
1761379587865662700,6.160662841796875,-0.3004031479358673,0.49475419521331787,1.6159616708755493
1761379587875699500,6.170699462890625,-0.2320721596479416,0.2403491586446762,1.919662356376648
1761379587885725400,6.180725341796875,-0.14593817293643951,-0.013939318247139454,2.1464884281158447
1761379587895751700,6.190751708984375,-0.059471093118190765,-0.21630091965198517,2.2422983646392822
1761379587905777700,6.200777587890625,0.02091730386018753,-0.3487660884857178,2.1818113327026367
1761379587915803600,6.2108037109375,0.09369486570358276,-0.3998769223690033,1.9688578844070435
1761379587925830100,6.220830078125,0.15185029804706573,-0.33416059613227844,1.6580127477645874
1761379587935833300,6.230833251953125,0.17496591806411743,-0.15721286833286285,1.3227696418762207
1761379587945858800,6.24085888671875,0.1582787185907364,0.031459227204322815,1.0326087474822998
1761379587955885000,6.250885009765625,0.10741768777370453,0.11962499469518661,0.8037840723991394
1761379587965917200,6.260917236328125,0.03127603232860565,0.0609532929956913,0.6120643019676208
1761379587975940000,6.270940185546875,-0.08660030364990234,-0.1038537472486496,0.43781450390815735
1761379587985958000,6.2809580078125,-0.2647804319858551,-0.30431678891181946,0.26356470584869385
1761379587995978800,6.290978759765625,-0.49613648653030396,-0.5035308003425598,0.09890753775835037
1761379588006004000,6.30100390625,-0.7620660066604614,-0.5587385296821594,0.020817380398511887
1761379588016049700,6.311049560546875,-1.0099427700042725,-0.3969458341598511,0.1186424195766449
1761379588026075400,6.321075439453125,-1.0928958654403687,-0.11862576752901077,0.3599574863910675
1761379588036089300,6.33108935546875,-0.8335778713226318,0.10888323187828064,0.6140460968017578
1761379588046141000,6.341140869140625,-0.3872532546520233,-0.05339241772890091,0.6145290732383728
1761379588056168400,6.35116845703125,-0.08405225723981857,-0.5621026158332825,0.27294084429740906
1761379588066194700,6.361194580078125,0.01607101783156395,-0.39714565873146057,-0.1574460119009018
1761379588076221000,6.371220947265625,0.22412824630737305,0.8017855882644653,-0.3966793715953827
1761379588086240300,6.381240234375,0.5921962261199951,2.1536829471588135,-0.4708058834075928
1761379588096272600,6.391272705078125,0.8862042427062988,2.7135539054870605,-0.6446060538291931
1761379588106287000,6.401287109375,1.118842601776123,2.519902229309082,-0.8519304990768433
1761379588116324400,6.411324462890625,1.2733741998672485,1.9524871110916138,-0.9257739186286926
1761379588126339000,6.421339111328125,1.31938898563385,1.2971227169036865,-0.8205046057701111
1761379588136377000,6.431377197265625,1.2472941875457764,0.8184394836425781,-0.6293510794639587
1761379588146402800,6.44140283203125,1.1015225648880005,0.5478135347366333,-0.4979850649833679
1761379588156440000,6.451440185546875,0.9134333729743958,0.36708536744117737,-0.5167040228843689
1761379588166456300,6.461456298828125,0.6958833932876587,0.3112281858921051,-0.6597777605056763
1761379588176469200,6.47146923828125,0.5442495942115784,0.492705762386322,-0.8236355185508728
1761379588186503400,6.48150341796875,0.5273458957672119,0.8251510262489319,-0.8758454918861389
1761379588196520400,6.4915205078125,0.572494626045227,1.075758934020996,-0.7851483225822449
1761379588206558200,6.50155810546875,0.5578392148017883,1.203094720840454,-0.5669155716896057
1761379588216592100,6.511592041015625,0.4860941767692566,1.2014793157577515,-0.2563202381134033
1761379588226610700,6.521610595703125,0.4271060526371002,1.0612701177597046,0.058804936707019806
1761379588236637700,6.5316376953125,0.4320355951786041,0.853212833404541,0.2754555940628052
1761379588246663000,6.541662841796875,0.4706226885318756,0.6295841932296753,0.35797569155693054
1761379588256674000,6.551674072265625,0.49515390396118164,0.46462729573249817,0.365719735622406
1761379588266715100,6.561715087890625,0.48774290084838867,0.40082618594169617,0.36317169666290283
1761379588276741400,6.571741455078125,0.4520202875137329,0.38302314281463623,0.3780103325843811
1761379588286755300,6.58175537109375,0.4242915213108063,0.37304747104644775,0.45045483112335205
1761379588296781600,6.591781494140625,0.45899826288223267,0.3875197172164917,0.6162610650062561
1761379588306818800,6.60181884765625,0.5351232886314392,0.3991774320602417,0.8605905175209045
1761379588316834000,6.611833984375,0.5553577542304993,0.38996782898902893,1.1059192419052124
1761379588326870500,6.62187060546875,0.49412134289741516,0.26073354482650757,1.2751061916351318
1761379588336897000,6.63189697265625,0.34575173258781433,-0.04031910374760628,1.3053663969039917
1761379588346905600,6.641905517578125,0.12958402931690216,-0.36352142691612244,1.1813114881515503
1761379588356949200,6.65194921875,-0.10145559161901474,-0.5666990876197815,0.9452090263366699
1761379588366986500,6.661986572265625,-0.26023390889167786,-0.627102792263031,0.7071914076805115
1761379588377000700,6.672000732421875,-0.34077221155166626,-0.5838525891304016,0.5135064721107483
1761379588387028700,6.68202880859375,-0.31862249970436096,-0.420227974653244,0.3720482289791107
1761379588397053400,6.692053466796875,-0.15749597549438477,-0.15261638164520264,0.28243356943130493
1761379588407079700,6.70207958984375,0.10483632981777191,0.16672223806381226,0.27572205662727356
1761379588417087200,6.712087158203125,0.3391900658607483,0.47003981471061707,0.3744131028652191
1761379588427131600,6.722131591796875,0.48259684443473816,0.6963330507278442,0.5361891388893127
1761379588437158400,6.732158447265625,0.5505947470664978,0.7633650302886963,0.6643908619880676
1761379588447184100,6.74218408203125,0.5364222526550293,0.7055760025978088,0.6549980640411377
1761379588457200600,6.75220068359375,0.4459249675273895,0.5899312496185303,0.5003332495689392
1761379588467224300,6.762224365234375,0.3072145879268646,0.4272892475128174,0.25753599405288696
1761379588477250300,6.772250244140625,0.1589115560054779,0.2415982037782669,-0.0003663859097287059
1761379588487276500,6.782276611328125,0.05843855068087578,0.16722185909748077,-0.20502622425556183
1761379588497302800,6.792302734375,0.007860642857849598,0.2269427627325058,-0.33785775303840637
1761379588507318500,6.802318603515625,0.009642611257731915,0.34416958689689636,-0.3889685869216919
1761379588517343000,6.812343017578125,0.07517572492361069,0.5118077993392944,-0.35519447922706604
1761379588527377400,6.82237744140625,0.19256910681724548,0.6958168148994446,-0.28001874685287476
1761379588537395500,6.8323955078125,0.34736713767051697,0.8386240601539612,-0.1946008801460266
1761379588547423700,6.842423828125,0.4690072536468506,0.8799923062324524,-0.13203215599060059
1761379588557447400,6.852447509765625,0.5273292660713196,0.8115947246551514,-0.11078177392482758
1761379588567462400,6.86246240234375,0.461113303899765,0.5849018096923828,-0.02033441700041294
1761379588577497900,6.872497802734375,0.29347512125968933,0.061269715428352356,-0.01712021417915821
1761379588587523600,6.882523681640625,0.14059226214885712,-0.5729276537895203,-0.1177431046962738
1761379588597558800,6.892558837890625,0.056256890296936035,-0.996802806854248,-0.26090008020401
1761379588607577600,6.90257763671875,-0.036305513232946396,-1.2230627536773682,-0.4079873561859131
1761379588617592800,6.9125927734375,-0.18079479038715363,-1.1667059659957886,-0.3925325274467468
