time,seconds_elapsed,z,y,x
1761379564296935000,0.139934814453125,-0.0867929458618164,-0.02048325538635254,0.004332840442657471
1761379564316985900,0.15998583984375,-0.8102550506591797,-0.21132254600524902,0.0612463653087616
1761379564337037600,0.18003759765625,-1.6390442848205566,-0.5729204416275024,0.24561338126659393
1761379564357089500,0.200089599609375,-1.7929811477661133,-0.7792311906814575,0.07918781042098999
1761379564377131000,0.220131103515625,-2.027768135070801,-1.4621734619140625,0.17561399936676025
1761379564397194000,0.240194091796875,-2.1268258094787598,-1.8633729219436646,0.2058050036430359
1761379564417236500,0.260236572265625,-2.4349260330200195,-1.7782728672027588,0.16967572271823883
1761379564437298200,0.280298095703125,-2.729682445526123,-1.6117103099822998,0.23215290904045105
1761379564457350100,0.30035009765625,-1.937154769897461,-1.8611725568771362,0.5275958776473999
1761379564477389600,0.3203896484375,-0.2501659393310547,-2.172774076461792,0.9990640878677368
1761379564497457200,0.34045703125,0.7833461761474609,-0.9744296073913574,0.3529081642627716
1761379564517508900,0.3605087890625,1.4192838668823242,0.8416910171508789,-0.8925479650497437
1761379564537537500,0.38053759765625,4.0769805908203125,1.1519269943237305,-1.4587618112564087
1761379564557589500,0.400589599609375,7.313102722167969,0.5152864456176758,-0.9874697327613831
1761379564577639400,0.420639404296875,7.885978698730469,0.9096026420593262,-0.9704650044441223
1761379564597692200,0.440692138671875,8.516901969909668,2.320509433746338,-2.32743239402771
1761379564617758500,0.460758544921875,8.516378402709961,2.4719839096069336,-1.8919740915298462
1761379564637808600,0.48080859375,5.182882308959961,2.205624580383301,0.2685343623161316
1761379564657872000,0.500871826171875,1.1518287658691406,1.3680658340454102,2.4263062477111816
1761379564677913000,0.5209130859375,0.6915960311889648,-0.28922414779663086,3.219461441040039
1761379564697975800,0.540975830078125,3.0923500061035156,-2.596107244491577,2.5162224769592285
1761379564718017000,0.56101708984375,5.6768388748168945,-3.2378339767456055,0.08047732710838318
1761379564738079700,0.581079833984375,5.2815752029418945,-2.504662275314331,-1.3480489253997803
1761379564758133000,0.601133056640625,1.1845464706420898,-1.7509421110153198,-0.5518975257873535
1761379564778174200,0.62117431640625,-4.256952285766602,-2.155627727508545,1.5750266313552856
1761379564798228000,0.64122802734375,-7.674254417419434,-2.731800079345703,1.4843729734420776
1761379564818281000,0.661281005859375,-6.651089668273926,-2.195420742034912,0.43375325202941895
1761379564838329300,0.681329345703125,-3.932009696960449,-0.8432183265686035,-0.21206432580947876
1761379564858381600,0.701381591796875,-3.0376367568969727,-1.3985384702682495,1.0714900493621826
1761379564878427000,0.721427001953125,-5.652627468109131,-1.4709973335266113,1.7519315481185913
1761379564898497800,0.741497802734375,-10.174592018127441,-1.2880151271820068,1.0762476921081543
1761379564918550000,0.761550048828125,-11.491586685180664,-2.378706216812134,0.5669108033180237
1761379564938600400,0.781600341796875,-9.44788646697998,-3.4627315998077393,0.35960230231285095
1761379564958652400,0.80165234375,-7.114615440368652,-4.310216903686523,0.35566455125808716
1761379564978684000,0.821683837890625,-4.085989475250244,-3.4622859954833984,-1.769425630569458
1761379564998756400,0.84175634765625,-4.356246471405029,-3.351778268814087,-3.0364816188812256
1761379565018808600,0.86180859375,-5.377993583679199,-3.949864625930786,-2.8703668117523193
1761379565038861000,0.881861083984375,-5.57011079788208,-2.663361072540283,-1.5996589660644531
1761379565058913300,0.901913330078125,-3.866675853729248,-0.8179030418395996,-0.6805484294891357
1761379565078925800,0.92192578125,-0.3038139343261719,8.337905883789062,-5.52685546875
1761379565099019000,0.94201904296875,0.725224494934082,2.570293426513672,0.606148362159729
1761379565119069200,0.962069091796875,2.194194793701172,0.5978565216064453,2.183006763458252
1761379565139121400,0.982121337890625,7.4272661209106445,0.4285726547241211,2.008333921432495
1761379565159153000,1.00215283203125,12.264397621154785,0.91202712059021,-0.5381103754043579
1761379565179226000,1.02222607421875,10.592045783996582,0.868293046951294,-0.6368007659912109
1761379565199277800,1.04227783203125,7.457821846008301,-0.48718690872192383,1.7598968744277954
1761379565219347000,1.062346923828125,5.317426681518555,0.40902185440063477,1.2030783891677856
1761379565239363000,1.082363037109375,3.269497871398926,0.6512856483459473,-1.6544890403747559
1761379565259413800,1.102413818359375,1.1320409774780273,0.2670559883117676,-3.5817675590515137
1761379565279486000,1.12248583984375,0.15552616119384766,0.6971435546875,-1.9218878746032715
1761379565299540200,1.142540283203125,0.8257551193237305,0.9711105823516846,1.7945524454116821
1761379565319593000,1.162593017578125,0.9428997039794922,0.1255044937133789,3.9299585819244385
1761379565339644000,1.182643798828125,1.0173835754394531,-0.5545125007629395,2.9180023670196533
1761379565359696400,1.2026962890625,2.2567291259765625,-0.7419798374176025,0.7228840589523315
1761379565379748000,1.222748046875,2.427395820617676,-1.5416022539138794,0.3955468535423279
1761379565399800300,1.24280029296875,1.0160188674926758,-1.685758352279663,1.8891886472702026
1761379565419852000,1.26285205078125,-1.607670783996582,-1.1287257671356201,2.597853660583496
1761379565439885800,1.2828857421875,-3.0243210792541504,-0.5507321357727051,2.27652645111084
1761379565459962400,1.30296240234375,-4.9497833251953125,-1.0445375442504883,0.8677603006362915
1761379565480013000,1.323012939453125,-4.457002639770508,-1.797811508178711,0.16392651200294495
1761379565500061400,1.3430615234375,-2.7838754653930664,-2.8713817596435547,1.4863207340240479
1761379565520114000,1.363114013671875,0.11194610595703125,-2.6620144844055176,2.2102344036102295
1761379565540166000,1.383165771484375,5.517060279846191,-1.6527061462402344,1.070631504058838
1761379565560217900,1.4032177734375,8.044289588928223,-0.4918692111968994,-1.1078132390975952
1761379565580253400,1.42325341796875,7.958732604980469,-0.36653661727905273,-1.2769651412963867
1761379565600351700,1.443351806640625,5.001335144042969,-0.4872758388519287,-0.9519724249839783
1761379565620374000,1.4633740234375,4.496763229370117,-1.559565544128418,0.4383310079574585
1761379565640404000,1.483404052734375,7.383684158325195,-2.677856922149658,0.7696692943572998
1761379565660478700,1.503478759765625,10.84921932220459,-0.643091082572937,-1.4541161060333252
1761379565680531000,1.523531005859375,11.311752319335938,3.0742697715759277,-3.716073513031006
1761379565700582400,1.54358251953125,5.912047386169434,5.241364479064941,-3.159106731414795
1761379565720634000,1.563634033203125,-0.021026611328125,5.608478546142578,-2.095548152923584
1761379565740691000,1.58369091796875,-2.6888604164123535,3.8078725337982178,-1.6819489002227783
1761379565760739300,1.6037392578125,-3.905712127685547,-0.9946656227111816,-0.16270196437835693
1761379565780790000,1.6237900390625,-1.9447736740112305,-5.083353042602539,0.8189500570297241
1761379565800843800,1.64384375,2.309659957885742,-4.329761505126953,-0.5255975723266602
1761379565820899800,1.66389990234375,4.252236366271973,-2.387622833251953,-0.7140691876411438
1761379565840926700,1.6839267578125,3.3806066513061523,-0.8184969425201416,0.7625159025192261
1761379565861000200,1.704000244140625,-1.6111984252929688,-2.049484968185425,4.0808024406433105
1761379565881053000,1.724052978515625,-5.706750392913818,-1.181193232536316,4.305201530456543
1761379565901102800,1.744102783203125,-7.614920616149902,-0.47012507915496826,3.5092740058898926
1761379565921155800,1.76415576171875,-7.122685432434082,-0.8388339877128601,1.9156004190444946
1761379565941185800,1.784185791015625,-6.434063911437988,-1.320548415184021,0.5812718868255615
1761379565961266200,1.80426611328125,-6.568656921386719,-1.7704980373382568,-0.6068694591522217
1761379565981291500,1.82429150390625,-7.334534168243408,-2.323244571685791,-1.5767982006072998
1761379566001364200,1.8443642578125,-7.15949821472168,-2.759948253631592,-1.1553325653076172
1761379566021416000,1.864416015625,-8.700798034667969,-3.4176087379455566,0.17353364825248718
1761379566041443800,1.88444384765625,-9.12320327758789,-3.274977922439575,0.44390425086021423
1761379566061520600,1.904520751953125,-8.116153717041016,-3.9325687885284424,-0.25471267104148865
1761379566081572600,1.924572509765625,-7.255212306976318,-4.151991844177246,-0.7209652662277222
1761379566101624800,1.944624755859375,-7.193793296813965,-4.20037317276001,0.8421680927276611
1761379566121677600,1.964677490234375,-4.731967926025391,-3.7215185165405273,0.30750831961631775
1761379566141728800,1.984728759765625,-1.2497920989990234,-1.776216983795166,-0.4706061780452728
1761379566161781500,2.004781494140625,1.3940582275390625,5.742457389831543,-3.1321568489074707
1761379566181811700,2.024811767578125,7.572768211364746,8.823616981506348,-0.8302885293960571
1761379566201885000,2.044885009765625,7.025733947753906,-1.8591641187667847,3.0611298084259033
1761379566221937200,2.064937255859375,8.593462944030762,0.47905945777893066,-3.141853094100952
1761379566241984000,2.08498388671875,10.593347549438477,3.3246328830718994,-3.62448787689209
1761379566262045000,2.105044921875,8.98556900024414,2.9781181812286377,-0.10852023959159851
1761379566282094800,2.1250947265625,6.025035858154297,1.6580514907836914,3.820953130722046
1761379566302145500,2.1451455078125,4.177888870239258,2.3540198802948,3.4418888092041016
1761379566322197800,2.16519775390625,4.003495216369629,2.320892810821533,1.3006229400634766
1761379566342255000,2.185255126953125,3.7632713317871094,1.0150058269500732,0.07959979772567749
1761379566362282200,2.2052822265625,2.797006607055664,0.4802126884460449,0.7799988985061646
1761379566382350000,2.22535009765625,0.7141313552856445,-0.3958137035369873,2.0891897678375244
1761379566402415900,2.245415771484375,-1.160111427307129,-1.0219404697418213,1.7652348279953003
1761379566422437400,2.265437255859375,-1.3659343719482422,-1.622035264968872,0.23566457629203796
1761379566442514200,2.28551416015625,-1.5692071914672852,-2.211402416229248,-0.6203190684318542
1761379566462562800,2.305562744140625,-2.7953810691833496,-2.3088343143463135,-1.059901237487793
1761379566482614300,2.3256142578125,-5.235122203826904,-2.0494062900543213,-2.350250720977783
1761379566502666200,2.345666259765625,-6.150148391723633,-1.8601301908493042,-2.9640262126922607
1761379566522718700,2.36571875,-5.008147239685059,-1.494394302368164,-2.223520278930664
1761379566542775300,2.385775390625,-3.3885130882263184,-1.5099046230316162,-1.150838017463684
1761379566562818300,2.405818359375,-2.6624059677124023,-2.083341598510742,0.05273209884762764
1761379566582864400,2.425864501953125,-3.4670004844665527,-2.556457042694092,0.3839469850063324
1761379566602932700,2.4459326171875,-4.521393775939941,-2.921570301055908,-0.09265033900737762
1761379566622979300,2.465979248046875,-4.549318313598633,-2.6993837356567383,-0.9346126317977905
1761379566643009800,2.486009765625,-2.5641541481018066,-1.58353853225708,-1.1647517681121826
1761379566663083300,2.506083251953125,-1.1691598892211914,0.06685686111450195,-1.2280112504959106
1761379566683135700,2.5261357421875,-0.7303009033203125,1.7752704620361328,-0.8435105085372925
1761379566703190500,2.5461904296875,0.6541633605957031,1.8864569664001465,0.4408484697341919
1761379566723240700,2.56624072265625,6.904013633728027,3.0049078464508057,0.36748912930488586
1761379566743291600,2.586291748046875,13.830011367797852,3.319007396697998,-0.989982545375824
1761379566763343600,2.606343505859375,15.447261810302734,2.0881476402282715,-2.5436620712280273
1761379566783398400,2.6263984375,13.730545043945312,1.5753679275512695,0.412738561630249
1761379566803427600,2.646427490234375,12.085660934448242,2.5228538513183594,4.01395845413208
1761379566823501600,2.66650146484375,10.365972518920898,2.8441896438598633,2.945239543914795
1761379566843542800,2.686542724609375,7.26317024230957,3.092947006225586,0.3342219591140747
1761379566863604500,2.7066044921875,6.46697998046875,3.3114333152770996,-0.7858757376670837
1761379566883656400,2.726656494140625,4.638832092285156,2.2100324630737305,0.8068751096725464
1761379566903698700,2.74669873046875,1.3501415252685547,-0.20466136932373047,2.893061399459839
1761379566923766800,2.766766845703125,-1.7930870056152344,-2.5070223808288574,2.281045436859131
1761379566943816200,2.786816162109375,-5.023224353790283,-4.038782119750977,1.447272777557373
1761379566963866000,2.8068662109375,-8.161084175109863,-4.432955741882324,0.9806315302848816
1761379566983917800,2.826917724609375,-9.534517288208008,-4.002761363983154,1.2312021255493164
1761379567003958300,2.846958251953125,-8.251106262207031,-3.588153123855591,1.3709015846252441
1761379567024021500,2.867021484375,-5.958962917327881,-3.28993821144104,0.9173473715782166
1761379567044073700,2.88707373046875,-4.858035087585449,-3.256159543991089,1.2569868564605713
1761379567064115500,2.907115478515625,-6.602503776550293,-3.849038600921631,1.2243561744689941
1761379567084180000,2.927179931640625,-8.348474502563477,-3.780022621154785,0.010503575205802917
1761379567104209200,2.947209228515625,-9.186001777648926,-4.047922611236572,-1.1223238706588745
1761379567124262700,2.9672626953125,-8.687813758850098,-4.191055774688721,-1.8777542114257812
1761379567144343300,2.98734326171875,-6.39918851852417,-4.6115498542785645,-2.1310858726501465
1761379567164386000,3.007385986328125,-3.4962635040283203,-4.6916704177856445,-2.028773069381714
1761379567184438800,3.027438720703125,-3.019987106323242,-4.886526107788086,-1.8016233444213867
1761379567204489700,3.04748974609375,-4.90517520904541,-4.608912944793701,-1.4317200183868408
1761379567224521200,3.067521240234375,-5.809040069580078,-4.270812511444092,-0.7445194721221924
1761379567244611600,3.087611572265625,-3.688272476196289,-3.5976321697235107,-1.45869779586792
1761379567264646100,3.107646240234375,-1.815657615661621,-1.4787745475769043,-3.9410314559936523
1761379567284677600,3.127677734375,0.40850353240966797,1.9185199737548828,-6.555904388427734
1761379567304750600,3.14775048828125,4.0769453048706055,4.156850814819336,-4.990452289581299
1761379567324790800,3.167790771484375,6.016756057739258,3.8984575271606445,3.076129198074341
1761379567344834300,3.187834228515625,4.274575233459473,1.4728198051452637,7.794981002807617
1761379567364909000,3.207908935546875,5.737242698669434,2.150704860687256,2.605889320373535
1761379567384961300,3.227961181640625,9.493599891662598,1.3750553131103516,-2.002643346786499
1761379567405013800,3.248013671875,11.022704124450684,2.749155282974243,-2.450810432434082
1761379567425065700,3.268065673828125,7.009765625,4.048588275909424,1.0299365520477295
1761379567445117700,3.28811767578125,2.782956123352051,3.4625391960144043,3.962646484375
1761379567465148700,3.308148681640625,1.2790231704711914,1.833289384841919,2.0529704093933105
1761379567485222400,3.328222412109375,1.6608972549438477,-0.05314135551452637,-1.093908667564392
1761379567505273300,3.3482734375,2.9480295181274414,-1.0873100757598877,-2.6652560234069824
1761379567525325800,3.368325927734375,4.135036468505859,-0.7493233680725098,-1.4670822620391846
1761379567545378800,3.38837890625,3.1169357299804688,-0.0654447078704834,1.189033031463623
1761379567565430500,3.408430419921875,-0.02659893035888672,-0.1296701431274414,2.0555288791656494
1761379567585482000,3.42848193359375,-3.1095666885375977,-1.0115892887115479,1.5501500368118286
1761379567605534700,3.44853466796875,-4.509897232055664,-2.0202901363372803,1.0736110210418701
1761379567625586400,3.46858642578125,-3.019123077392578,-3.103673219680786,-0.622551679611206
1761379567645639000,3.488638916015625,-1.9820184707641602,-3.5169973373413086,-3.4898452758789062
1761379567665691400,3.50869140625,-2.9594850540161133,-3.1706042289733887,-4.03133487701416
1761379567685754000,3.528754150390625,-4.724780082702637,-2.2010984420776367,-1.9902544021606445
1761379567705794800,3.548794921875,-5.263220310211182,-1.626277208328247,0.7979894876480103
1761379567725824500,3.568824462890625,-3.8719348907470703,-1.485863208770752,1.8515137434005737
1761379567745899300,3.588899169921875,-0.5596952438354492,-1.240370512008667,1.2090411186218262
1761379567765950500,3.608950439453125,2.848679542541504,-0.36240386962890625,-0.0685085654258728
1761379567785998600,3.62899853515625,3.05580997467041,-0.02504873275756836,-0.24410665035247803
1761379567806056400,3.649056396484375,2.0092544555664062,0.5581340789794922,1.0100936889648438
1761379567826107600,3.669107666015625,3.3074111938476562,0.8320798873901367,2.872420072555542
1761379567846159600,3.68915966796875,8.46213436126709,0.19462060928344727,2.541276454925537
1761379567866212000,3.709212158203125,13.602545738220215,-0.1323099136352539,0.18849366903305054
1761379567886264000,3.72926416015625,13.02120304107666,0.5546298027038574,-1.0225924253463745
1761379567906316300,3.74931640625,9.851738929748535,1.7520828247070312,0.505294680595398
1761379567926368500,3.769368408203125,8.703800201416016,3.3444385528564453,0.08973908424377441
1761379567946420500,3.78942041015625,6.97736930847168,3.6160058975219727,-1.6301308870315552
1761379567966451500,3.809451416015625,2.3828649520874023,2.1521637439727783,-1.0546433925628662
1761379567986525400,3.829525390625,-0.09402751922607422,0.42515134811401367,0.29697185754776
1761379568006576600,3.84957666015625,-1.0809869766235352,-1.1015673875808716,1.1408945322036743
1761379568026628900,3.86962890625,-1.6475558280944824,-1.8946534395217896,0.6754217147827148
1761379568046681000,3.88968115234375,-2.869199275970459,-2.2109785079956055,0.06675094366073608
1761379568066733600,3.909733642578125,-4.812323570251465,-2.23751163482666,0.299021452665329
1761379568086785800,3.929785888671875,-5.510166168212891,-2.17879056930542,0.01263187825679779
1761379568106837500,3.94983740234375,-5.658847808837891,-1.7546076774597168,-0.5244831442832947
1761379568126867000,3.969866943359375,-7.654876708984375,-1.8757818937301636,-0.7218996286392212
1761379568146920200,3.989920166015625,-9.674837112426758,-1.9586349725723267,-0.8797367811203003
1761379568166971400,4.009971435546875,-10.518522262573242,-1.7103384733200073,-0.8182297945022583
1761379568187030500,4.030030517578125,-9.614936828613281,-1.8374720811843872,-0.09685665369033813
1761379568207097900,4.050097900390625,-7.418651580810547,-1.7254548072814941,0.4587571322917938
1761379568227127800,4.0701279296875,-6.4574456214904785,-2.099997043609619,1.2240607738494873
1761379568247179500,4.090179443359375,-6.839362621307373,-2.6025614738464355,1.5238189697265625
1761379568267235300,4.1102353515625,-6.86524772644043,-2.4998419284820557,1.2421797513961792
1761379568287307300,4.130307373046875,-5.951598644256592,-2.4148523807525635,0.5777243375778198
1761379568307359200,4.150359130859375,-4.5128889083862305,-2.557251453399658,-0.04889601469039917
1761379568327411000,4.170410888671875,-3.1149606704711914,-2.3912599086761475,-0.78504878282547
1761379568347469600,4.190469482421875,-2.4433693885803223,-1.5035483837127686,-2.3372063636779785
1761379568367515400,4.210515380859375,-3.0071730613708496,1.8092701435089111,-4.357319355010986
1761379568387567000,4.230567138671875,-2.4303064346313477,6.819047927856445,-5.311849594116211
1761379568407619600,4.25061962890625,1.525864601135254,2.312020778656006,2.45222806930542
1761379568427672000,4.270672119140625,5.719271659851074,-3.085169792175293,6.11478328704834
1761379568447723500,4.2907236328125,10.627603530883789,0.3956944942474365,-0.47695982456207275
1761379568467753000,4.3107529296875,13.416874885559082,0.2739572525024414,-2.170436382293701
1761379568487804000,4.330803955078125,9.210841178894043,0.8714559078216553,-0.6615724563598633
1761379568507880400,4.35088037109375,3.4357099533081055,2.7370259761810303,-0.011662125587463379
1761379568527933400,4.370933349609375,2.199673652648926,3.5241312980651855,-0.45345020294189453
1761379568547985000,4.39098486328125,4.475555419921875,2.4757015705108643,0.17184776067733765
1761379568568035600,4.41103564453125,7.407062530517578,-0.05247652530670166,-0.22494226694107056
1761379568588088300,4.43108837890625,8.30885124206543,0.4079376459121704,-1.0937745571136475
1761379568608118000,4.451117919921875,6.095751762390137,0.3874630928039551,0.10741102695465088
1761379568628170500,4.47117041015625,1.4492788314819336,0.6427912712097168,-0.7494514584541321
1761379568648245200,4.491245361328125,-0.26772499084472656,0.32366156578063965,-1.7169303894042969
1761379568668282000,4.5112822265625,0.8511791229248047,-0.4735347032546997,-1.439011573791504
1761379568688327700,4.53132763671875,2.5833311080932617,-1.3381311893463135,-0.36440831422805786
1761379568708401000,4.55140087890625,2.0280818939208984,-1.9690910577774048,0.6765085458755493
1761379568728454100,4.5714541015625,-0.5822315216064453,-2.2621235847473145,1.5373845100402832
1761379568748505000,4.591505126953125,-3.8133792877197266,-2.2468206882476807,1.4000800848007202
1761379568768556800,4.611556884765625,-5.131894588470459,-2.151890754699707,0.41818010807037354
1761379568788609500,4.631609619140625,-5.290658950805664,-1.7992844581604004,-0.32119229435920715
1761379568808661800,4.651661865234375,-5.498805046081543,-2.1155102252960205,-0.031089067459106445
1761379568828699100,4.67169921875,-5.017300605773926,-2.079773187637329,0.21633538603782654
1761379568848744200,4.691744140625,-3.950422763824463,-2.5079357624053955,0.3807244598865509
1761379568868791300,4.711791259765625,-2.234461784362793,-2.1405420303344727,0.009423792362213135
1761379568888870400,4.731870361328125,-1.2649335861206055,-0.573636531829834,-0.39339300990104675
1761379568908922000,4.751922119140625,-0.8825407028198242,0.9063234329223633,-0.26442810893058777
1761379568928951800,4.771951904296875,-0.3160057067871094,0.7563505172729492,-0.03554999828338623
1761379568949026800,4.79202685546875,0.32981014251708984,1.8598203659057617,-0.6287026405334473
1761379568969078800,4.812078857421875,3.7331905364990234,3.647742748260498,-1.3551139831542969
1761379568989130800,4.832130859375,10.018707275390625,1.3919119834899902,-1.5962857007980347
1761379569009183000,4.852182861328125,13.997421264648438,-1.0115668773651123,-2.5543694496154785
1761379569029236000,4.872236083984375,14.515639305114746,-0.6144247055053711,-1.8166611194610596
1761379569049287200,4.892287109375,11.703569412231445,0.8341400623321533,1.2493032217025757
1761379569069340200,4.912340087890625,7.61250114440918,1.3812570571899414,2.279690980911255
1761379569089391400,4.932391357421875,4.747160911560059,1.2274134159088135,-0.3699352741241455
1761379569109443800,4.95244384765625,4.439318656921387,0.6782464981079102,-1.9896146059036255
1761379569129472500,4.972472412109375,4.990261077880859,0.5976276397705078,-1.7875466346740723
1761379569149548000,4.992548095703125,4.2157793045043945,1.0014994144439697,-1.0115910768508911
1761379569169599700,5.012599853515625,-0.8876819610595703,0.2593729496002197,2.1644296646118164
1761379569189630200,5.032630126953125,-6.201374053955078,-0.6921329498291016,5.147831439971924
1761379569209705000,5.052705078125,-7.179744243621826,-1.6509814262390137,4.582983016967773
1761379569229756400,5.07275634765625,-3.505368709564209,-2.2649102210998535,2.4423680305480957
1761379569249809000,5.092808837890625,-2.691441059112549,-2.911555051803589,0.9557124972343445
1761379569269861400,5.112861328125,-4.914511680603027,-3.2308526039123535,-0.2966788411140442
1761379569289913000,5.1329130859375,-7.552860736846924,-3.404693126678467,-0.46966010332107544
1761379569317462500,5.160462646484375,-8.355705261230469,-3.621612310409546,0.18814778327941895
1761379569337536500,5.18053662109375,-7.505408763885498,-4.007399559020996,-0.1721019744873047
1761379569357588000,5.200587890625,-7.556726455688477,-4.39931583404541,-0.8665812015533447
1761379569377640400,5.220640380859375,-7.16233491897583,-4.701767444610596,-1.0853365659713745
1761379569397692700,5.240692626953125,-6.561798572540283,-5.201296329498291,-0.9301183223724365
1761379569417745700,5.26074560546875,-6.976335525512695,-5.71043062210083,-0.19244730472564697
1761379569437797400,5.28079736328125,-7.0743255615234375,-5.147673606872559,0.43815767765045166
1761379569457850600,5.3008505859375,-5.570866584777832,-4.998567581176758,-0.17840063571929932
1761379569477878300,5.320878173828125,-3.790926456451416,-5.512667179107666,-0.5886182188987732
1761379569497953300,5.340953369140625,-5.276420593261719,-2.8301968574523926,-1.9269301891326904
1761379569518005500,5.361005615234375,-4.440985679626465,4.268723011016846,-5.9024739265441895
1761379569538059000,5.38105908203125,0.3611946105957031,8.167662620544434,-5.245000839233398
1761379569558109700,5.401109619140625,0.4045238494873047,-0.0023484230041503906,1.6149979829788208
1761379569578161400,5.421161376953125,0.18424463272094727,1.9033708572387695,-0.28386473655700684
1761379569598214100,5.441214111328125,4.171149253845215,2.5170140266418457,-0.2835562229156494
1761379569618267000,5.461266845703125,9.090246200561523,3.190487861633301,0.567785382270813
1761379569638318000,5.481318115234375,9.222945213317871,5.507536888122559,1.4402997493743896
1761379569658348000,5.50134814453125,7.660567283630371,3.0790085792541504,3.5041208267211914
1761379569678415600,5.52141552734375,9.401884078979492,0.9959475994110107,1.7652270793914795
1761379569698475500,5.5414755859375,9.73187255859375,-0.9789619445800781,-1.0033128261566162
1761379569718504200,5.561504150390625,7.861362457275391,-1.5372586250305176,-2.9071037769317627
1761379569738578700,5.58157861328125,5.392862319946289,-1.6046561002731323,-2.333233118057251
1761379569758631000,5.601630859375,1.5715370178222656,-1.2196710109710693,-0.3543558120727539
1761379569778686700,5.621686767578125,-0.8040170669555664,-0.9874463081359863,1.0875017642974854
1761379569798735000,5.641735107421875,-1.4602489471435547,-1.3058903217315674,1.2212845087051392
1761379569818787300,5.661787353515625,-0.6076450347900391,-1.7852184772491455,0.7502205967903137
1761379569838839800,5.68183984375,0.27887439727783203,-1.5415773391723633,0.09798973798751831
1761379569858891500,5.7018916015625,-0.5762042999267578,-1.4040865898132324,-0.1366332471370697
1761379569878943500,5.721943603515625,-2.5385913848876953,-1.203545093536377,0.37385886907577515
1761379569898995700,5.74199560546875,-4.01125431060791,-1.223292589187622,0.6465477347373962
1761379569919048200,5.762048095703125,-3.794658660888672,-1.1270573139190674,0.6674861907958984
1761379569939101000,5.782100830078125,-3.0385422706604004,-1.3550856113433838,0.4397090971469879
1761379569959152400,5.80215234375,-2.280421733856201,-1.5178468227386475,-0.180752694606781
1761379569979172400,5.82217236328125,-2.6233272552490234,-1.902127742767334,0.19809305667877197
1761379569999255800,5.842255859375,-3.1691975593566895,-2.245511054992676,0.6270648837089539
1761379570019309000,5.86230908203125,-3.0520782470703125,-2.3827388286590576,0.9653950333595276
1761379570039360300,5.8823603515625,-1.259943962097168,-1.7437326908111572,0.669140100479126
1761379570059413500,5.90241357421875,1.3587980270385742,-1.0274274349212646,0.28736281394958496
1761379570079464700,5.922464599609375,3.319934844970703,0.44319748878479004,-0.6149471998214722
1761379570099517700,5.942517578125,4.3038434982299805,2.603642463684082,-2.3196189403533936
1761379570119570000,5.96256982421875,3.744929313659668,4.1385817527771,-2.7161777019500732
1761379570139622000,5.982621826171875,3.493776321411133,3.4618000984191895,-0.3167431354522705
1761379570159673900,6.002673828125,6.925107002258301,1.0760846138000488,0.9330899715423584
1761379570179702800,6.022702880859375,13.453898429870605,2.1422176361083984,-2.6628096103668213
1761379570199778000,6.042778076171875,13.095698356628418,4.253072261810303,-4.634757995605469
1761379570219830500,6.06283056640625,5.3315839767456055,4.361286163330078,-2.544062376022339
1761379570239882000,6.082882080078125,-0.022502899169921875,5.137564659118652,-1.560777187347412
1761379570259935000,6.10293505859375,0.5722818374633789,4.092594623565674,0.20039141178131104
1761379570279976700,6.122976806640625,3.2203664779663086,0.5451350212097168,1.551546573638916
1761379570300038700,6.14303857421875,4.00583553314209,-1.6231460571289062,1.0528712272644043
1761379570320090400,6.16309033203125,1.8794488906860352,-1.7003273963928223,0.9476782083511353
1761379570340135200,6.18313525390625,-3.0710220336914062,-2.481610059738159,1.3459985256195068
1761379570360194800,6.20319482421875,-8.082716941833496,-2.852445602416992,1.2898902893066406
1761379570380247000,6.2232470703125,-10.114166259765625,-3.8963942527770996,1.1957486867904663
1761379570400299000,6.243299072265625,-8.254926681518555,-4.874245643615723,0.285888135433197
1761379570420351200,6.263351318359375,-6.174801826477051,-4.653055667877197,-0.0059130191802978516
1761379570440403500,6.283403564453125,-5.8397440910339355,-4.259261608123779,0.39225971698760986
1761379570460455200,6.303455078125,-5.713951587677002,-4.039204120635986,0.41768962144851685
1761379570480507400,6.32350732421875,-5.861980438232422,-4.078456878662109,0.057120680809020996
1761379570500560100,6.34356005859375,-6.5110015869140625,-3.8389270305633545,-0.7649860382080078
1761379570520611600,6.363611572265625,-7.245699882507324,-3.7124974727630615,-0.8874344825744629
1761379570540643600,6.3836435546875,-8.01608657836914,-3.6956024169921875,-0.08712464570999146
1761379570560716000,6.403716064453125,-7.882359504699707,-3.868595838546753,0.730372428894043
1761379570580768300,6.423768310546875,-6.471615791320801,-3.871077537536621,1.0246264934539795
1761379570600820000,6.443820068359375,-4.383891582489014,-2.237171173095703,0.013610422611236572
1761379570620874500,6.46387451171875,-1.9412946701049805,-0.3959779739379883,-1.048072099685669
1761379570640924400,6.48392431640625,0.5486211776733398,1.629617691040039,-2.4116804599761963
1761379570660977000,6.503976806640625,2.6781396865844727,8.956136703491211,-5.407610893249512
1761379570681029000,6.524029052734375,2.436306953430176,2.3399691581726074,1.7051410675048828
1761379570701080800,6.544080810546875,2.5096139907836914,3.0359158515930176,-0.32457196712493896
1761379570721133600,6.564133544921875,4.648149490356445,3.0974035263061523,-0.7406675815582275
1761379570741185300,6.584185302734375,6.299579620361328,3.4821672439575195,0.31043022871017456
1761379570761236700,6.60423681640625,6.359654426574707,3.0945000648498535,1.2655540704727173
1761379570781289000,6.6242890625,6.776177406311035,2.8431694507598877,1.6892483234405518
1761379570801312000,6.64431201171875,7.654659271240234,2.0410101413726807,1.001004934310913
1761379570821384400,6.664384521484375,7.512253761291504,0.539862871170044,-0.05396470054984093
1761379570841445000,6.684445068359375,5.710875511169434,-0.39418625831604004,-0.42808207869529724
1761379570861499000,6.704498779296875,3.2489547729492188,-0.028104305267333984,-0.5967997312545776
1761379570881533700,6.72453369140625,1.0080270767211914,0.015080451965332031,-0.3130664825439453
1761379570901601300,6.744601318359375,-0.05563831329345703,-0.16950654983520508,0.25221824645996094
1761379570921654300,6.764654296875,-0.8039960861206055,-0.3882167339324951,0.38707441091537476
1761379570941706200,6.784706298828125,-2.078953742980957,-0.5787317752838135,-0.14655545353889465
1761379570961757400,6.80475732421875,-2.605393886566162,-0.6062881946563721,-0.7296954989433289
1761379570981810200,6.82481005859375,-2.9940714836120605,-0.5198612213134766,-1.0503088235855103
1761379571001855700,6.844855712890625,-3.967158317565918,-0.156829833984375,-1.2583861351013184
1761379571021898200,6.864898193359375,-3.7700796127319336,-0.02929830551147461,-0.9715704917907715
1761379571041966300,6.88496630859375,-2.5987610816955566,-0.29636526107788086,-0.024417966604232788
1761379571062009300,6.90500927734375,-1.113687515258789,-0.6880354881286621,1.1441025733947754
1761379571082064600,6.925064697265625,0.08131027221679688,-0.5713880062103271,1.1291966438293457
1761379571102123800,6.945123779296875,-0.27585601806640625,-0.5533533096313477,0.6323615908622742
1761379571122164700,6.965164794921875,-1.8721742630004883,-0.30745410919189453,-0.363224595785141
1761379571142227500,6.9852275390625,-2.514286518096924,-0.3888053894042969,-0.6562740802764893
1761379571162279200,7.005279052734375,-1.2512521743774414,-0.18925189971923828,-0.5457241535186768
1761379571182332200,7.025332275390625,0.5828742980957031,0.03272891044616699,-0.33679184317588806
1761379571202383400,7.04538330078125,1.703038215637207,0.326094388961792,-1.3312791585922241
1761379571222425600,7.065425537109375,2.240170478820801,0.5798118114471436,-2.1520798206329346
1761379571242488300,7.08548828125,1.9891319274902344,0.5822679996490479,-1.9902935028076172
1761379571262537000,7.105536865234375,1.4587936401367188,0.7112877368927002,-1.7771133184432983
1761379571282592300,7.12559228515625,1.06170654296875,0.6520218849182129,-1.8243582248687744
1761379571302644500,7.14564453125,0.5220623016357422,0.6166996955871582,-1.698392629623413
1761379571322674700,7.1656748046875,1.058934211730957,0.5581371784210205,-1.4899463653564453
1761379571342748200,7.185748046875,2.591367721557617,0.3254580497741699,-0.9176163077354431
1761379571362800400,7.20580029296875,1.9856433868408203,0.06822693347930908,-0.42593634128570557
1761379571382852600,7.2258525390625,1.5693778991699219,-0.02661442756652832,-0.807212769985199
1761379571402893600,7.2458935546875,0.5977268218994141,-0.05897724628448486,-0.5247210264205933
1761379571422949600,7.26594970703125,0.4904336929321289,-0.06986212730407715,-0.3263237476348877
