time,seconds_elapsed,z,y,x
1761316078348910800,0.072910888671875,6.320480785888433,0.45234848481640216,0.3749543890884146
1761316078358893800,0.082893798828125,6.82711630281806,0.6040745852880179,0.7024984999652951
1761316078368876000,0.0928759765625,7.304416419669986,0.7342015790224075,0.9572269289456308
1761316078378858800,0.102858642578125,7.677870377600192,0.8222636010959744,1.1182413745053112
1761316078388842000,0.112842041015625,7.910822224384546,0.8352233281731605,1.0790370529726148
1761316078398824000,0.122823974609375,8.018038152000308,0.8340304651267826,0.8847510369300842
1761316078408807000,0.132806884765625,8.09776284610033,0.8461138477608561,0.6570178746420889
1761316078418790000,0.142789794921875,8.162399861183761,0.847455763889104,0.46558264492079615
1761316078428772000,0.152772216796875,8.28732329492569,0.8589465874575078,0.24942007517283782
1761316078438754800,0.1627548828125,8.397641864731908,0.940352804903686,0.05067837662938982
1761316078448737800,0.17273779296875,8.442422671222687,1.1025411165483294,-0.05246468465742655
1761316078458721000,0.182720947265625,8.43014537345171,1.3289464642986655,-0.09739364004777744
1761316078468702700,0.19270263671875,8.309077446094156,1.542095732373744,-0.12898260947223752
1761316078478686000,0.20268603515625,8.0260525316298,1.6666178918384014,-0.13123976814872584
1761316078488669000,0.2126689453125,7.5927850332498545,1.7631842690154909,-0.04504104202927556
1761316078498651000,0.22265087890625,7.0731322138369075,1.8832634775966404,0.047994927965383974
1761316078508634000,0.232634033203125,6.418486986610293,1.9486825829684733,0.14309819205366076
1761316078518616800,0.242616943359375,5.714823753714561,1.9979870043635368,0.18559841332659124
1761316078528600000,0.25260009765625,5.0735623241961,1.8290186771899462,0.22808782094456254
1761316078538582000,0.26258203125,4.461501270198822,1.1027566589951514,0.33366759872585533
1761316078548565000,0.27256494140625,3.528449435958266,-0.02022358060032129,0.5830381904674694
1761316078558548000,0.2825478515625,1.5675532681047915,-1.5352470355227588,0.795493959853053
1761316078568530200,0.2925302734375,-1.307428752234578,-3.605961130183935,1.1635047768812625
1761316078578513000,0.302512939453125,-4.5218630921810865,-5.3449172591328615,1.5715901224054396
1761316078588496000,0.312495849609375,-7.461990077126026,-5.537195734745263,1.225828838847205
1761316078598478000,0.32247802734375,-9.619920975208283,-4.664122276127338,0.6836783564221114
1761316078608460800,0.332460693359375,-11.299329521167278,-3.520793952769041,0.550930622262694
1761316078618444000,0.342444091796875,-13.187968846583365,-2.375101530627906,0.6470171435009687
1761316078628427000,0.352427001953125,-15.382366896319388,-1.4413798343017696,0.6270679228626191
1761316078638409000,0.362408935546875,-17.44468170368671,-0.8796738797962665,0.6190504744932055
1761316078648392000,0.372391845703125,-18.63650313205719,-0.6000137655898928,0.5428516529643908
1761316078658375000,0.382375,-18.324866455614565,-0.5473521427214145,0.4130534162603318
1761316078668356900,0.39235693359375,-16.38782521060109,-1.0797127602770924,0.3656721084149554
1761316078678339800,0.40233984375,-13.57293730121851,-1.960718180938065,0.5341698954673484
1761316078688323000,0.412322998046875,-10.249170479893683,-2.5987284997060893,0.7266415190316736
1761316078698305000,0.422304931640625,-6.780362150427699,-2.7311571945115922,0.8654588919609785
1761316078708288000,0.4322880859375,-3.4769086338132618,-2.41969616689682,0.7505737448915839
1761316078718271000,0.44227099609375,-0.9426853395044803,-2.0109756652742625,0.48082770645618433
1761316078728254000,0.45225390625,0.5418512072175741,-1.633972782690823,0.06810381441116332
1761316078738236000,0.46223583984375,1.1819558679163455,-1.2637310648053883,-0.6566491143949329
1761316078748219100,0.47221923828125,1.3336913207381962,-0.7860808193415403,-1.3722107287466525
1761316078758202000,0.4822021484375,1.4006225842386484,-0.22414193286299705,-1.7430958591021597
1761316078768184000,0.49218408203125,1.5801163970798253,0.24431641362458467,-1.7663507702223955
1761316078778167000,0.5021669921875,1.8461077591568231,0.5887095506347716,-1.6225107468254862
1761316078788150000,0.51214990234375,2.1229034238427875,0.8564826815620065,-1.5051836134314536
1761316078798132000,0.522132080078125,2.487375033894181,1.0367192755945027,-1.4759319461144507
1761316078808115000,0.532114990234375,3.165235717013478,1.0921502170458435,-1.0885701666019856
1761316078818098200,0.54209814453125,3.901310104170441,1.1299325429514049,-0.4268235829375684
1761316078828081200,0.5520810546875,4.503694982805848,1.1957510229043662,0.2632058230116963
1761316078838063000,0.56206298828125,4.923600895309448,1.2844352685295044,0.8814591557778417
1761316078848046000,0.572046142578125,5.357438302531838,1.317316378390044,1.360575089880079
1761316078858029000,0.582029052734375,5.847927571302652,1.238007717745006,1.7134212901979684
1761316078868011000,0.592010986328125,6.418271298032999,1.1221315138116479,1.8597296034045516
1761316078877994000,0.601993896484375,7.014611051285266,1.0735479540370405,1.832773061287403
1761316078887977200,0.611977294921875,7.571132588890195,1.087770102265477,1.7232095476321876
1761316078897959000,0.621958984375,8.090109116476773,1.1305781473785639,1.6233977587930857
1761316078907942100,0.631942138671875,8.592614986255764,1.142939762432128,1.4709569341808557
1761316078917925000,0.641925048828125,9.054540423843264,1.1257668015740812,1.2740456842012702
1761316078927907800,0.651907958984375,9.467966326677798,1.14292237290591,1.1232951507635414
1761316078937890000,0.66189013671875,9.708827923673391,1.1671326850548387,0.9984713049385696
1761316078947873000,0.671873046875,9.763394795641302,1.2030582771778107,0.9086316056679934
1761316078957856000,0.68185595703125,9.54465384503901,1.3235399290800094,0.8141309288490564
1761316078967838000,0.691837890625,9.151506175601481,1.494203661994636,0.7151543487250804
1761316078977821200,0.7018212890625,8.675936243543028,1.6834002459436654,0.6216819189753383
1761316078987804000,0.711803955078125,8.132091232159734,1.8285224181056021,0.43550636334791776
1761316078997786000,0.7217861328125,7.786316723793744,1.8734777043804525,0.28171551236622033
1761316079007769000,0.73176904296875,7.587294619140028,1.8222738791048525,0.12246566532626747
1761316079017751800,0.741751708984375,7.403511584672331,1.7604922534525393,-0.11392243951708078
1761316079027734000,0.751734130859375,6.9144748527973885,1.6191802872285246,-0.30115875624381006
1761316079037717000,0.761717041015625,5.92242020996809,1.310886783733964,-0.2882051666464656
1761316079047700000,0.771699951171875,4.336627520817518,0.8863087877660989,-0.017881401388347148
1761316079057683000,0.781682861328125,1.590270126825571,0.3843652280449867,0.4586214276060462
1761316079067665200,0.7916650390625,-2.3375305093854664,-0.30466449934244155,0.5578495713382959
1761316079077648000,0.80164794921875,-6.188123987275362,-1.4833397381529212,0.37254941030591726
1761316079087631000,0.811631103515625,-8.919931462389231,-3.419299909931421,0.07923281892985105
1761316079097613000,0.821613037109375,-10.22741223707199,-5.601977126735449,-0.5045861466517672
1761316079107596000,0.831595947265625,-10.804115561962128,-6.827825912392139,-0.8410322336476296
1761316079117579000,0.8415791015625,-11.109198578977583,-6.632462914767861,-0.9620514264926314
1761316079127561200,0.851561279296875,-12.676067956471442,-5.202035559374094,-0.5483592739373445
1761316079137544000,0.8615439453125,-16.05166082662344,-3.4900682673767207,-0.040505375927593554
1761316079147527000,0.87152685546875,-19.897211634171008,-2.1972718516066667,-0.08857923261439427
1761316079157510100,0.88151025390625,-23.210452385306358,-1.0985793733105063,0.03204931694520637
1761316079167491800,0.891491943359375,-24.353155270242688,-0.18689269092082977,0.6883741860881447
1761316079177475000,0.90147509765625,-22.345720054054258,0.031603345009684564,1.507328370375186
1761316079187458000,0.9114580078125,-17.984522740125655,-0.681519790148735,2.0414739716514942
1761316079197440000,0.92143994140625,-12.875295228308438,-2.0437661742419,2.1012188307791946
1761316079207423000,0.931423095703125,-8.252378238272666,-3.2399136491179465,1.7314838933721184
1761316079217406000,0.941406005859375,-4.454620278513431,-3.7201153326302765,0.9055186612792313
1761316079227388000,0.951387939453125,-1.7084493470042943,-3.5399300303936,-0.06042737063230015
1761316079237371000,0.961370849609375,0.10981237384974955,-3.102422410225868,-0.9250269332170485
1761316079247354000,0.97135400390625,1.3661515748381614,-2.4775422066658734,-1.5713485687345266
1761316079257335800,0.981335693359375,2.3959248306870458,-1.7421669076889752,-1.9161808278143404
1761316079267319000,0.991319091796875,3.245500509339571,-1.0774752104833722,-1.9251091074183582
1761316079277302000,1.001302001953125,3.61740256165266,-0.41391938543990253,-1.6576989645846187
1761316079287285000,1.011284912109375,3.88100322920084,0.17663740049675106,-1.2565830927468835
1761316079297267000,1.021266845703125,4.379624366500973,0.6792739109180868,-0.7507032895553857
1761316079307250000,1.03125,4.85798714414835,1.0468442176371813,-0.2495262572273612
1761316079317233200,1.041233154296875,5.255996282142401,1.268826195987314,0.046197249159961935
1761316079327214800,1.05121484375,5.588088886636495,1.4052018748529254,0.17939093698859213
1761316079337198000,1.061197998046875,5.92920709362924,1.3769215367861092,0.1618444666430354
1761316079347181000,1.07118115234375,6.234409353110194,1.1978444880522787,0.13677895330372267
1761316079357163000,1.0811630859375,6.608004765337705,1.0375561648100613,0.10326167356465012
1761316079367146000,1.09114599609375,7.02014355097115,0.9186706960581242,0.15529294437402857
1761316079377129000,1.10112890625,7.389140529492497,0.8880335657320916,0.25575210947226734
1761316079387111000,1.11111083984375,7.678105939921736,0.8937212559796869,0.4445149051139131
1761316079397094000,1.121093994140625,7.915133073320985,0.9226179723791778,0.7582547278482467
1761316079407077000,1.1310771484375,8.16581580710709,1.0558344565615057,0.992754753922671
1761316079417059800,1.141059814453125,8.413738428530097,1.2104006027646361,1.0260801734846086
1761316079427042000,1.1510419921875,8.664198459476232,1.2913320423059165,0.8778309553433209
1761316079437025000,1.16102490234375,8.849656149157882,1.2783340290449559,0.6651652330014854
1761316079447008300,1.17100830078125,8.975002192226052,1.2364257092505693,0.4456379543270915
1761316079456990000,1.180989990234375,9.11674407429993,1.2401799472175539,0.23773287051580844
1761316079466973200,1.19097314453125,9.167835379111766,1.3120482287287711,0.15322273223754018
1761316079476956200,1.2009560546875,8.95478942528069,1.4354919453069568,0.19251129798758773
1761316079486938000,1.210938232421875,8.432858139541745,1.5943708401426673,0.2683288285812363
1761316079496921000,1.220921142578125,7.82017456973195,1.7074749490141867,0.3894593728462234
1761316079506903600,1.230903564453125,7.2885191778361795,1.7820234095200895,0.5747505833871662
1761316079516885800,1.2408857421875,6.897213336873054,1.9003934760957955,0.8075714242029934
1761316079526868700,1.25086865234375,6.534715072721243,1.998976892183721,0.9186112209558487
1761316079536852000,1.26085205078125,6.104046358662844,1.9385510650545357,0.9220089005701243
1761316079546833700,1.270833740234375,5.410079759395122,1.7442828769296406,0.9843176919016986
1761316079556817000,1.28081689453125,4.26034507612586,1.4348510170549154,1.320690969389677
1761316079566800000,1.2907998046875,2.4901024130314586,0.9425076448500156,1.5866646496795116
1761316079576782600,1.300782470703125,0.1339350077152252,0.2917863130688667,1.5416479886062442
1761316079586764800,1.310764892578125,-3.1449890477985143,-0.6792664582639932,1.4699027489528058
1761316079596747800,1.320747802734375,-6.765752025794982,-1.906621849091351,1.1738672540068626
1761316079606730800,1.330730712890625,-9.222838888931275,-3.134846131707728,0.8675288301028311
1761316079616712700,1.340712646484375,-10.601521444040536,-4.199087766608596,0.8307396799530834
1761316079626696000,1.350696044921875,-11.668352218651771,-4.480920256417989,1.1195386477742344
1761316079636678700,1.3606787109375,-13.19075818504095,-4.033435432115197,1.2518456889614462
1761316079646660900,1.370660888671875,-15.47484761161804,-3.3321754609689114,1.4186664827123283
1761316079656643800,1.380643798828125,-18.66205024576783,-2.330320724137127,1.613218310084194
1761316079666626800,1.390626708984375,-21.48918038160801,-1.3954697315201163,1.3193638124391436
1761316079676608800,1.40060888671875,-22.831829500305652,-0.9751245508164167,0.7151439734615385
1761316079686591700,1.410591796875,-22.34170789580345,-1.0749512449637055,0.3836503577739
1761316079696574700,1.42057470703125,-19.716250671386717,-1.7155314142197369,0.4525748774508014
1761316079706556700,1.430556640625,-15.805205355143546,-2.661242823547125,0.5159464391756803
1761316079716540000,1.440539794921875,-11.644617122799158,-3.318648747658729,0.35897030922137196
1761316079726522600,1.450522705078125,-7.887119861757755,-3.7316520411670204,-0.2482895915718749
1761316079736505900,1.460505859375,-4.802043723130226,-3.93526468848139,-0.9812016787730157
1761316079746487800,1.47048779296875,-2.3416022888690233,-3.7333784265682097,-1.3326811207823455
1761316079756470800,1.480470703125,-0.4977765031695366,-3.1656071806743737,-1.3449031812347472
1761316079766453800,1.490453857421875,0.9518722700446843,-2.4582860097929835,-1.355250387725979
1761316079776436000,1.50043603515625,2.253816453388333,-1.7128317998722196,-1.4779843485996127
1761316079786418700,1.510418701171875,3.416202528437972,-0.9938710446015,-1.6023859504245221
1761316079796401700,1.520401611328125,4.404982679641247,-0.3540361407548189,-1.587214100255817
1761316079806383900,1.5303837890625,5.23119268027544,0.21885200976133345,-1.4720124345831571
1761316079816366600,1.54036669921875,5.894206507396698,0.7490700623303651,-1.3122690318726002
1761316079826349800,1.550349853515625,6.5252282824516294,1.140669333282113,-1.024883291850239
1761316079836331800,1.560331787109375,7.288958738297223,1.3429681215189397,-0.6390001335229725
1761316079846314800,1.570314697265625,8.229590652403235,1.2907333457604049,-0.4096670252250507
1761316079856297700,1.580297607421875,9.15277751071155,1.143773875168711,-0.2857833463270217
1761316079866280000,1.590280029296875,9.779131878477335,1.150673425424099,-0.06605194164896383
1761316079876262700,1.6002626953125,10.078597640132903,1.3126663606271147,0.27335578989777715
1761316079886245600,1.61024560546875,10.015631773132085,1.435457020124048,0.6474009551867842
1761316079896228900,1.620228759765625,9.507457210066914,1.512995163965225,0.9122685739308595
1761316079906210600,1.63021044921875,8.63497762568891,1.5276066037721932,0.9756721747618168
1761316079916193800,1.64019384765625,7.809949528315663,1.4971679186277091,0.8463798052206635
1761316079926176800,1.6501767578125,7.265200846090912,1.47172718790099,0.7123669099636375
1761316079936158700,1.66015869140625,7.104037055188417,1.4199305112987757,0.5231957161841914
1761316079946141700,1.6701416015625,7.369600547242164,1.3565360436223446,0.2659353393071331
1761316079956124700,1.680124755859375,7.863515698808431,1.3205920390598476,0.06407181894872337
1761316079966106600,1.690106689453125,8.377963350793719,1.3246936291597782,-0.10192600451409817
1761316079976089600,1.700089599609375,8.88251855431795,1.302108580125123,-0.29430518228830765
1761316079986072800,1.71007275390625,9.360826386907696,1.2545761368386448,-0.41034850468318906
1761316079996054500,1.720054443359375,9.73607658060491,1.2820640093535185,-0.3483051593547687
1761316080006037800,1.730037841796875,9.86194577076435,1.4575743055164814,-0.0957626961113885
1761316080016020700,1.740020751953125,9.659188571235537,1.7057424261331557,0.1996224816996604
1761316080026002700,1.750002685546875,9.189397807100415,1.8988012384682893,0.3735645056325942
1761316080035985700,1.759985595703125,8.54636878338754,1.9164099603950977,0.4247062985226512
1761316080045969000,1.769968994140625,7.686518963479995,1.8635089758127927,0.37148280398771166
1761316080055952000,1.779951904296875,6.5798541911304,1.9087895485192536,0.41417018186319615
1761316080065933800,1.789933837890625,5.041294377797842,1.8190639771476387,0.6450891711130737
1761316080075916800,1.799916748046875,2.7187743905395267,1.4809493358850478,0.9590238953649998
1761316080085899800,1.809899658203125,-0.3974713778555393,1.093490525738895,1.0712005871932953
1761316080095881700,1.8198818359375,-4.119284746575356,0.446536437536776,0.8230228950306773
1761316080105864700,1.82986474609375,-7.68956899870038,-0.7971952108129858,0.528041694910638
1761316080115848000,1.839847900390625,-10.51553710502386,-2.557105572724342,0.7648414127621799
1761316080125829600,1.84982958984375,-12.255144391357899,-3.776411512608826,0.7805923049278557
1761316080135812900,1.859812744140625,-13.282325877147912,-3.865295372459292,0.23404946929533033
1761316080145795800,1.8697958984375,-14.549780930912494,-3.668174425251782,-0.4353728366287425
1761316080155777800,1.87977783203125,-16.720045240867137,-3.4125007513105867,-0.8313107578393072
1761316080165760800,1.8897607421875,-19.497541284966466,-2.8012027906402945,-1.0976439921565353
1761316080175743700,1.89974365234375,-21.818640299510953,-2.2480437152057884,-1.423450794379413
1761316080185725700,1.9097255859375,-23.05167519727945,-2.03417095516175,-1.615197647333145
1761316080195708700,1.919708740234375,-23.000232594811916,-1.907061994074285,-1.4238053069055079
1761316080205692000,1.92969189453125,-21.168738467419146,-2.0428706867069004,-0.8590781048826873
1761316080215673600,1.939673583984375,-17.690708136099577,-2.5165900224626063,-0.10158385827923193
1761316080225656800,1.94965673828125,-13.60734459773302,-3.133113024304807,0.3376924703277647
1761316080235639800,1.959639892578125,-9.725378660979866,-3.616365619820356,0.22919676856715232
1761316080245622800,1.969622802734375,-6.597129735580086,-3.7325264859139917,-0.08611746387705206
1761316080255604700,1.979604736328125,-4.401375010538101,-3.486024837204814,-0.24467826920691876
1761316080265587700,1.989587646484375,-2.8916894095122814,-2.9522175279721616,-0.29149299267809836
1761316080275571000,1.999571044921875,-1.7001947288781403,-2.2873636259421706,-0.4341383994629606
1761316080285552600,2.009552734375,-0.5815525184869766,-1.6490471638344226,-0.7604369672581553
1761316080295535900,2.019535888671875,0.5863350765883922,-1.1249417489267886,-1.1546997583307326
1761316080305518800,2.029518798828125,1.8066694827377796,-0.6987216848403215,-1.452981132507324
1761316080315500800,2.039500732421875,3.0048271283924577,-0.1538628202393651,-1.5558255670405923
1761316080325483800,2.04948388671875,4.078837585374712,0.3770527130745351,-1.5215025878086685
1761316080335466800,2.059466796875,5.01205425478816,0.8002458305552601,-1.3883533236436545
1761316080345448700,2.06944873046875,5.935145836028457,1.1720765711978076,-1.1304589049130678
1761316080355431700,2.079431640625,6.913747123044729,1.4021261206693947,-0.8698372531756758
1761316080365415000,2.089414794921875,7.875699473077058,1.5079579004503785,-0.5959682895913719
1761316080375396600,2.099396728515625,8.757530823168159,1.5559174831077456,-0.33578320264033973
1761316080385379800,2.1093798828125,9.47001507590115,1.6119161414444445,-0.061976965561322865
1761316080395362800,2.11936279296875,10.064940870702266,1.7248478163585066,0.3493714003467932
1761316080405344800,2.1293447265625,10.436280612957477,1.9186048400908708,0.8085279212102293
1761316080415327700,2.13932763671875,10.633622217178344,2.1775205646932125,1.159004031395912
1761316080425311000,2.14931103515625,10.71841062440872,2.405111468966305,1.362216865737736
1761316080435292700,2.159292724609375,10.726856965714692,2.5134458792179823,1.4246633850395678
1761316080445276000,2.16927587890625,10.682559558826684,2.5158552784472703,1.3925535518124699
1761316080455259000,2.1792587890625,10.704421846544742,2.474482819095254,1.3443508080489932
1761316080465241600,2.18924169921875,10.75585977283716,2.325455748449266,1.0944371589392423
1761316080475223800,2.199223876953125,10.67824228014946,2.077275352872908,0.5680625204579904
1761316080485206800,2.209206787109375,10.516742389160394,1.8778581114217638,0.017782471058517692
1761316080495189800,2.219189697265625,10.440846897959709,1.8754335146233438,-0.28352636118046937
1761316080505172000,2.229171875,10.420182880115508,1.9408467747762799,-0.3141176065381616
1761316080515155200,2.2391552734375,10.38617890370488,1.9384590028569102,-0.16117840394973754
1761316080525138000,2.249137939453125,10.256053809666634,1.9020964806213974,0.023720117479190228
1761316080535120100,2.2591201171875,10.010816481804847,1.9667051463931797,0.2962883006632328
1761316080545103000,2.26910302734375,9.59442822203338,2.125235958443582,0.521920910475403
1761316080555085800,2.2790859375,8.94713978731036,2.211205392152071,0.5719716201931238
1761316080565068000,2.289068115234375,8.073743672609329,2.0113556045025587,0.6021937765100971
1761316080575051000,2.299051025390625,6.868250861760973,1.4844666963562367,0.6780258105531335
1761316080585034200,2.3090341796875,4.898268885654211,0.7455120775878429,0.9082639413993805
1761316080595016000,2.319015869140625,1.7615262726753949,-0.24697774178832768,1.1767049616508185
1761316080604999200,2.328999267578125,-2.0557745919436217,-1.2481035798236726,1.2551882773876188
1761316080614982100,2.338982177734375,-6.106130763721466,-2.1564695933580396,1.1500900725781917
1761316080624964000,2.348964111328125,-9.422543715152145,-3.529001516883075,1.180348286589235
1761316080634947000,2.358947021484375,-11.067685834372043,-4.866888535745441,1.4714201677784322
1761316080644930000,2.368929931640625,-11.475144353234768,-4.894038992999493,1.8334193963669239
1761316080654912000,2.378912109375,-12.323685428142547,-3.7134348319530486,1.8999556692004202
1761316080664895000,2.38889501953125,-15.942065310394764,-2.229077148929238,1.0022880136825143
1761316080674878200,2.398878173828125,-21.215834565114974,-0.9609870121315122,-0.8408633068215101
1761316080684861000,2.40886083984375,-26.01364167358875,-0.2328691369369626,-2.5341192494124174
1761316080694843100,2.418843017578125,-28.405673588490483,0.35025340734571214,-2.970640781152248
1761316080704826000,2.428826171875,-26.80582548598051,0.6349526847630739,-2.0514557058312
1761316080714808800,2.438808837890625,-22.22066977906227,-0.09527209958285093,-0.8805508087612688
1761316080724791000,2.448791015625,-16.869825467967985,-1.623668538558483,-0.22852935416698456
1761316080734774000,2.45877392578125,-12.051175477951764,-2.6213787229314445,-0.05891947768684476
1761316080744757000,2.468757080078125,-7.936903006580471,-2.93133314537555,-0.2838839789791032
1761316080754739000,2.478739013671875,-4.642016827303171,-2.9238603252768516,-0.6641644584611058
1761316080764722200,2.48872216796875,-2.028811181694269,-2.7368463460639116,-1.078913791919127
1761316080774705000,2.498704833984375,-0.011954641687870025,-2.293884552143514,-1.4973133184477685
1761316080784687000,2.50868701171875,1.3613327763795853,-1.7153534273043274,-1.863141019283235
1761316080794670000,2.518670166015625,2.2585107486844063,-1.1294780771821737,-2.087995192068815
1761316080804653000,2.528653076171875,3.042838002356887,-0.5806763201743363,-2.1547947920136155
1761316080814635000,2.538635009765625,3.8143507826417684,-0.12823562702983618,-2.045973036636412
1761316080824618000,2.548617919921875,4.532143078655004,0.2673731718242168,-1.8181091606408357
1761316080834601000,2.55860107421875,5.173268899095058,0.6192625098086894,-1.5143503779664635
1761316080844583000,2.5685830078125,5.630082108235359,0.8254588900059461,-1.1976694237463175
1761316080854566100,2.578566162109375,5.928624325305223,0.7854439827427268,-0.9309048122745007
1761316080864548900,2.588548828125,6.358727222174406,0.7027668685778975,-0.7275341570224613
1761316080874531000,2.598531005859375,6.948822528079152,0.7480889423385262,-0.5383931757181882
1761316080884514000,2.60851416015625,7.578203550189733,0.8065259337380528,-0.2631974935747683
1761316080894497000,2.6184970703125,8.155439959043264,0.877442467482388,0.12007869712449609
1761316080904479000,2.62847900390625,8.66532366411388,0.9667308164805173,0.4695483336813748
1761316080914462200,2.638462158203125,8.982786854752897,1.108196658091992,0.7725606819026172
1761316080924445000,2.64844482421875,9.241866245484351,1.2238805543236433,0.9973830713104456
1761316080934427100,2.65842724609375,9.555912321156264,1.2102132634989917,1.1403160628650337
1761316080944410000,2.66841015625,9.900987156820296,1.175852582605183,1.281705843565613
1761316080954392800,2.678392822265625,10.247553692346811,1.221439152520895,1.4780655971422791
1761316080964376000,2.6883759765625,10.531653542566298,1.2766110046446322,1.6780097850769757
1761316080974358000,2.69835791015625,10.746526127302646,1.2798935334466397,1.7512863259509204
1761316080984341000,2.708341064453125,10.779878946328163,1.2714534757509828,1.6586600647017358
1761316080994324000,2.718323974609375,10.553688848763704,1.281729078310728,1.379177645149827
1761316081004306200,2.72830615234375,10.08772436491847,1.2924948024749756,1.0150485649257899
1761316081014289000,2.738288818359375,9.40850700649321,1.2335106985867024,0.7427997498892247
1761316081024272000,2.74827197265625,8.612977390804886,1.1635519039586186,0.7004119029495864
1761316081034254000,2.758254150390625,7.825948476958274,1.182379938547313,0.7989997029516845
1761316081044236800,2.76823681640625,7.050196159407496,1.412118960765004,0.9071929511670023
1761316081054220000,2.778219970703125,6.173611477798223,1.737081274987757,1.0123816107388586
1761316081064202000,2.788201904296875,5.2533045588403935,1.9029574813649057,1.0145043750464915
1761316081074185200,2.798185302734375,4.1744320487797255,1.8112888131015001,1.0877330581907183
1761316081084168000,2.80816796875,2.5749013416558504,1.6024769897088407,1.3632109913416206
1761316081094150100,2.818150146484375,0.42793432065844533,1.2642276161506771,1.505839446991682
1761316081104133000,2.828133056640625,-2.0703817939668894,0.7152583936214446,1.4478439157493412
1761316081114115800,2.83811572265625,-4.6896623755753035,-0.35024610082209107,1.5609372109659014
1761316081124098000,2.84809814453125,-6.82929715398848,-1.8915695336490868,1.7697681774504481
1761316081134081000,2.8580810546875,-8.082009396651387,-3.519405713281035,1.9115394317492842
1761316081144064000,2.86806396484375,-8.907022296455501,-4.539158510375023,1.8886242739774286
1761316081154046000,2.8780458984375,-9.558630347943305,-4.398615190435946,1.6529004782617092
1761316081164029200,2.888029296875,-10.729147122478485,-3.570326922222972,1.6463921192809938
1761316081174012000,2.898011962890625,-14.107524654912948,-2.3424498456090688,1.6106677488185464
1761316081183994000,2.907994140625,-19.191967269563673,-1.0989292096614838,0.8209213927067815
1761316081193977000,2.91797705078125,-24.246351430559155,-0.4973515557557344,-0.9181983293060213
1761316081203960000,2.9279599609375,-27.369206387960908,-0.27699060273617504,-2.520525900606811
1761316081213942000,2.93794189453125,-26.160599829006195,0.04833090018779039,-2.4360224477976558
1761316081223925000,2.947925048828125,-21.435091064023972,-0.3316759865172207,-1.289575407896936
1761316081233908000,2.957907958984375,-15.946851375627517,-1.3305511230163276,-0.5255724917855114
1761316081243891000,2.967890869140625,-11.200395684206486,-2.0777631363898514,-0.5888431869518012
1761316081253873200,2.977873046875,-7.623053330263495,-2.3000353298582135,-1.3153567687548697
1761316081263855900,2.98785595703125,-5.023521405220031,-2.078038153938949,-2.250067622248828
1761316081273839000,2.997839111328125,-2.9819436809331177,-1.7035818870984016,-2.992399900756776
1761316081283821000,3.007821044921875,-1.1991636078268288,-1.377062844952941,-3.2659862480074167
1761316081293804000,3.017803955078125,0.3644137423843145,-1.193330517759174,-3.0858637818738814
1761316081303787000,3.027787109375,1.7864327503949402,-0.9472792431659995,-2.5939184690758585
1761316081313769200,3.037769287109375,3.023370500820875,-0.5930363277927041,-1.9024815344162285
1761316081323752000,3.047751953125,3.973459979102015,-0.320469021391496,-1.0580249523431062
1761316081333735000,3.05773486328125,4.598361809971928,-0.17640147284902633,-0.31029351820535955
1761316081343717000,3.067717041015625,4.893450671717524,0.028269451346620917,0.10291428489908576
1761316081353699800,3.077699951171875,5.083780351349711,0.2089378609251231,0.15699213124103845
1761316081363683000,3.08768310546875,5.293133295881748,0.23148089744895695,0.0021295593746006487
1761316081373665000,3.0976650390625,5.481466248738766,0.18054887485206125,-0.07950688663087785
1761316081383648000,3.10764794921875,5.7950283402860165,0.11077259718403219,-0.09292173706442117
1761316081393631000,3.117630859375,6.35088527650237,0.017374255583807827,-0.11903605620376766
1761316081403613200,3.12761328125,7.0649044837176795,-0.024325901352614164,-0.09827449626922607
1761316081413596000,3.137595947265625,7.833080228534341,-0.09119403648898004,0.0257991887755692
1761316081423579000,3.147578857421875,8.498318161445855,-0.22932751880735158,0.29400238168314097
1761316081433561000,3.15756103515625,9.07655644081831,-0.37833661540523167,0.5968108778953551
1761316081443543800,3.167543701171875,9.543992166259883,-0.44339112524837254,0.8724431978903711
1761316081453527000,3.177527099609375,9.82095208159685,-0.37650603897720575,1.0545257120504974
1761316081463509000,3.187509033203125,9.974318935012818,-0.2785853245817125,1.1134221376553177
1761316081473492000,3.197491943359375,9.913822088474035,-0.14069573402181268,1.1106291459359228
1761316081483475000,3.207474853515625,9.669148824235796,0.0029134032286703584,1.0149742575805634
1761316081493457200,3.21745703125,9.279307210606335,0.09748436880484222,0.8040085440896451
1761316081503439400,3.227439453125,8.82699715810418,0.19920549839660523,0.544715583672747
1761316081513422600,3.237422607421875,8.440258771187066,0.28908479902520773,0.3599252718586474
1761316081523404500,3.247404541015625,8.234156352883577,0.3486642384581268,0.2261811836056411
1761316081533387500,3.257387451171875,8.180814054274558,0.4233873248785734,0.149752096984908
1761316081543370500,3.26737060546875,8.043110633936523,0.5654163533307611,0.2665758109014481
1761316081553352700,3.277352783203125,7.724810407951474,0.7651223485954105,0.5423375294297933
1761316081563335400,3.28733544921875,7.366058344590663,0.9227246476240456,0.7607511477738619
1761316081573318400,3.297318359375,6.807934632486105,1.1047782279506324,0.7922893916580825
1761316081583300600,3.307300537109375,5.83698473700583,1.3045872451983391,0.7723761921811848
1761316081593283300,3.317283447265625,4.317290367662906,1.457781080134958,0.850935641894117
1761316081603266600,3.3272666015625,2.2059020250469445,1.5866620193310081,0.8567343182355165
1761316081613249500,3.33724951171875,-1.0728174478054047,1.6940654323428868,0.6977833080116659
1761316081623231500,3.3472314453125,-5.098682152405381,1.5753968212120235,0.2487663057055324
1761316081633214500,3.35721435546875,-8.366345393714308,1.1715456791915,-0.1725506426397711
1761316081643197400,3.367197509765625,-10.062911410701274,0.24080387545898554,0.16069102229159324
1761316081653179400,3.377179443359375,-10.692855327391625,-1.1707038215398788,1.6623730938754975
1761316081663162400,3.387162353515625,-10.901798522078991,-2.7732798877090215,3.1882021665811537
1761316081673145600,3.3971455078125,-11.810543013536929,-3.796680101394653,3.480181664134562
1761316081683127300,3.407127197265625,-14.091310017693042,-3.2450141871273517,2.455153556986153
1761316081693110500,3.417110595703125,-17.713500982666016,-1.500999898006022,1.2083066992253064
1761316081703093500,3.427093505859375,-21.430943296694753,-0.4789150047026574,0.3604512684941292
1761316081713075500,3.437075439453125,-23.926257891416547,-0.6116494044564664,-0.1556270169002935
1761316081723058400,3.447058349609375,-24.627585959362982,-0.8147358359396457,-0.5785351434271783
1761316081733041400,3.45704150390625,-22.853573714601993,-0.7135910449311137,-0.7409669084388762
1761316081743023400,3.4670234375,-18.93921532828808,-1.2144747203357518,-0.513277037303336
1761316081753006300,3.47700634765625,-14.506196640729904,-2.2533326153941453,-0.21781872119084
1761316081762989600,3.486989501953125,-10.520762730717658,-2.912259027071297,-0.33253541635815054
1761316081772971500,3.496971435546875,-7.427914204522967,-3.106218295377493,-0.8889985383067279
1761316081782954500,3.50695458984375,-5.205844304007291,-2.977161707353592,-1.5403937507614494
1761316081792937500,3.5169375,-3.4771722531855103,-2.5893770262539384,-1.9326742819756269
1761316081802919700,3.526919677734375,-2.096567205581069,-2.1264251682281494,-2.0013903830662367
1761316081812902400,3.53690234375,-0.9079033644586801,-1.6421365076631307,-2.0310770807996392
1761316081822885600,3.5468857421875,0.19339958859682083,-0.957981838966161,-2.062161954893172
1761316081832867600,3.55686767578125,1.1243231786370276,-0.29561244722828267,-1.9985484376385807
1761316081842850600,3.5668505859375,1.9639777672559022,0.15458017472848296,-1.8973903487570583
1761316081852833500,3.57683349609375,2.884388146588206,0.5002382171079516,-1.736014522539079
1761316081862815700,3.586815673828125,4.05416783902049,0.7490303148418664,-1.477025148178637
1761316081872798500,3.596798583984375,5.373554155552387,0.9521953645192086,-1.172984699018672
1761316081882781400,3.606781494140625,6.598146803668141,1.1823388758845628,-0.6951517904642969
1761316081892763600,3.616763671875,7.682453029215336,1.4067550956442951,-0.0649037397282198
1761316081902746400,3.626746337890625,8.510408412212133,1.581150124041736,0.5813777099093422
1761316081912729600,3.6367294921875,9.096177671611308,1.7300750494875012,1.1918719895139336
1761316081922711600,3.646711669921875,9.317675811967254,2.009358877727389,1.6667144840806722
1761316081932694500,3.656694580078125,9.475289801433682,2.3295032702744005,1.9741237520866095
1761316081942677500,3.666677490234375,9.746454766756296,2.4360468515865503,2.1776142343260347
1761316081952659700,3.67665966796875,10.13485202679634,2.364616961492598,2.3282766510888933
1761316081962642400,3.686642333984375,10.516088893687725,2.4092247495040295,2.459187634807825
1761316081972625400,3.69662548828125,10.864673198777437,2.6181080306977034,2.452326516866684
1761316081982607600,3.706607666015625,11.207387735050917,2.819213371366262,2.2220868516504764
1761316081992590300,3.71659033203125,11.460393358826636,2.934129790356755,1.972748079819232
1761316082002573600,3.726573486328125,11.658531081861257,3.0141245335698126,1.8528651244625447
1761316082012555500,3.736555419921875,11.74793370488882,3.1067610239520667,1.841943332953751
1761316082022538500,3.74653857421875,11.511136873114108,3.310187501044571,1.9304855397596954
1761316082032521500,3.756521484375,11.463774233436585,3.0966613624811172,2.108415172024071
1761316082042504400,3.76650439453125,11.53824933644533,3.0216292101114988,2.170724182551354
1761316082052486400,3.776486328125,11.398104368174076,3.3038702807217835,2.3391402826696632
1761316082062469400,3.786469482421875,11.056542509067057,3.6303932683899998,2.5621225241035224
1761316082072452600,3.79645263671875,10.452345612573623,3.684719609600305,2.704810162594914
1761316082082434300,3.806434326171875,9.570487374475597,3.4804762631669637,2.577473822492361
1761316082092417500,3.81641748046875,8.55442641763687,3.161356829753518,2.245365289776772
1761316082102400500,3.826400390625,7.564841379791498,3.0594588822901247,1.9528223131217062
1761316082112382500,3.836382568359375,6.641925739639997,3.158550247900188,1.7601127526156604
1761316082122365400,3.846365478515625,5.706222514107823,3.17049173784554,1.740464487685263
1761316082132348400,3.856348388671875,5.333645339012146,2.824163394989073,1.7239045441590248
1761316082142330400,3.866330322265625,4.85451625316739,2.1419678975358605,1.5402379756778477
1761316082152313300,3.876313232421875,3.649019935187697,1.3876628571614622,1.3435598038017749
1761316082162296600,3.886296630859375,1.56015205193758,0.3217772544458508,1.4462811964772642
1761316082172278500,3.896278564453125,-0.6766016229689121,-1.3354124454423784,1.69767777762115
1761316082182261500,3.906261474609375,-2.806934320029616,-3.6401308185502885,2.013058170636743
1761316082192244500,3.916244384765625,-4.571759049728512,-6.116669693392515,2.087680573161691
1761316082202226400,3.926226318359375,-6.766938020709157,-7.183886252450942,1.3522380541674792
1761316082212209400,3.93620947265625,-10.90105033406019,-5.579523302865028,-0.5922875552520156
1761316082222192600,3.946192626953125,-16.78845066857338,-2.7224869813218713,-2.9099934202268716
1761316082232174300,3.95617431640625,-23.427838414168356,-0.6732588884122669,-4.993531340625882
1761316082242157600,3.966157470703125,-29.006657952678204,0.1554844300918281,-6.016727556172013
1761316082252140500,3.976140625,-31.225318337011334,0.4332550772897899,-5.035981073820591
1761316082262122800,3.986122802734375,-29.395771836555003,0.34520182304456826,-2.584199331355095
1761316082272105500,3.99610546875,-24.876564227318763,-0.2678745454750955,-0.3865989053811878
1761316082282088400,4.00608837890625,-19.991399153387544,-1.049014401283115,0.4624337524358183
1761316082292070700,4.016070556640625,-16.105637916004657,-1.5916073667787014,0.2818989061091095
1761316082302053400,4.026053466796875,-13.080211067175865,-1.9136296820268033,-0.25209384269304574
1761316082312036600,4.03603662109375,-10.573348658001422,-2.093834273485839,-0.9174128049515187
1761316082322018600,4.0460185546875,-8.645863176840543,-2.1188547329738734,-1.5257935630008577
1761316082332001500,4.05600146484375,-7.254524553775787,-2.020892663654685,-1.8555226532340048
1761316082341984500,4.065984619140625,-5.964228138127923,-1.9134357668898998,-2.0379747313588856
1761316082351966700,4.075966796875,-4.3901095201581715,-1.7067001652494072,-2.183710505374521
1761316082361949400,4.085949462890625,-2.834101728418469,-1.4747427363298833,-2.4806954099997878
1761316082371932400,4.095932373046875,-1.5858751067370176,-1.2752312407240272,-2.606108965346217
1761316082381914600,4.10591455078125,-0.4367752142399549,-1.2832051422126591,-2.383471153435856
1761316082391897300,4.1158974609375,0.6786404353201388,-1.5191965028233825,-1.8729025348410009
1761316082401880600,4.125880615234375,1.5616601184129715,-1.684625257693976,-1.1735404332052917
1761316082411862500,4.135862548828125,2.2993851953864097,-1.6643080074608325,-0.44662974184341725
1761316082421845500,4.145845458984375,3.002527034756541,-1.6604887414336205,0.017220307131111622
1761316082431828500,4.155828369140625,3.7687949001252647,-1.7301815786018966,0.16400500567778944
1761316082441810700,4.165810791015625,4.545332815095782,-1.7001467980831861,0.23462365245409308
1761316082451793400,4.17579345703125,5.213088868308067,-1.4391384851157665,0.29580585090853273
1761316082461776400,4.1857763671875,5.734641968384385,-1.085777613274008,0.43849969994500276
1761316082471758600,4.195758544921875,6.218315711921453,-0.7560986457929014,0.6452578787434846
1761316082481741300,4.2057412109375,6.806047211304307,-0.48934375199750063,0.8160792133726179
1761316082491724500,4.215724609375,7.459191386318206,-0.20191198087632656,0.9095248281806707
1761316082501706500,4.22570654296875,8.087043299165368,0.18109686412364243,0.8813798069313168
1761316082511690200,4.235690185546875,8.737456003388761,0.5602303289949894,0.7466761529311537
1761316082521673200,4.245673095703125,9.41630569754541,0.8580201202623545,0.5126623760037123
1761316082531655200,4.2556552734375,10.078936662828921,1.149675646558404,0.31972171015553175
1761316082541638100,4.26563818359375,10.63146416236162,1.3897804338373243,0.13719028318412602
1761316082551621000,4.27562109375,10.912759476554394,1.7465999217003583,0.1275181994754821
1761316082561603000,4.28560302734375,11.22224511244297,2.22135269215703,0.12675306032188235
1761316082571586000,4.2955859375,11.597550251197815,2.5910703861683606,0.021539704700186846
1761316082581569300,4.3055693359375,11.669350582039355,2.8818323246255515,-0.0752920454148203
1761316082591551000,4.315551025390625,11.496607997024059,3.037712329906225,-0.24150917418412862
1761316082601534200,4.3255341796875,11.247753647708892,3.2456264738067984,-0.4453357565101236
1761316082611517200,4.33551708984375,11.12140105794668,3.5981270755574104,-0.2876000403601676
1761316082621499100,4.3454990234375,10.820005205011368,3.8939971508085724,0.013481339798495173
1761316082631482000,4.355482177734375,10.297344435954093,4.041871836549044,0.3495463550549
1761316082641465000,4.365465087890625,9.701419693243503,4.169307545372844,0.5942119474433362
1761316082651447000,4.375447021484375,8.971748158866166,4.316497755980492,0.7503466581374406
1761316082661430000,4.385429931640625,7.880459234824777,4.259125178942084,1.0392433872446418
1761316082671413200,4.395413330078125,6.16278145622611,3.6648967187553643,1.3399462894797325
1761316082681395000,4.40539501953125,3.1654718638569115,2.498567166776955,1.7216531119704246
1761316082691378200,4.415378173828125,0.9879390242040157,1.0640776765108109,1.0196838965762407
1761316082701361200,4.425361083984375,-1.6115800413578747,-0.5967001109972596,0.02213401733152568
1761316082711343000,4.435343017578125,-4.607082876566052,-2.6030717896074056,-0.22497085796780883
1761316082721326000,4.445326171875,-6.466043103033304,-4.0309553057372565,0.3223649912059307
1761316082731309000,4.45530908203125,-6.64488517396748,-4.431573749446868,1.0637553857538848
1761316082741291000,4.465291015625,-5.48541235601604,-4.137596648335457,0.974440514075011
1761316082751274000,4.47527392578125,-4.786428220847249,-3.761116620582342,0.6695918903373181
1761316082761257200,4.48525732421875,-7.350172208672761,-3.560610122589767,0.5390109422903507
1761316082771240200,4.495240234375,-13.64891345643997,-3.1425451617777345,-0.41465398332476616
1761316082781222100,4.50522216796875,-20.418862349402904,-2.011986595882475,-2.285264607836306
1761316082791205000,4.515205078125,-24.92406949033737,-0.968708254033327,-3.6751392958283424
1761316082801188400,4.525188232421875,-25.658406678438187,-0.9735317286670208,-3.614375907307863
1761316082811170000,4.535170166015625,-22.559325395333765,-1.8030773034647105,-2.402985562853515
1761316082821153300,4.5451533203125,-17.49326950124502,-2.5113240647584196,-1.1216968487214296
1761316082831136300,4.55513623046875,-12.544265284609795,-2.6271453236341475,-0.5517266314785927
1761316082841118200,4.5651181640625,-8.60256179525256,-2.5581308241188525,-0.6841091490548104
1761316082851101200,4.57510107421875,-6.118844114822149,-2.573700149172544,-1.284004329766333
1761316082861084200,4.585084228515625,-4.513081235310435,-2.508774964797497,-1.8216710909061133
1761316082871066000,4.595066162109375,-3.19343129940629,-2.2981045079261064,-2.2168615182176232
1761316082881049000,4.605049072265625,-2.0735674382656812,-1.9256557815156876,-2.3398802873820066
1761316082891032300,4.6150322265625,-1.3741174391508102,-1.3489786139801143,-2.085134249679744
1761316082901014000,4.625013916015625,-0.949972573903203,-0.9667141576066612,-1.8347392467938362
1761316082910997200,4.634997314453125,-0.6476847405642271,-0.9373486546516417,-1.6055544974580407
1761316082920980200,4.644980224609375,-0.26607319514155386,-0.9357999639049172,-1.234513592018932
1761316082930962200,4.654962158203125,0.31937399269640443,-0.933269568644464,-0.9055275752380489
1761316082940945200,4.664945068359375,1.0884709440112112,-1.0271768096148968,-0.793219731310755
1761316082950928100,4.67492822265625,1.9261030868917703,-1.0719948793761431,-0.8195160559535026
1761316082960910000,4.68491015625,2.7924317474246023,-1.024800874263793,-0.8523480659753083
1761316082970893000,4.69489306640625,3.730727912059426,-0.9666197573214769,-0.7229380614038556
1761316082980876300,4.704876220703125,4.654759989020228,-0.8003671919126063,-0.4236664340808987
1761316082990858000,4.71485791015625,5.487469288545847,-0.6754300949715077,-0.03851487796381116
1761316083000841200,4.72484130859375,6.222486860126256,-0.5243762677382677,0.3746425831928849
1761316083010824200,4.73482421875,6.897144363290071,-0.32282975917346773,0.8268186340518295
1761316083020806100,4.74480615234375,7.553923679935932,-0.15118563691936432,1.2737696437388657
1761316083030789000,4.7547890625,8.07028856371939,0.03953508785702288,1.6678456800676882
1761316083040772000,4.764772216796875,8.40724088320434,0.292633431417495,1.945968793965131
1761316083050754000,4.774754150390625,8.57776170051694,0.5967576864033937,2.1238984262295064
1761316083060737000,4.784737060546875,8.717252004271746,0.8898578585498035,2.1721005854710937
1761316083070720300,4.79472021484375,8.8335648460567,1.1492182581797241,2.0121919091962277
1761316083080702000,4.804701904296875,9.029781245639919,1.378684162544459,1.6432257642045616
1761316083090685200,4.814685302734375,9.375774949714542,1.506035992477089,1.185171834288165
1761316083100668200,4.824668212890625,9.821578689062594,1.4625865807205438,0.6673867815084755
1761316083110650000,4.834650146484375,10.239385583460331,1.394673612706363,0.38739590097777543
1761316083120633000,4.844633056640625,10.44056282032132,1.4800214073851703,0.3442979330074042
1761316083130616000,4.854615966796875,10.450081174772977,1.6506643897727131,0.3673623630568385
1761316083140598000,4.864597900390625,10.2812934648633,1.8413453670606017,0.4259196929004043
1761316083150581200,4.874581298828125,10.029112016952038,2.0634248144358396,0.5702059256948531
1761316083160564200,4.884564208984375,9.50459363732934,2.3632684694930908,0.8359327916167676
1761316083170546200,4.894546142578125,8.769847283905744,2.59697434951514,1.1146519717112182
1761316083180529200,4.904529052734375,7.834557899871468,2.6795091325998306,1.5103163001447915
1761316083190512000,4.91451220703125,6.579813274598121,2.6308926934689283,1.9572867451846598
1761316083200494000,4.924494140625,4.400988641569018,2.2806924776151773,2.511414373390376
1761316083210477000,4.93447705078125,2.2659423599898814,1.5551479600399731,2.5188334174752236
1761316083220460300,4.944460205078125,-0.16970424023270606,0.4416878284618258,2.577354580026865
1761316083230442000,4.95444189453125,-2.14608088581264,-1.2468939117729663,3.1045036004140973
1761316083240425200,4.96442529296875,-3.346600584423542,-3.0649966426730155,3.841992238283157
1761316083250408200,4.974408203125,-3.9521594169199465,-4.0398271789789195,4.4772512125164265
1761316083260390100,4.98439013671875,-3.956356868609786,-4.044001542054117,4.136901944069564
1761316083270373000,4.994373046875,-5.043583365517854,-4.239189767633378,3.0296961967110634
1761316083280356000,5.004356201171875,-8.99466141694188,-4.16795203911066,2.0604656723693013
1761316083290338000,5.014338134765625,-15.85766268761158,-2.567019940756261,0.4799138064816594
1761316083300321000,5.024321044921875,-24.235645327627658,-0.514508442261815,-2.2203835548639295
1761316083310304300,5.03430419921875,-31.517955713951586,0.5364379499971866,-4.533669849830866
1761316083320286000,5.044285888671875,-34.22763085223436,0.6085799338832497,-4.668598544758558
1761316083330269200,5.054269287109375,-30.87692926223278,-0.008852584019303321,-3.5441128690361974
1761316083340252200,5.064252197265625,-23.662089068591595,-1.034263991396874,-3.005884528490901
1761316083350234000,5.074234130859375,-16.90070575940013,-2.0060715266197917,-3.5760634200483556
1761316083360217000,5.084217041015625,-11.882878766429423,-2.6341861820563675,-4.5870849214151495
1761316083370200000,5.094199951171875,-8.433372518804669,-2.815424500477314,-5.36108864173293
1761316083380182000,5.10418212890625,-6.005436931350827,-2.5995509220048785,-5.441971858218312
1761316083390165000,5.1141650390625,-4.11073319132924,-2.1389014957025645,-4.786819850513338
1761316083400148200,5.124148193359375,-2.5346973415613174,-1.6097661238037049,-3.6436636688515542
1761316083410130000,5.1341298828125,-1.1564543469130992,-1.1504986533790826,-2.3945076573655006
1761316083420113200,5.144113037109375,0.0789145467609167,-0.9120666216179728,-1.5063276689000427
1761316083430096100,5.15409619140625,1.1622627409309148,-0.8741314432382583,-1.0891143564812837
1761316083440078000,5.164078125,2.160596902421117,-0.842319570044428,-1.0390914115533232
1761316083450061000,5.17406103515625,3.2712831853717566,-0.738901938733086,-1.2177796071000397
1761316083460044000,5.1840439453125,4.456629864770174,-0.6208280786249786,-1.3704412348560988
1761316083470026200,5.194026123046875,5.527522481992841,-0.5173323405761271,-1.4521426358565688
1761316083480009000,5.204009033203125,6.465347521984577,-0.3857870775416493,-1.4799376746244728
1761316083489992200,5.2139921875,7.303547235620021,-0.19991043179556725,-1.3567651762031019
1761316083499974100,5.22397412109375,8.035282132267952,-0.048351139258220786,-1.1070001417838036
1761316083509956600,5.23395654296875,8.612686883425711,0.07429185539633035,-0.6953196943771094
1761316083519939300,5.243939208984375,9.01670666001141,0.11552483321242034,-0.1844585225764662
1761316083529921500,5.253921630859375,9.284233561092615,0.044062282957881685,0.27677411044128236
1761316083539904500,5.263904541015625,9.483317625066638,-0.02022621094882488,0.6382719653788954
1761316083549887500,5.273887451171875,9.661978494215012,0.024671646050363778,0.8632401929982007
1761316083559869400,5.283869384765625,9.841985517275333,0.20189926752522586,1.0152440874978899
1761316083569852700,5.293852783203125,9.899518837833403,0.3962164093583822,1.0468398337230085
1761316083579835400,5.30383544921875,9.835385096096992,0.5528093852140009,0.9738383103981614
1761316083589817600,5.313817626953125,9.791629541000724,0.6395218923747539,0.8318643000688404
1761316083599800600,5.323800537109375,9.791593300643562,0.725020055309683,0.5988097235623747
1761316083609783300,5.333783203125,9.761267720484733,0.777197401792556,0.42337512298412616
1761316083619765500,5.343765625,9.702129302817582,0.772503106496483,0.4292901922468096
1761316083629748500,5.35374853515625,9.610689036482572,0.8386364976175129,0.6605071780625731
1761316083639731500,5.3637314453125,9.431094101354478,1.0265379271894692,0.9874233297668397
1761316083649713400,5.37371337890625,9.254731572276354,1.228686054909229,1.2055040628947318
1761316083659696600,5.383696533203125,9.14565511148572,1.4384414427623151,1.3023425350114703
1761316083669679400,5.393679443359375,9.104279145002364,1.6432343859024345,1.358085318890959
1761316083679661600,5.40366162109375,9.028328708744048,1.8140913033016024,1.2878152663566171
1761316083689644500,5.41364453125,8.721334889671207,1.8052629769407211,1.1071434957772492
1761316083699627500,5.42362744140625,8.275349948537349,1.6455072992704807,0.9332341320049017
1761316083709609500,5.433609375,7.6814003052920095,1.4700437648586928,0.6777373490005731
1761316083719592400,5.443592529296875,6.688591629225015,1.231980128018558,0.41184754760190845
1761316083729575400,5.453575439453125,5.088925897544622,1.0699740410730243,0.3470544286413118
1761316083739557600,5.4635576171875,2.690063844361901,0.701245942620933,0.5871403285566718
1761316083749540600,5.47354052734375,-0.32840894754529,0.07328720839843153,1.217393676522374
1761316083759523600,5.483523681640625,-3.153379859524965,-0.8502993167519569,1.8954972284868359
1761316083769505500,5.493505615234375,-5.296174563273787,-2.2790645841524,2.2907073834121228
1761316083779488500,5.503488525390625,-7.072272382137179,-4.124771361292899,2.2386396347835658
1761316083789471700,5.5134716796875,-8.571541218566894,-5.22216590873301,1.8590861909344791
1761316083799453400,5.523453369140625,-9.830848037189245,-4.900067751769721,1.4815321042090654
1761316083809436700,5.533436767578125,-11.430206310355663,-4.028204545724392,1.1203344012618064
1761316083819419600,5.543419677734375,-15.03265680207014,-3.0808634893685576,0.5966469195052981
1761316083829401600,5.553401611328125,-20.818282523238658,-1.6965017195791006,-0.02303498475924134
1761316083839384600,5.563384521484375,-27.068921126616,-0.2944825664155185,-0.7321833710677922
1761316083849367600,5.573367431640625,-31.159910337555406,0.9927743354059755,-1.50559131744951
1761316083859349500,5.583349609375,-30.53538610782623,1.660283428119868,-1.8025018416643142
1761316083869332500,5.59333251953125,-25.94146958682537,1.064000811882317,-1.7270614007547496
1761316083879315700,5.603315673828125,-19.61115480466485,-0.4404400203578174,-1.4024778567165135
1761316083889297400,5.61329736328125,-13.772317717790603,-1.8833362505719065,-1.1160741134688257
1761316083899280600,5.62328076171875,-9.109157564693689,-2.719453020453453,-0.9242504689518362
1761316083909263600,5.633263671875,-5.794910851386189,-2.91146027790904,-0.802277044121921
1761316083919245600,5.64324560546875,-3.516857197842002,-2.667253462138772,-0.805242615929246
1761316083929228500,5.653228515625,-1.7717004606872795,-2.3308520545348523,-1.0459471957322208
1761316083939211500,5.66321142578125,-0.2449228550851345,-1.9916713914759456,-1.4623546716608107
1761316083949193500,5.673193359375,1.2168255212455987,-1.5850195128209887,-1.862903265004605
1761316083959176400,5.683176513671875,2.657052970641851,-1.2176464822396635,-1.9856464320980012
1761316083969159700,5.69315966796875,3.8833150132745504,-0.8408530046232044,-1.6873972066253422
1761316083979141400,5.703141357421875,4.746914541104435,-0.2833440634161234,-1.0441920956932007
1761316083989124600,5.71312451171875,5.408550065609813,0.3408767994523048,-0.3950468541223556
1761316083999106300,5.723106201171875,5.915366784325242,0.7734351266495884,0.13907606039810924
1761316084009089500,5.733089599609375,6.265291398108005,0.9005437954761087,0.5276316528050229
1761316084019072500,5.743072509765625,6.527608455586433,0.806338156080991,0.7801978987827897
1761316084029054500,5.753054443359375,6.746506058055162,0.6503567362524568,0.8555340025350451
1761316084039037400,5.763037353515625,6.887856894984841,0.55014396539703,0.6975494992557912
1761316084049020400,5.7730205078125,6.874707490554451,0.5219178417354822,0.5233599303025752
1761316084059002400,5.78300244140625,6.8543474240928886,0.5172527725338936,0.48125287306569514
1761316084068985300,5.7929853515625,6.849571880254149,0.45080666220188137,0.49505179091338064
1761316084078968600,5.802968505859375,6.96734602676332,0.3953651993565261,0.639497342455387
1761316084088950300,5.8129501953125,7.196649872434139,0.4881412443399429,0.9222608295045792
1761316084098933500,5.82293359375,7.450406606838107,0.7188580255486071,1.1110938408382236
1761316084108916500,5.83291650390625,7.807544220739603,0.8182670788057148,1.1251008850112556
1761316084118898700,5.842898681640625,8.224996894872188,0.6903117300219833,1.0202364889577031
1761316084128881400,5.85288134765625,8.718493528765439,0.5183779771715402,0.8066782016903161
1761316084138864600,5.86286474609375,9.218038210651278,0.4534656522780657,0.5342526783799753
1761316084148846600,5.8728466796875,9.56151262538135,0.42586467477753753,0.2961039205396548
1761316084158829600,5.88282958984375,9.726966806954145,0.47739817039892074,0.23467359254304318
1761316084168812500,5.8928125,9.64970704166293,0.6150881467334925,0.4128752832144499
1761316084178794500,5.90279443359375,9.221095260134339,0.8647862533964216,0.7377733730945736
1761316084188777500,5.912777587890625,8.571873811522126,1.1194625868633388,0.9999766680002212
1761316084198760400,5.922760498046875,7.834615767538547,1.3018144194841383,1.074845008110255
1761316084208742700,5.93274267578125,7.009937798777222,1.4039052591711283,0.9273582257088273
1761316084218725400,5.942725341796875,6.084276074787974,1.4618386849626899,0.6590391513366252
1761316084228708600,5.95270849609375,4.983822432038187,1.4680352015152573,0.5232173800267279
1761316084238690600,5.962690673828125,3.825923731535673,1.3769349807895719,0.4971604170978069
1761316084248673500,5.972673583984375,2.8236288497209547,1.0974264038830994,0.5326871460963041
1761316084258656500,5.982656494140625,1.806763590762019,0.18525836771726606,0.7345308109767734
1761316084268638700,5.992638671875,0.3375181366741657,-1.1536018800914287,1.3071088726304472
1761316084278621400,6.002621337890625,-1.9752087708443402,-2.2456749402478335,2.11098633768633
1761316084288604400,6.0126044921875,-5.03516215865314,-2.9595933174371716,2.5760578182145952
1761316084298586600,6.022586669921875,-8.271903022953868,-3.2488071496695277,2.1760892167158423
1761316084308569300,6.0325693359375,-12.268002703887223,-2.9158292867735027,1.0719006982866675
1761316084318552600,6.042552490234375,-16.60189232417345,-1.8575638036727904,0.1653345737811178
1761316084328534500,6.052534423828125,-20.124522844719884,-0.235649123044312,0.14496301781116053
1761316084338517500,6.062517578125,-22.151782705318926,1.3339496794134378,0.6575812806785106
1761316084348500500,6.07250048828125,-22.389685452508925,2.0649933789268133,0.8776810254786163
1761316084358482700,6.082482666015625,-20.81185979671478,1.5111100808709859,0.21980616868101058
1761316084368465400,6.09246533203125,-18.023910163140297,0.13058482050448655,-1.2047940149292349
1761316084378448400,6.102448486328125,-14.792018492436409,-1.1358289075136183,-2.4015740886203942
1761316084388430600,6.1124306640625,-11.618200240516662,-2.1112737763255836,-2.8695290156304836
1761316084398413300,6.122413330078125,-8.811457643666863,-3.0237609614431857,-2.458291562750935
1761316084408396500,6.132396484375,-6.621949119538068,-3.610985095825791,-1.4208094860903917
1761316084418378500,6.14237841796875,-5.143171866995096,-3.8077331180676817,-0.6382008729040622
1761316084428361500,6.152361572265625,-4.033451214206218,-3.5332153351858255,-0.2734164705764502
1761316084438344400,6.162344482421875,-3.1201720019280907,-3.0190424084886907,-0.016313503617653623
1761316084448326700,6.17232666015625,-2.4178742121666668,-2.444534255555272,0.2813481403585523
1761316084458309400,6.182309326171875,-1.906121790614724,-1.7397972559481858,0.7454813171233982
1761316084468292400,6.192292236328125,-1.4883312628298997,-1.0840417293921112,0.9612699207261204
1761316084478274600,6.202274658203125,-1.0317536160111427,-0.4736936167925596,0.726410486754775
1761316084488257500,6.212257568359375,-0.47505847540497775,0.08147913655191659,0.08384582915063947
1761316084498240500,6.222240478515625,-0.014535890352725981,0.4350549663186073,-0.7758122310444712
1761316084508222700,6.23222265625,0.5008931738853454,0.6269675312280655,-1.6722507831588387
1761316084518206000,6.2422060546875,1.3498843306481838,0.7646054851144551,-2.203155064426362
1761316084528188700,6.252188720703125,2.5761580637186765,0.842570476065576,-2.3117037019506097
1761316084538171000,6.2621708984375,4.1088416784942146,0.9805652805656194,-2.07372847404629
1761316084548153900,6.27215380859375,5.727726489907503,1.2601488224044441,-1.6375880505785345
1761316084558136600,6.282136474609375,7.295853758507967,1.5478487429425118,-1.1753892759423703
1761316084568118800,6.292118896484375,8.47257523290217,1.6956366271823644,-0.6471261568333954
1761316084578101800,6.302101806640625,9.06174699422121,1.7749045174255966,-0.0787375827588141
1761316084588084700,6.312084716796875,9.242599820455908,1.8854680019035934,0.37879933754615486
1761316084598066700,6.322066650390625,9.2792978582561,2.06080352602154,0.5969434912990779
1761316084608050000,6.3320498046875,9.397345561009645,2.302026942066848,0.4283741733804345
1761316084618032600,6.34203271484375,9.696656424364447,2.480693071912229,0.02023585556000471
1761316084628014800,6.352014892578125,9.961132121181487,2.5088337092474102,-0.5124320743791758
1761316084637997800,6.361997802734375,10.052021767896413,2.4573960752159354,-1.0711845859065652
1761316084647979800,6.371979736328125,9.990636448085308,2.4156930687353015,-1.5088823218189178
1761316084657962800,6.381962646484375,9.850132583373785,2.4932994555070995,-1.7244160008125007
1761316084667946000,6.391946044921875,9.60567383866906,2.768146616473794,-1.641620228704065
1761316084677927700,6.401927734375,9.235647517099975,3.0309888668701053,-1.4357101181022822
1761316084687911000,6.411910888671875,8.914161646816133,3.207284760452807,-1.253755906496942
1761316084697894000,6.421893798828125,8.772994934281707,3.352860813862085,-1.1097386268369853
1761316084707875800,6.431875732421875,8.91290083310008,3.4245828187704084,-1.0806433191254734
1761316084717858800,6.44185888671875,8.96804988887012,3.2877146802127357,-0.9386270040243864
1761316084727841800,6.451841796875,8.685010945880412,3.0920725733861327,-0.6630186494268476
1761316084737823700,6.46182373046875,8.044045284438132,2.9398581048756838,-0.5029718798555434
1761316084747806700,6.471806640625,7.222612581208348,2.7760478911176323,-0.45798459100723266
1761316084757790000,6.4817900390625,6.395393111270666,2.7333187564596533,-0.37930458365455266
1761316084767771600,6.491771728515625,5.393520838782191,2.501325233313441,-0.06574395341202616
1761316084777755000,6.5017548828125,4.266922700950503,1.8263681626811623,0.23397739043980836
1761316084787737900,6.51173779296875,2.998421937525272,0.6682350689008831,0.2575625564277172
1761316084797719800,6.5217197265625,1.347934950146079,-0.7337915369167923,0.4047397614233196
1761316084807702800,6.531702880859375,-0.5744903250157832,-2.1284569663167,0.7967723092257976
1761316084817685800,6.541685791015625,-2.761469622927904,-3.219173935689032,1.1354220802783965
1761316084827667700,6.551667724609375,-5.118205768042802,-3.8444793789237734,1.3413780758485196
1761316084837650700,6.561650634765625,-7.520466816014051,-4.12136505998075,1.2068212829731404
1761316084847634000,6.571634033203125,-10.047704489219187,-4.149810817742347,0.9707269003793597
1761316084857615600,6.58161572265625,-12.600248453116416,-3.705421621367335,0.991371921262145
1761316084867598800,6.591598876953125,-14.657856690227984,-2.7817382117137313,1.288964436391741
1761316084877581800,6.601581787109375,-16.053082383859156,-2.1468054006949067,1.539021877886355
1761316084887563800,6.611563720703125,-17.08257740728855,-2.0527643042117356,1.5507292668148875
1761316084897546800,6.621546630859375,-17.03203263044357,-2.106381912630796,1.5058249800749122
1761316084907529700,6.63152978515625,-16.222149495232106,-2.0462705582782625,1.5165126705668865
1761316084917511700,6.64151171875,-15.322170494031905,-1.8869921427309513,1.43389123211205
1761316084927494700,6.65149462890625,-14.248400275546311,-1.86805509480983,1.3175307517930865
1761316084937478000,6.661477783203125,-12.5140396576941,-2.0864938475951553,1.226025019006431
1761316084947459600,6.67145947265625,-10.2483930657804,-2.3333859569266435,1.153639727883786
1761316084957442800,6.68144287109375,-7.791113894942402,-2.4798101515978574,0.9993022028047591
1761316084967425800,6.69142578125,-5.288951041761041,-2.4003926237508653,0.504870991475135
1761316084977407700,6.70140771484375,-2.969322099769115,-2.1614394907250998,-0.13439568402953445
1761316084987390700,6.711390625,-1.0372148040264844,-1.8186591957390308,-0.43336430981792506
1761316084997373700,6.721373779296875,0.4577133728504181,-1.166315231192112,-0.5873231377776712
1761316085007355600,6.731355712890625,1.626445602056384,-0.27923721261918544,-0.7874836718767881
1761316085017339000,6.7413388671875,2.4824475143641234,0.6021566228374838,-0.8478515582736581
1761316085027320800,6.75132080078125,3.2584441620647904,1.1886603339910506,-0.9371049090236425
1761316085037303800,6.7613037109375,4.289661186981201,1.5422633440256117,-1.0246025021474807
1761316085047286800,6.771286865234375,5.336186255666613,1.7577385708302258,-1.2864258578248322
1761316085057268700,6.781268798828125,6.3183998879611485,1.7873679854184388,-1.774671731583029
1761316085067252000,6.791251953125,7.253703885042667,1.8224860605508089,-2.0688059229522944
1761316085077234700,6.801234619140625,7.884971159291267,1.8905559726923704,-2.1484183888494965
1761316085087217000,6.811216796875,8.044839065164327,1.88915779633224,-2.093166018835455
1761316085097199900,6.821199951171875,7.647416787147521,1.8241959332086144,-1.5056500618994235
1761316085107182800,6.831182861328125,6.780103207230567,1.8145408006347714,-0.5230301138263196
1761316085117164800,6.841164794921875,5.895404192748665,1.7944753332056105,0.1870030194275081
1761316085127148000,6.85114794921875,5.208076593104004,1.8213250539474188,0.37030163137912747
1761316085137130800,6.861130859375,5.025563140180707,1.7744350002177058,0.08300919566340743
1761316085147113000,6.871113037109375,5.6051990113914005,1.5955400300525129,-0.3059941405110061
1761316085157096000,6.881095947265625,6.709006640744209,1.431372381158918,-0.6061065295070409
1761316085167078700,6.89107861328125,7.866607235082983,1.289958415865153,-0.9527606702517718
1761316085177060900,6.901060791015625,8.766748148846625,1.149848957298696,-1.1938518382195382
1761316085187043800,6.9110439453125,9.509939090010523,1.0648163660489023,-1.2165883514888585
1761316085197026800,6.92102685546875,9.92658453941345,1.0249091569438575,-0.9686623690649866
1761316085207008800,6.9310087890625,9.847913738280534,0.9842246798560023,-0.478536745974794
1761316085216992000,6.940991943359375,9.428297748634218,1.0137398204147816,-0.10577003965638578
1761316085226974700,6.950974609375,8.767738913449644,1.0828393678650259,0.1299937958087772
1761316085236957000,6.96095703125,7.9559239333927625,1.1294134875133632,0.3827138075761497
1761316085246940000,6.97093994140625,7.115716387066245,1.0942863522917032,0.6695428635638206
1761316085256922600,6.980922607421875,6.3038113906383515,0.8588261759482324,0.8162159914948046
1761316085266904800,6.99090478515625,5.810655533006787,0.5047597861856222,0.45006388101056216
1761316085276887800,7.0008876953125,5.284030536493659,0.04704115263819694,-0.1500141819871962
1761316085286870800,7.010870849609375,4.295921416419744,-0.41266456307321786,-0.41609015360772605
1761316085296852700,7.020852783203125,2.7754858733206986,-0.7926473382502793,-0.3620034663721919
1761316085306836000,7.0308359375,0.3286947787493467,-1.290902857108414,0.1408404031895101
1761316085316818700,7.040818603515625,-2.5216607498556374,-2.126552301739156,0.7710961623080075
1761316085326801000,7.05080078125,-4.771830955696106,-2.9150474887460467,1.6441531081825493
1761316085336784000,7.060783935546875,-6.5342988931357855,-3.5213597699582575,2.7280168506592513
1761316085346765800,7.070765869140625,-8.256799561846256,-3.5599206790208813,3.6764784354776143
1761316085356748800,7.080748779296875,-10.686134494704007,-2.8418846373796463,4.427024415579438
1761316085366731800,7.090731689453125,-14.487935007852315,-1.1258895511709153,4.696110821062327
1761316085376713700,7.100713623046875,-18.81860274348259,1.0575263551712035,4.966038353544473
1761316085386696700,7.11069677734375,-21.955846291720867,2.4525512655332684,4.955502346482873
1761316085396680000,7.120679931640625,-22.813772450089452,2.346293369294703,4.1851212005764244
1761316085406661600,7.13066162109375,-21.511481060743332,1.4147414182230829,2.9798382330864666
1761316085416644900,7.140644775390625,-18.958165527951717,0.6366687679659575,2.2051662581183016
1761316085426627800,7.1506279296875,-15.76080974857807,0.19330613815970718,1.9224388652957975
1761316085436609800,7.16060986328125,-12.311288887906073,-0.34346579303219915,2.08528666376248
1761316085446592800,7.1705927734375,-8.908999734008312,-0.9345714450232684,2.2157699235886334
1761316085456575700,7.18057568359375,-5.462983666586876,-1.38738272504583,1.7464920774117112
1761316085466557700,7.1905576171875,-2.215766416457295,-1.729726236049831,0.87751801693663
1761316085476541000,7.200541015625,0.21695348266363143,-2.0183929557934404,0.468620989703387
1761316085486524000,7.21052392578125,1.1068336991757153,-1.8814450299978256,1.088608745046705
1761316085496505900,7.220505859375,1.0987585292696953,-1.0506392260059714,1.7370508798494935
1761316085506488800,7.23048876953125,1.1423574324995278,-0.1958150522407144,1.4541583595931529
1761316085516472000,7.24047216796875,1.072072766917944,0.19451653686277567,0.6294346519939601
1761316085526454300,7.250454345703125,0.8572703248083591,0.2373085806891322,-0.46675161563493306
1761316085536437000,7.26043701171875,0.7383014155566692,0.14164930841960013,-1.7974828444585202
1761316085546420200,7.270420166015625,0.6988537867873906,0.01152048348772805,-2.9716733390703793
1761316085556402200,7.280402099609375,0.8573369603037834,-0.12363689192957245,-3.572322479954362
1761316085566385200,7.29038525390625,1.1439636986523867,-0.357178201640211,-3.429164301341772
1761316085576368000,7.3003681640625,1.8306904097944496,-0.6483114210952073,-2.6823177602797745
1761316085586350000,7.31035009765625,2.9833968023508786,-0.7695384114719926,-1.776008825405687
1761316085596333000,7.3203330078125,4.183884352257848,-0.6774691995836793,-0.8382804507214575
1761316085606315000,7.33031494140625,5.210543275478482,-0.5663533053873107,0.014738792513683437
1761316085616298200,7.34029833984375,6.084214699989557,-0.5114275004465133,0.5973308831814677
1761316085626281000,7.350281005859375,6.7713570061951875,-0.47148514696285126,0.7776007218964397
1761316085636263200,7.36026318359375,7.432094705078005,-0.4531964434152469,0.45351621342152354
1761316085646246100,7.37024609375,7.986243083810805,-0.5891044317038729,-0.2372384380623698
1761316085656229400,7.3802294921875,8.554661979958414,-0.7547539531856775,-1.0206381285611539
1761316085666211000,7.390211181640625,9.116375825509428,-0.6963505717948079,-1.5772051858082412
1761316085676194300,7.4001943359375,9.54247124030292,-0.4812774960502982,-1.8915961293950676
1761316085686177300,7.41017724609375,9.84217840949893,-0.24651991501823067,-1.959377726114541
1761316085696159200,7.4201591796875,10.101210453957318,-0.022716420329362153,-1.7600167448952793
1761316085706142200,7.43014208984375,10.310489164209365,0.18559432167336343,-1.3569200745038688
1761316085716125200,7.440125244140625,10.408050543773173,0.3514512388281524,-0.9453051666140556
1761316085726107100,7.450107177734375,10.433437498486041,0.49672246407195925,-0.6373951094791293
1761316085736090000,7.460090087890625,10.316427906608581,0.5989153028286993,-0.4909115858361125
1761316085746073300,7.4700732421875,9.872824892175197,0.776648097346723,-0.3599883271574974
1761316085756055000,7.480054931640625,9.20552184342742,1.019590446139127,-0.23641484671980142
1761316085766038300,7.490038330078125,8.295107372930646,1.17743400657773,-0.34004254058524963
1761316085776021200,7.500021240234375,7.355237675368786,1.314962508740276,-0.6369366981871426
1761316085786003200,7.510003173828125,6.7164902744978665,1.4331639407508074,-0.9684659697100519
1761316085795986200,7.519986083984375,6.261488498693704,1.2907600876368581,-1.3940811997711657
1761316085805969200,7.52996923828125,5.52271069779694,0.7912906629443168,-1.471140766315162
1761316085815951000,7.539951171875,4.149071982073783,0.034520693761110305,-0.9571433423154055
1761316085825934000,7.54993408203125,2.167327087458968,-0.6741347944639623,-0.1342157243527472
1761316085835917300,7.559917236328125,-0.20654840850532052,-1.1601713216096161,0.7780629325807095
1761316085845899000,7.56989892578125,-2.5072546233624218,-1.4637236219264567,1.8378285911113024
1761316085855882200,7.57988232421875,-4.733161325562,-1.7666200886830687,2.7998692039489743
1761316085865864000,7.589864013671875,-7.080925644192099,-1.8587607583723962,3.043141661478579
1761316085875847200,7.59984716796875,-9.590584406086801,-1.4027308085642753,2.5620190637290476
1761316085885830100,7.609830078125,-12.698672586989401,-0.3605183423809707,1.3069329315416514
1761316085895812000,7.61981201171875,-15.626909812176226,0.6821941822789609,-0.0367417308114469
1761316085905795000,7.629795166015625,-17.51213085358143,0.9768464061729609,-1.023032549417019
1761316085915778000,7.639778076171875,-18.524663051772116,0.6353318933390081,-1.3131120585680007
1761316085925760000,7.649760009765625,-19.01394060666561,0.550395529005304,-1.1704881329625845
1761316085935743000,7.659742919921875,-18.93766634528041,0.9226893571149557,-0.9477570898108184
1761316085945726200,7.669726318359375,-17.88324497038722,0.9627436465404927,-0.8542911628670989
1761316085955708000,7.6797080078125,-15.838289294099807,0.28258922646082935,-0.7850308718971908
1761316085965691100,7.689691162109375,-12.942125954043865,-0.5969923719421029,-0.5811844158269465
1761316085975674000,7.699674072265625,-9.741068397542834,-1.3147364448994396,-0.27765498492904006
1761316085985656000,7.709656005859375,-7.015697092956304,-1.844330520351231,0.06358443729057908
1761316085995639000,7.71963916015625,-5.323348985925317,-2.141195890250057,0.39076654645465314
1761316086005622300,7.729622314453125,-4.226230625078082,-1.8020489833302795,0.4704146681871265
1761316086015604200,7.739604248046875,-3.33395912951529,-1.0840071695353835,0.4741688330888748
1761316086025587200,7.749587158203125,-2.666314719983935,-0.6336052887421101,0.5622594967350364
1761316086035570200,7.759570068359375,-1.8941180490881204,-0.4323585668414831,0.6299413594070822
1761316086045552000,7.76955224609375,-0.8339198443591594,-0.3044970520873554,0.55524267677553
1761316086055535000,7.77953515625,0.4951484927535057,-0.25800080171450973,0.22895141550395637
1761316086065517300,7.789517333984375,1.934835843923688,-0.14620094384197144,-0.07867635409086943
1761316086075500300,7.799500244140625,3.2459166889250275,-0.055798436756595036,-0.17405019701514393
1761316086085483000,7.80948291015625,4.454229817891121,-0.06573459649521392,-0.13099146507661788
1761316086095465200,7.81946533203125,5.492261783519387,-0.19508224445413797,-0.0014683189868927
1761316086105448200,7.8294482421875,6.415766621735692,-0.3380615228358656,0.22113361789248884
1761316086115431200,7.83943115234375,7.177807809320091,-0.4079698659183457,0.5035824129693209
1761316086125413000,7.8494130859375,7.57494542517662,-0.4379673101013526,0.9096728583492338
1761316086135396400,7.859396240234375,7.6208514363050455,-0.43267143218293785,1.2958030502401292
1761316086145379000,7.869379150390625,7.567612598070502,-0.4229836394485086,1.5580772914901375
1761316086155361300,7.879361328125,7.609996280291676,-0.46078971155583853,1.5624933543667197
1761316086165344300,7.88934423828125,7.829549716320633,-0.5990159501915797,1.2452484826534986
1761316086175327000,7.899326904296875,8.061288680183887,-0.7997804050005972,0.8256322007462382
1761316086185309200,7.90930908203125,7.999722158586978,-0.8245020276725292,0.5624580515144393
1761316086195292200,7.919292236328125,7.775717588368058,-0.7818978345684706,0.28979433553405104
1761316086205275100,7.929275146484375,7.6950079748839135,-0.7790743015803396,0.11723353682644665
1761316086215257000,7.939257080078125,7.7691294421494,-0.8250962672386318,0.0723176327139139
1761316086225240300,7.949240234375,7.947664054569602,-0.919451763433218,0.04782558101415634
1761316086235223000,7.95922314453125,8.088037570899724,-0.8821597783278673,0.10795717443712055
1761316086245205200,7.969205322265625,8.12734316084981,-0.5783969040002673,0.28735125323086974
1761316086255188200,7.979188232421875,8.097971520414948,-0.29337160949893293,0.5321015282280743
1761316086265170200,7.989170166015625,8.040690713313221,-0.17928316576518116,0.7270186087157576
1761316086275153200,7.999153076171875,7.805996991297603,-0.16281429805587977,0.7263548110447824
1761316086285136100,8.00913623046875,7.471186360016465,-0.21725889535099266,0.46597369006499645
1761316086295118000,8.0191181640625,7.071407289740443,-0.28104462736733254,0.17944851239472626
1761316086305101000,8.02910107421875,6.414679995542764,-0.3959823083415627,0.00411992947421968
1761316086315084300,8.039084228515625,5.424763533785939,-0.5885452269185334,-0.31141675008162856
1761316086325066000,8.04906591796875,4.192497866824269,-0.7023083842206745,-0.6416581737510859
1761316086335049200,8.05904931640625,2.672221313679218,-0.7383843445997684,-0.5018419990427792
1761316086345032200,8.0690322265625,0.6767471689194441,-1.0138595012716949,-0.0523801755785942
1761316086355014100,8.07901416015625,-1.6273638859450816,-1.5469801434144377,0.48389162407144903
1761316086364997000,8.0889970703125,-4.068699637719988,-2.2423704918749627,1.3128959315992892
1761316086374980000,8.09897998046875,-6.089305301126838,-2.6862925091296432,2.2545624494500456
1761316086384962000,8.108962158203125,-8.354437513777613,-2.2195957654871044,3.598353577789664
1761316086394945000,8.118945068359375,-10.349818135035038,-1.1237703670598567,4.575834336343408
1761316086404928300,8.12892822265625,-11.906743626141548,0.02192804643064737,4.351971220421791
1761316086414910000,8.138909912109375,-13.154313245218992,0.5670622939068823,2.931850739508867
1761316086424893200,8.14889306640625,-13.465297595232725,0.3751761055476963,0.901668853983283
1761316086434876200,8.158876220703124,-13.60195179877877,-0.12402692329362035,-0.8840931575432419
1761316086444858000,8.168858154296874,-14.095871626520156,-0.3921476986147463,-1.9955359579496084
1761316086454841000,8.178841064453126,-14.131186101007462,-0.1691537667430937,-2.282063765968382
1761316086464823300,8.1888232421875,-13.239405603832006,0.06128470898084342,-2.0104414122670886
1761316086474806000,8.198805908203125,-12.014397360652685,0.09342026117108762,-1.406675016145408
1761316086484789200,8.208789306640625,-10.748986964458226,0.05770991923399269,-0.7271724110379815
1761316086494771200,8.218771240234375,-9.736269472828507,0.22714798281118273,0.046586029281839726
1761316086504754200,8.228754150390625,-8.868894518113136,0.4327999904660508,0.8775280999392271
1761316086514737200,8.238737060546875,-8.241701361435652,0.5845809629300609,1.3999987532518803
1761316086524719400,8.24871923828125,-7.702928246489167,0.7271725571684539,1.4450332422427832
1761316086534702000,8.2587021484375,-6.901695450723171,0.8088019158460199,1.309384416346997
1761316086544685000,8.26868505859375,-5.8206420894920825,0.7777679682221263,1.1604603676840661
1761316086554667300,8.278667236328126,-4.603390451788902,0.5860109226679429,0.9170081696733832
1761316086564650000,8.28864990234375,-3.51730844874084,0.27555698973648246,0.5496566202715039
1761316086574633200,8.29863330078125,-2.5613871955662963,0.007039324052259326,0.2350470654979348
1761316086584615200,8.308615234375,-1.4644342544138431,-0.27680527276452627,-0.1254071256056428
1761316086594598100,8.31859814453125,-0.10128653756678103,-0.5285843138873577,-0.4095429239213466
1761316086604581000,8.3285810546875,1.371443251505494,-0.5598869954500347,-0.43675314853861924
1761316086614563300,8.338563232421874,2.86629017983973,-0.4663687537971884,-0.28855200732275843
1761316086624546000,8.348546142578124,4.2340848457098,-0.5577115511070937,-0.16795052843317387
1761316086634528300,8.3585283203125,5.559959355217218,-0.6837516408540308,-0.19515987626761197
1761316086644511200,8.36851123046875,6.768477066844701,-0.7930074767995625,-0.49436128789857026
1761316086654494000,8.378493896484375,7.5531000885933635,-0.821688504621759,-0.6999810372516513
1761316086664476200,8.38847607421875,8.034585966697335,-0.7199978432334959,-0.749471336607635
1761316086674459100,8.398459228515625,8.547221016302704,-0.627414105951786,-0.7699066602624952
1761316086684442000,8.408442138671875,8.827380019941925,-0.6807329506199806,-0.8126913244999945
1761316086694424000,8.418424072265625,8.482354284116624,-0.6819689952209591,-0.6750646226599812
1761316086704407300,8.4284072265625,8.044078602185845,-0.6418953435078263,-0.6244499954491853
1761316086714390000,8.43839013671875,7.854691171839833,-0.6540249764364212,-0.777253515893966
1761316086724372200,8.448372314453126,7.885473263594507,-0.738932114675641,-1.0569823114223778
1761316086734355200,8.458355224609376,7.7020678302675485,-0.7712573442190885,-1.27006421334967
1761316086744338000,8.468337890625,7.336195705768466,-0.6370795407239347,-1.2141253223761916
1761316086754320100,8.478320068359375,7.09586368560493,-0.4163934474032372,-1.0555867654107511
1761316086764303000,8.48830322265625,7.068207032394409,-0.28177699676249174,-0.9268317906819283
1761316086774286000,8.4982861328125,7.405362180975079,-0.2458585285000503,-1.029626833115518
1761316086784268000,8.50826806640625,7.882226829019189,-0.12827099060416222,-1.2663883013159036
1761316086794251300,8.518251220703124,8.140760860827564,0.036440848168730736,-1.3214300973191857
1761316086804233000,8.52823291015625,8.168561890944838,0.23116225995384154,-1.2043066698037088
1761316086814216200,8.53821630859375,7.974730340671539,0.38960824326500293,-1.1138624287687242
1761316086824199200,8.54819921875,7.85833332773447,0.33448644082807,-1.180726033860445
1761316086834181000,8.55818115234375,7.790887684971094,0.23232290123105048,-1.177823882678151
1761316086844164000,8.5681640625,7.450539877828955,0.3416583052188158,-0.9626230889007449
1761316086854147000,8.57814697265625,6.722614894858002,0.33261911258623,-0.8564994865663349
1761316086864129000,8.58812890625,5.694518632310628,0.1298148590452969,-0.8917315434671937
1761316086874112300,8.5981123046875,4.5835962025165555,-0.16576456269621848,-1.1712845440372823
1761316086884095200,8.60809521484375,3.119671651190519,-0.5642720056012273,-1.0178536854743956
1761316086894077200,8.6180771484375,1.2707225311279295,-1.2978126364968716,-0.19020649164393544
1761316086904060200,8.62806005859375,-0.7027747596234083,-1.907755821557343,0.41291240035444493
1761316086914043100,8.638043212890626,-2.114393369650841,-2.6985709759443997,0.8845821101039647
1761316086924025000,8.648025146484375,-3.281971752646565,-3.0016753863632677,1.1630123902544378
1761316086934008000,8.658008056640625,-4.6424207319289446,-2.7719021696150303,0.9157027861632406
1761316086943991300,8.6679912109375,-7.053762911978364,-2.251707498410344,1.310582247829437
1761316086953973000,8.677972900390625,-9.832128140127658,-1.5645463413737712,1.7056015563577414
1761316086963956200,8.687956298828125,-11.755419092208147,-0.6859811534717679,1.1958990530729292
