time,seconds_elapsed,z,y,x
1761317040797334000,0.072333984375,-0.0010464770020917058,0.0005215820856392384,0.00020180502906441689
1761317040807316700,0.082316650390625,-0.00276205874979496,0.0002769017592072487,-0.0006571332924067974
1761317040817300000,0.092300048828125,0.002570921555161476,0.0003360239788889885,-0.00033755390904843807
1761317040827282000,0.102281982421875,-0.00028728286270052195,-0.0018632356077432632,0.0020153780933469534
1761317040837265000,0.112264892578125,0.00035879993811249733,-0.00200198614038527,-0.001978830900043249
1761317040847248000,0.122247802734375,-0.00042490940541028976,-0.0030470755882561207,0.00009290431626141071
1761317040857230800,0.13223095703125,-0.00016019120812416077,-0.0004885769449174404,0.0028532708529382944
1761317040867214000,0.142214111328125,-0.0025785774923861027,-0.0010353894904255867,-0.0020705792121589184
1761317040877196800,0.15219677734375,-0.0007742859306745231,-0.002780026290565729,0.00007220008410513401
1761317040887179000,0.162178955078125,0.0005266177468001842,-0.00043333088979125023,-0.00022107502445578575
1761317040897162000,0.172161865234375,-0.0006915120757184923,0.00017919577658176422,0.0009496505372226238
1761317040907144700,0.182144775390625,-0.0011519204126670957,-0.0036635647993534803,-0.0006185935344547033
1761317040917128000,0.1921279296875,0.0011772802099585533,-0.0016827057115733624,-0.0010010234545916319
1761317040927111000,0.20211083984375,0.0017002945533022285,0.0008786795660853386,-0.0034289814066141844
1761317040937094000,0.212093994140625,-0.0004163858247920871,0.0012200968340039253,0.0004840010078623891
1761317040947075800,0.222075927734375,-0.0019048760877922177,0.0002129967324435711,-0.00014089117757976055
1761317040957058800,0.232058837890625,-0.000528288132045418,-0.0005798265337944031,-0.0009235942270606756
1761317040967042000,0.2420419921875,-0.0003799401456490159,0.0020812745206058025,-0.0001729100476950407
1761317040977024800,0.252024658203125,0.00014070782344788313,-0.000726496335119009,0.00023322203196585178
1761317040987007700,0.2620078125,-0.0005297890747897327,0.003563039470463991,0.0007121950620785356
1761317040996991000,0.271990966796875,-0.0013827995862811804,0.0015835119411349297,-0.00008808472193777561
1761317041006972700,0.28197265625,-0.0020996893290430307,0.002802702132612467,0.0019997195340692997
1761317041016956000,0.291955810546875,-0.0005923400749452412,0.0010535381734371185,0.00046999985352158546
1761317041026939000,0.30193896484375,-0.002833412727341056,-0.000959223136305809,0.00008338526822626591
1761317041036921900,0.311921875,-0.0022200867533683777,-0.002303054090589285,0.00013238750398159027
1761317041046904800,0.32190478515625,0.0021173828281462193,0.0019801626913249493,0.0008499192772433162
1761317041056887800,0.3318876953125,0.0010553140891715884,0.00023685768246650696,0.0006642970256507397
1761317041066871000,0.34187109375,-0.00019834039267152548,-0.00048016058281064034,0.0002883416600525379
1761317041076852700,0.351852783203125,-0.0007674579974263906,-0.0004601869732141495,0.000017498154193162918
1761317041086836000,0.3618359375,-0.0008110288181342185,-0.000711195170879364,0.000928848166950047
1761317041096819000,0.37181884765625,-0.0002965060994029045,-0.0003905505873262882,0.0005948877660557628
1761317041106802000,0.381802001953125,-0.0025393711403012276,0.0008038333617150784,0.0018708534771576524
1761317041116785000,0.391784912109375,0.0023073155898600817,-0.0014555924572050571,0.0005770898424088955
1761317041126767900,0.401767822265625,-0.0003891108790412545,-0.0004928270354866982,0.00121901067905128
1761317041136750000,0.41175,0.004168356768786907,-0.0008877739310264587,-0.002020192099735141
1761317041146732800,0.42173291015625,-0.0008159172139130533,-0.0010590259917080402,-0.0008405335247516632
1761317041156715800,0.4317158203125,0.002097847405821085,-0.0025759623385965824,-0.0020386897958815098
1761317041166699000,0.441698974609375,-0.0020140698179602623,0.0004030819982290268,-0.0008558810222893953
1761317041176682000,0.451681884765625,-0.001430304953828454,0.0021940581500530243,-0.0020455149933695793
1761317041186664700,0.461664794921875,-0.000592489552218467,-0.0010107005946338177,-0.000004819128662347794
1761317041196647000,0.47164697265625,-0.001779194106347859,-0.0017550541087985039,0.0017371544381603599
1761317041206630000,0.4816298828125,-0.00036549626383930445,0.0022802897728979588,0.0028383799362927675
1761317041216612900,0.49161279296875,-0.0018472791416570544,-0.00012853927910327911,-0.0010690100025385618
1761317041226595800,0.501595947265625,0.000842347159050405,0.0002592606469988823,0.0017477701185271144
1761317041236578800,0.511578857421875,-0.0023308093659579754,-0.0013815127313137054,-0.0027865280862897635
1761317041246562000,0.52156201171875,0.002077090321108699,0.0003019142895936966,0.0009101600153371692
1761317041256544000,0.5315439453125,-0.0016334920655936003,0.0005136355757713318,0.00047712994273751974
1761317041266527000,0.54152685546875,0.0007421751506626606,-0.00001677079126238823,0.0006996127776801586
1761317041276510000,0.551510009765625,0.0018764154519885778,-0.000010911840945482254,0.0002745722886174917
1761317041286493000,0.561492919921875,-0.00014613568782806396,0.0003654998727142811,0.0007738955318927765
1761317041296476000,0.571475830078125,-0.0015312457690015435,0.0004224912263453007,0.0010031936690211296
1761317041306459000,0.581458984375,-0.0017457277281209826,-0.0005704839713871479,0.000977613148279488
1761317041316440800,0.59144091796875,-0.0008306655799970031,-0.0018418771214783192,0.0015259579522535205
1761317041326423800,0.601423828125,0.0003313344204798341,-0.0008550165221095085,0.0003180776257067919
1761317041336407000,0.611406982421875,-0.0004276665858924389,-0.0014789951965212822,-0.002094213617965579
1761317041346390000,0.62139013671875,0.0009581673657521605,-0.0017129415646195412,-0.0009067605715245008
1761317041356372700,0.631372802734375,-0.0005766124813817441,-0.0017558182589709759,-0.0008436436764895916
1761317041366356000,0.64135595703125,0.00042724364902824163,0.0004482800140976906,0.0009053874528035522
1761317041376339000,0.6513388671875,-0.0036487244069576263,-0.003358442336320877,0.0014414817560464144
1761317041386321000,0.66132080078125,0.002051033079624176,-0.00019213231280446053,0.001797777134925127
1761317041396304000,0.671303955078125,-0.00035033910535275936,0.00008110795170068741,-0.0003250285517424345
1761317041406286800,0.681286865234375,-0.0012097300495952368,-0.001822084654122591,-0.000107515137642622
1761317041416269800,0.691269775390625,0.0009354461217299104,-0.0014710803516209126,0.0014001003000885248
1761317041426252800,0.701252685546875,0.0005491044139489532,0.0032453048042953014,-0.000017778947949409485
1761317041436235500,0.711235595703125,0.002136614639312029,0.00048413965851068497,0.0010565401753410697
1761317041446217500,0.721217529296875,0.0006144503131508827,0.00024746451526880264,0.0000894051045179367
1761317041456200400,0.731200439453125,-0.0010337800486013293,0.0030693495646119118,-0.001758828992024064
1761317041466183400,0.741183349609375,0.003852028865367174,0.00148810725659132,0.0015876999823376536
1761317041476166400,0.75116650390625,-0.005039999261498451,0.0005709147080779076,0.0005144460592418909
1761317041486149600,0.761149658203125,0.0011155263055115938,0.0009948136284947395,0.001091832760721445
1761317041496132400,0.77113232421875,-0.0006011472432874143,0.0012097307480871677,-0.0028579013887792826
1761317041506114600,0.781114501953125,0.002630601404234767,-0.0014391127042472363,-0.00006111082620918751
1761317041516097500,0.79109765625,-0.000911668932531029,-0.0018457775004208088,0.00032451492734253407
1761317041526080300,0.801080322265625,-0.0010604492854326963,0.001304886769503355,0.0013512360164895654
1761317041536063500,0.8110634765625,0.0008578256238251925,0.003115569707006216,0.0001853040885180235
1761317041546046500,0.82104638671875,-0.0015416470123454928,0.0014127488248050213,-0.00033593690022826195
1761317041556029400,0.831029541015625,-0.00071233871858567,-0.0005356199108064175,-0.0018629936967045069
1761317041566011400,0.841011474609375,-0.0030020885169506073,0.0021159513853490353,0.0003643692471086979
1761317041575994400,0.850994384765625,0.002154057379812002,-0.0004782336764037609,-0.0007672077044844627
1761317041585977600,0.8609775390625,-0.0012509755324572325,0.0014321417547762394,0.00008377851918339729
1761317041595960300,0.870960205078125,-0.002337545156478882,-0.0024068050552159548,0.000583121320232749
1761317041605943600,0.880943603515625,0.0004369644448161125,-0.0015764003619551659,0.002737805712968111
1761317041615926500,0.890926513671875,-0.0027535026893019676,-0.0008562817238271236,0.0000996782910078764
1761317041625908500,0.900908447265625,0.0031118947081267834,-0.0025088677648454905,-0.000925703439861536
1761317041635891500,0.910891357421875,0.002262612571939826,-0.0006579705514013767,0.0006333109922707081
1761317041645874400,0.92087451171875,-0.00034581124782562256,0.0013920306228101254,0.0017762593924999237
1761317041655857700,0.930857666015625,-0.0012542156036943197,-0.0028115026652812958,0.0002627850044518709
1761317041665840400,0.94084033203125,-0.0022896977607160807,-0.001011778600513935,0.0026164555456489325
1761317041675823400,0.9508232421875,-0.0011863501276820898,-0.0008908710442483425,-0.0006789399776607752
1761317041685806600,0.960806640625,0.0010817167349159718,-0.0009887581691145897,0.0017189455684274435
1761317041695788300,0.970788330078125,-0.0022632135078310966,-0.0007312307134270668,-0.0006315603386610746
1761317041705771500,0.980771484375,-0.002154615242034197,0.0012859473936259747,0.0007606480503454804
1761317041715754500,0.99075439453125,0.0014353260630741715,-0.0025849572848528624,0.0015084636397659779
1761317041725737500,1.000737548828125,-0.00038251536898314953,-0.0019719358533620834,0.0019809373188763857
1761317041735720400,1.010720458984375,0.0006617099279537797,0.0009263823740184307,0.000899427686817944
1761317041745703400,1.020703369140625,0.000826131203211844,0.004102397710084915,-0.0021492214873433113
1761317041755685600,1.030685546875,-0.002037832047790289,-0.00003082817420363426,0.0012716091005131602
1761317041765668400,1.04066845703125,-0.0017611898947507143,0.0004349472001194954,0.0003780028782784939
1761317041775651300,1.0506513671875,-0.0005571748479269445,0.0004586493596434593,-0.0002600904554128647
1761317041785634600,1.060634521484375,-0.0018701262306421995,-0.0025097334291785955,0.0010631463956087828
1761317041795617500,1.070617431640625,-0.0015446878969669342,-0.001488411333411932,0.00029588956385850906
1761317041805600500,1.0806005859375,0.0006451379740610719,0.00006472505629062653,-0.00045035500079393387
1761317041815582500,1.09058251953125,-0.000961280835326761,0.002003239933401346,-0.0009606166277080774
1761317041825565700,1.100565673828125,0.0001488358248025179,-0.0005024829879403114,0.0002449224703013897
1761317041835548400,1.11054833984375,0.0005365920951589942,0.0008472069166600704,-0.0009412495419383049
1761317041845531400,1.120531494140625,0.0010901534697040915,-0.0008206921629607677,-0.003151110839098692
1761317041855514600,1.1305146484375,0.00042489590123295784,-0.0027078078128397465,-0.001128706382587552
1761317041865497600,1.14049755859375,0.000873947748914361,0.0015459014102816582,0.0019634452182799578
1761317041875479600,1.1504794921875,0.0005588957574218512,0.0009869039058685303,0.0008140249410644174
1761317041885462500,1.160462646484375,0.0004229762125760317,-0.0008832216262817383,-0.0007610626053065062
1761317041895445500,1.170445556640625,-0.000033489661291241646,-0.0003202292136847973,-0.0003554632421582937
1761317041905428500,1.180428466796875,-0.0016957322368398309,-0.001115996390581131,0.0011870344169437885
1761317041915411500,1.190411376953125,-0.0007122269016690552,0.0010366365313529968,-0.0016971691511571407
1761317041925394400,1.20039453125,-0.0006162573699839413,0.00019134394824504852,-0.0007516264449805021
1761317041935376400,1.21037646484375,0.0016642074333503842,0.0005359570495784283,-0.0006834494415670633
1761317041945359400,1.220359375,-0.001378241810016334,-0.00029161199927330017,0.00019462499767541885
1761317041955342600,1.230342529296875,0.0014644163893535733,-0.0004418143071234226,0.000515535706654191
1761317041965325600,1.24032568359375,-0.0006980924517847598,0.0022477717138826847,-0.0009184989612549543
1761317041975308500,1.25030859375,-0.000600620754994452,-0.0009576086886227131,-0.00001249159686267376
1761317041985291500,1.26029150390625,-0.0018448105547577143,0.0007675997912883759,0.0008271168917417526
1761317041995274500,1.2702744140625,-0.0004341341555118561,0.0023899972438812256,-0.0013825080823153257
1761317042005256400,1.28025634765625,-0.000943924707826227,0.0013347640633583069,0.001198706217110157
1761317042015239400,1.290239501953125,-0.0023524705320596695,0.0008263667114078999,0.002581419423222542
1761317042025222700,1.30022265625,0.0002355664037168026,0.00029242364689707756,0.0009714090265333652
1761317042035205400,1.310205322265625,0.00020973384380340576,0.000028770416975021362,-0.0008166374173015356
1761317042045188400,1.320188232421875,-0.0015915075782686472,-0.0010236953385174274,-0.00019851140677928925
1761317042055171600,1.330171630859375,0.0016205308493226767,0.001000307034701109,0.0011589017231017351
1761317042065153300,1.3401533203125,0.0008446989813819528,-0.0023543937131762505,0.0005546000320464373
1761317042075136500,1.350136474609375,0.00005107710603624582,0.0007391343824565411,0.0018542225006967783
1761317042085119500,1.360119384765625,0.001824775943532586,0.0020148386247456074,-0.0010599431116133928
1761317042095102500,1.3701025390625,0.0009368779137730598,0.0005450397729873657,0.0008703160565346479
1761317042105085400,1.38008544921875,-0.0006932502146810293,-0.001325360033661127,0.0019384626066312194
1761317042115068400,1.390068359375,0.0017395473551005125,0.0011543096043169498,0.0015800012042745948
1761317042125050600,1.400050537109375,0.00029448489658534527,0.001196088269352913,-0.00009510968811810017
1761317042135033300,1.410033447265625,0.0031216966453939676,0.00021471362560987473,-0.00017207488417625427
1761317042145016300,1.420016357421875,-0.00044898083433508873,0.000005734153091907501,0.00029624393209815025
1761317042154999600,1.42999951171875,-0.00008066557347774506,-0.0005924119614064693,0.0015383422141894698
1761317042164982500,1.439982421875,-0.0003729980671778321,-0.0007375539280474186,0.0006549928802996874
1761317042174965500,1.449965576171875,-0.0012190842535346746,0.00039828428998589516,0.0003063851036131382
1761317042184947500,1.459947509765625,0.0014653551625087857,-0.0011158231645822525,0.001981188077479601
1761317042194930400,1.469930419921875,-0.00040152075234800577,-0.0017552480567246675,-0.00027424306608736515
1761317042204913400,1.479913330078125,-0.0021147800143808126,-0.0021456792019307613,-0.00036414084024727345
1761317042214896400,1.489896484375,-0.00042180856689810753,-0.0029076095670461655,0.0016824983758851886
1761317042224879600,1.499879638671875,0.0015455168904736638,0.002834540791809559,-0.00001519802026450634
1761317042234862600,1.509862548828125,0.0028153122402727604,0.0019248053431510925,0.0005744257941842079
1761317042244845300,1.51984521484375,0.00042082753498107195,-0.0012273234315216541,0.00007409090176224709
1761317042254827500,1.52982763671875,0.0005055160727351904,0.001970600336790085,-0.0003056759014725685
1761317042264810500,1.539810546875,-0.00016427040100097656,-0.0008180495351552963,-0.0007655394729226828
1761317042274793500,1.54979345703125,-0.001548847765661776,0.0007782494649291039,0.0003343462012708187
1761317042284776400,1.5597763671875,-0.000505013857036829,0.0020917970687150955,0.0005968266632407904
1761317042294759400,1.569759521484375,-0.0012261979281902313,0.00011546490713953972,0.000973663991317153
1761317042304741400,1.579741455078125,0.0005855358904227614,0.0033318400382995605,0.0019887560047209263
1761317042314724400,1.589724365234375,0.00021881854627281427,-0.0012352154590189457,0.0018087263451889157
1761317042324707600,1.59970751953125,0.0032526596914976835,0.002415865659713745,-0.0014869095757603645
1761317042334690600,1.609690673828125,0.0011455665808171034,0.0016070636920630932,-0.001847767736762762
1761317042344673300,1.61967333984375,0.0005500513361766934,0.002335458993911743,-0.0011763961520045996
1761317042354656500,1.629656494140625,-0.002031084382906556,0.0010424945503473282,0.001936572720296681
1761317042364639500,1.639639404296875,-0.00026493892073631287,0.00019502406939864159,-0.000018012477084994316
1761317042374621400,1.649621337890625,-0.001306234858930111,-0.0011195121333003044,0.0010118319187313318
1761317042384604400,1.6596044921875,0.0018665667157620192,-0.0007368056103587151,0.0006214668974280357
1761317042394587400,1.66958740234375,0.00010781502351164818,0.001080801710486412,0.0001511524897068739
1761317042404570600,1.679570556640625,0.0012896747794002295,0.00008122995495796204,-0.0011317022144794464
1761317042414553300,1.68955322265625,-0.0006586938980035484,0.0011134711094200611,0.0021706176921725273
1761317042424536600,1.69953662109375,0.0036954416427761316,-0.0005038073286414146,-0.0016873369459062815
1761317042434518500,1.7095185546875,0.0010447974782437086,-0.0026607015170156956,0.001205388572998345
1761317042444501800,1.719501708984375,0.0031450295355170965,0.000034971628338098526,0.0030178504530340433
1761317042454484700,1.729484619140625,-0.0008691530674695969,-0.0005525215528905392,-0.0003816746175289154
1761317042464467500,1.739467529296875,-0.00043542019557207823,-0.00029341550543904305,-0.0009501338936388493
1761317042474450700,1.74945068359375,-0.0018010891508311033,0.001277583185583353,-0.0014622595626860857
1761317042484433700,1.75943359375,-0.002001539571210742,0.0028518131002783775,0.0013534033205360174
1761317042494415600,1.76941552734375,-0.00020843325182795525,0.00017267325893044472,0.0007592521142214537
1761317042504398600,1.779398681640625,-0.0018664909293875098,0.0011121504940092564,-0.000710643595084548
1761317042514381600,1.789381591796875,0.001580971060320735,-0.0008370173163712025,0.0006475686095654964
1761317042524364800,1.79936474609375,0.00007790687959641218,-0.000010235700756311417,-0.00025610136799514294
1761317042534347500,1.809347412109375,-0.0009396869572810829,-0.0011207740753889084,-0.0006747501902282238
1761317042544330500,1.81933056640625,0.002233599778264761,-0.0016558202914893627,0.002954588970169425
1761317042554312700,1.829312744140625,0.0005384978139773011,-0.0004294347018003464,0.0006956957513466477
1761317042564295400,1.83929541015625,0.001727188122458756,0.001995780970901251,-0.0021886092144995928
1761317042574278700,1.849278564453125,0.0027671526186168194,0.0010660714469850063,0.001265510800294578
1761317042584261600,1.85926171875,0.001759274979121983,-0.00004753610119223595,-0.001003670273348689
1761317042594244600,1.86924462890625,0.0003022596938535571,0.0009423610754311085,-0.0010377587750554085
1761317042604227600,1.8792275390625,-0.00021756684873253107,-0.0013999473303556442,0.001045462442561984
1761317042614210600,1.88921044921875,0.00021652830764651299,-0.0012928880751132965,0.0005447880830615759
1761317042624192800,1.89919287109375,-0.00024688057601451874,0.0006345375441014767,0.0019907697569578886
1761317042634175500,1.909175537109375,-0.0012066838098689914,0.002704612910747528,-0.0005149985663592815
1761317042644158700,1.91915869140625,0.0008280905894935131,0.0007875901646912098,0.0003935771528631449
1761317042654141700,1.9291416015625,0.0009221001528203487,-0.00086570018902421,0.0017848124261945486
1761317042664124400,1.93912451171875,-0.0013878291938453913,0.0006911479867994785,0.0013338300632312894
1761317042674107600,1.949107666015625,-0.0006357525126077235,-0.0005070078186690807,-0.00035647815093398094
1761317042684089600,1.959089599609375,-0.002250146120786667,0.00008013611659407616,0.0019652950577437878
1761317042694072600,1.969072509765625,-0.0004205545410513878,-0.0002881786786019802,0.0005325141828507185
1761317042704055600,1.9790556640625,0.0007047132821753621,0.000154219102114439,0.0004680212587118149
1761317042714038500,1.98903857421875,-0.0024588557425886393,-0.0002369992434978485,0.000022208085283637047
1761317042724021800,1.999021728515625,0.0012934060068801045,0.0011234264820814133,-0.00035360013134777546
1761317042734004500,2.00900439453125,-0.001246450818143785,-0.0035594759974628687,0.0008432245813310146
1761317042743986700,2.018986572265625,-0.0013880060287192464,-0.0028455357532948256,0.0017103904392570257
1761317042753969700,2.0289697265625,-0.0016569852596148849,0.00143735995516181,0.0015639166813343763
1761317042763952400,2.038952392578125,0.0005118191475048661,0.002021247986704111,0.0009536294965073466
1761317042773935600,2.048935546875,-0.00028606399428099394,-0.0002024914138019085,0.0007746650371700525
1761317042783918600,2.058918701171875,0.0008774282177910209,0.00012094061821699142,0.000993281719274819
1761317042793901600,2.068901611328125,0.0011229716474190354,0.0012362725101411343,-0.0006512203253805637
1761317042803883500,2.078883544921875,-0.0002892465563490987,0.002975808922201395,-0.0002868345472961664
1761317042813866500,2.088866455078125,0.0008282159687951207,0.0012141279876232147,0.002328922040760517
1761317042823849700,2.098849609375,-0.0018303770339116454,0.001057053916156292,-0.002335560042411089
1761317042833832400,2.10883251953125,0.0004996225470677018,-0.0012761414982378483,0.002060253405943513
1761317042843815700,2.118815673828125,0.00012300850357860327,0.0009712940081954002,0.000055328477174043655
1761317042853798700,2.128798583984375,-0.0012882004957646132,0.0009928657673299313,-0.0005026038270443678
1761317042863780600,2.138780517578125,-0.0005918191745877266,0.0001694774255156517,0.0002814987674355507
1761317042873763600,2.148763671875,-0.00012603227514773607,0.0008304738439619541,0.0004042705986648798
1761317042883746600,2.15874658203125,0.0007530407747253776,-0.0004518548958003521,0.0025766545441001654
1761317042893729800,2.168729736328125,-0.0024313009344041348,-0.000782619696110487,-0.000014068558812141418
1761317042903712500,2.17871240234375,-0.0006231157458387315,-0.0010271170176565647,0.001687353360466659
1761317042913695500,2.188695556640625,-0.00002496980596333742,-0.00015866011381149292,-0.0020248268265277147
1761317042923677700,2.198677734375,-0.001407552626915276,-0.0014555472880601883,-0.000709156971424818
1761317042933660400,2.208660400390625,0.0007442815694957972,0.00004434492439031601,0.0016788996290415525
1761317042943643600,2.2186435546875,-0.0006529553793370724,0.00000125030055642128,-0.001896510599181056
1761317042953626600,2.228626708984375,-0.001006090547889471,-0.0013803979381918907,0.001444957684725523
1761317042963609600,2.238609619140625,-0.000988975865766406,-0.001976278144866228,0.0017118372488766909
1761317042973592600,2.248592529296875,-0.0016132208984345198,-0.0008106124587357044,0.0013280757702887058
1761317042983575600,2.258575439453125,0.002026689238846302,0.000672302208840847,0.00044119986705482006
1761317042993557800,2.268557861328125,0.0002343817614018917,-0.0016694152727723122,0.00083934236317873
1761317043003540500,2.27854052734375,0.0021290495060384274,-0.0019509873818606138,0.0015805118018761277
1761317043013523500,2.2885234375,-0.00021879328414797783,0.00048074498772621155,0.0004278956912457943
1761317043023506700,2.298506591796875,-0.0013294100062921643,-0.0005460483953356743,0.0007373914122581482
1761317043033489700,2.30848974609375,-0.0006702776299789548,-0.0008493824861943722,-0.0008091062773019075
1761317043043472600,2.31847265625,-0.0017736047739163041,-0.0016176644712686539,-0.0010859612375497818
1761317043053454600,2.32845458984375,-0.0008247204241342843,-0.0029662889428436756,-0.0001756926067173481
1761317043063437800,2.338437744140625,-0.0003775621298700571,-0.00001797545701265335,0.0024231437128037214
1761317043073420500,2.348420654296875,0.0010171352187171578,0.0007277093827724457,-0.0011433614417910576
1761317043083403500,2.358403564453125,0.0005588182248175144,0.0007668863981962204,0.0003859950229525566
1761317043093386800,2.36838671875,-0.0016034021973609924,-0.0003124927170574665,-0.0013945943210273981
1761317043103369700,2.37836962890625,-0.0004156877985224128,0.0011290386319160461,0.00023301783949136734
1761317043113351700,2.3883515625,-0.000027665169909596443,0.0032379962503910065,-0.00042984308674931526
1761317043123334700,2.398334716796875,-0.0016248967731371522,-0.0008352892473340034,0.002514670370146632
1761317043133317600,2.408317626953125,-0.0004994448972865939,-0.0010675168596208096,-0.0011961781419813633
1761317043143300600,2.418300537109375,0.0005578489508479834,-0.000419416930526495,0.0014417720958590508
1761317043153283600,2.42828369140625,-0.0018517791759222746,0.0005385219119489193,0.0029174296651035547
1761317043163266600,2.4382666015625,0.0007252241484820843,-0.0022843696642667055,0.002759799361228943
1761317043173248500,2.44824853515625,-0.0037992203142493963,-0.0017032679170370102,0.0008425896521657705
1761317043183231500,2.4582314453125,-0.0008899542153812945,-0.0038236055988818407,0.0013270924100652337
1761317043193214700,2.468214599609375,-0.0009322984842583537,0.0021155094727873802,-0.0022311571519821882
1761317043203197700,2.47819775390625,-0.0006449346547015011,-0.0016008499078452587,-0.0021132100373506546
1761317043213180400,2.488180419921875,0.0010440421756356955,-0.0007409150712192059,0.0014274624409154058
1761317043223163600,2.49816357421875,-0.0009631194407120347,-0.0008856626227498055,0.000007093185558915138
1761317043233145600,2.5081455078125,0.002062231535091996,-0.0004904498346149921,-0.0018909415230154991
1761317043243128600,2.518128662109375,-0.0009973545093089342,0.0007328060455620289,-0.00035827234387397766
1761317043253111600,2.528111572265625,-0.0005608624778687954,-0.0005516367964446545,-0.000035497359931468964
1761317043263094800,2.5380947265625,0.0005467153387144208,0.00016253534704446793,-0.0013376502320170403
1761317043273077500,2.548077392578125,-0.0006772735505364835,-0.001690492033958435,-0.00012271618470549583
1761317043283060500,2.558060546875,-0.001039515482261777,0.00006510736420750618,0.0015464675379917026
1761317043293043700,2.568043701171875,0.00028567342087626457,0.0022017615847289562,0.0017728363163769245
1761317043303025400,2.578025390625,0.0009086392819881439,-0.0008588037453591824,-0.0012675279285758734
1761317043313008600,2.588008544921875,0.004093780182301998,0.003010236658155918,0.0014425048138946295
1761317043322991600,2.59799169921875,0.00009057263378053904,0.0016549904830753803,-0.0010617920197546482
1761317043332974600,2.607974609375,0.00032306660432368517,-0.002434027148410678,0.0028208305593580008
1761317043342957600,2.61795751953125,-0.0008069564355537295,0.0012582531198859215,0.0028931512497365475
1761317043352940500,2.6279404296875,0.0020761818159371614,0.004363499116152525,-0.001529294066131115
1761317043362922800,2.6379228515625,-0.000630789902061224,0.0017927829176187515,0.002757026581093669
1761317043372905500,2.647905517578125,-0.0013346633641049266,0.000041754450649023056,-0.00101241166703403
1761317043382888400,2.657888427734375,0.0007105363765731454,0.00025271764025092125,-0.00018167751841247082
1761317043392871700,2.66787158203125,-0.0003683102549985051,0.0008141119033098221,-0.0001800796017050743
1761317043402854700,2.677854736328125,0.0003086408833041787,0.00046534882858395576,0.0007222919957712293
1761317043412837600,2.687837646484375,0.002141428180038929,0.0003415117971599102,0.0010567849967628717
1761317043422819600,2.697819580078125,0.001404529088176787,-0.0007303184829652309,-0.00010929722338914871
1761317043432802600,2.707802490234375,0.0016018693568184972,0.0003767572343349457,-0.0000429847277700901
1761317043442785800,2.717785888671875,-0.0023734120186418295,-0.0006458507850766182,0.0016758865676820278
1761317043452768800,2.727768798828125,0.000284689012914896,-0.00007540173828601837,-0.0021960833109915257
1761317043462751700,2.737751708984375,-0.0005333854351192713,-0.0007947324775159359,-0.0005641051102429628
1761317043472735000,2.74773486328125,0.000832816120237112,-0.0017220452427864075,-0.0010128477588295937
1761317043482716700,2.757716552734375,0.0005390755832195282,0.0007636738009750843,-0.0011584877502173185
1761317043492700000,2.767699951171875,-0.0013307296903803945,-0.0014270427636802197,-0.00091933598741889
1761317043502683000,2.777682861328125,-0.0004211977357044816,5.722977221012115e-7,-0.001982755959033966
1761317043512665900,2.787665771484375,0.0009503302862867713,0.0023926240392029285,-0.00029644230380654335
1761317043522648800,2.79764892578125,0.0013300830032676458,-0.0010752207599580288,0.00035408674739301205
1761317043532631800,2.8076318359375,-0.0015362771227955818,-0.00043632881715893745,0.0010395844001322985
1761317043542613800,2.81761376953125,-0.0005823593819513917,-0.002163008553907275,-0.00021879817359149456
1761317043552596700,2.8275966796875,0.0006506842328235507,0.0007126727141439915,0.0007729630451649427
1761317043562580000,2.837580078125,-0.0019574856851249933,-0.0011134743690490723,0.000033989083021879196
1761317043572563000,2.84756298828125,-0.00044294598046690226,0.0014492855407297611,0.0010145650012418628
1761317043582545700,2.857545654296875,-0.00017894036136567593,-0.001230205874890089,-0.0015463707968592644
1761317043592529000,2.86752880859375,-0.0006907998467795551,0.0013184393756091595,0.0000611133873462677
1761317043602512000,2.877511962890625,0.000176000758074224,-0.0002274438738822937,0.0011052681365981698
1761317043612493800,2.887493896484375,0.0008886627620086074,-0.0005853725597262383,0.0006807602476328611
1761317043622476800,2.897476806640625,-0.0006786233279854059,-0.00009536603465676308,-0.0025512801948934793
1761317043632459800,2.907459716796875,0.0008561564609408379,0.0019472786225378513,-0.00011342274956405163
1761317043642443000,2.917443115234375,0.000952197122387588,0.0014810464344918728,0.0022174199111759663
1761317043652425700,2.92742578125,-0.0003160001942887902,-0.0010127373971045017,0.0018826606683433056
1761317043662408700,2.93740869140625,0.0014877237845212221,0.0024921009317040443,-0.0009092134423553944
1761317043672391000,2.947390869140625,-0.0009216379257850349,0.00019911956042051315,-0.0009283882100135088
1761317043682374000,2.957373779296875,0.00034669169690459967,0.000651113223284483,-0.0020183154847472906
1761317043692356900,2.96735693359375,-0.0006032577948644757,0.00025110645219683647,-0.0007386666256934404
1761317043702339800,2.97733984375,-0.0008668883820064366,0.0006013475358486176,0.0015432655345648527
1761317043712323000,2.987322998046875,0.001265771104954183,0.0011528879404067993,0.00031368411146104336
1761317043722305800,2.997305908203125,0.0011548526817932725,0.001119227148592472,0.0013565855333581567
1761317043732288000,3.0072880859375,0.0004541749367490411,0.0012747556902468204,0.0011355432216078043
1761317043742271000,3.01727099609375,-0.0003002546727657318,-0.001030458603054285,0.0004527017008513212
1761317043752253700,3.027253662109375,0.00008270784746855497,-0.0002530817873775959,0.0013749543577432632
1761317043762237000,3.03723681640625,-0.001548136118799448,-0.0009666299447417259,0.00037512416020035744
1761317043772220000,3.047219970703125,-0.0017324269283562899,0.0005636224523186684,-0.0008286244701594114
1761317043782203000,3.057202880859375,-0.0013762952294200659,-0.0011920267716050148,0.0009925727499648929
1761317043792184800,3.067184814453125,-0.0007123692193999887,-0.0013462239876389503,-0.0007246334571391344
1761317043802167800,3.077167724609375,0.003194257151335478,-0.00009705964475870132,0.0004026868846267462
1761317043812151000,3.087151123046875,-0.0008713247952982783,-0.0005676401779055595,0.0022748890332877636
1761317043822133800,3.0971337890625,0.0020791147835552692,0.0018041310831904411,-0.003331306856125593
1761317043832116700,3.10711669921875,-0.0007688695332035422,-0.00043185893446207047,0.0023529441095888615
1761317043842100000,3.117099853515625,-0.0006133407587185502,0.0010923640802502632,0.0006278345827013254
1761317043852083000,3.1270830078125,0.0014117269311100245,-0.0017313857097178698,-0.002012689830735326
1761317043862065000,3.13706494140625,0.00018495332915335894,0.0009033423848450184,0.000021675601601600647
1761317043872047900,3.1470478515625,0.00024913542438298464,0.003639739938080311,0.00026322435587644577
1761317043882030800,3.15703076171875,0.0020993989892303944,0.000979958102107048,0.0009984836215153337
1761317043892013800,3.167013916015625,0.0015233572339639068,0.00038234516978263855,0.0005193810211494565
1761317043901996800,3.176996826171875,-0.0004253706429153681,-0.00012652482837438583,-0.00043841428123414516
1761317043911980000,3.18697998046875,0.00019807531498372555,0.0013163755647838116,-0.00010658428072929382
1761317043921961700,3.196961669921875,-0.0021098002325743437,0.0013149152509868145,0.0014597451081499457
1761317043931945000,3.206945068359375,-0.0017252397956326604,0.00007414817810058594,0.0009974202839657664
1761317043941928000,3.216927978515625,0.0009441584115847945,0.000755219254642725,0.0005098937544971704
1761317043951910700,3.22691064453125,-0.0003890200750902295,0.0026668356731534004,-0.0004357947036623955
1761317043961894000,3.236893798828125,0.001215349417179823,0.0019434485584497452,-0.0020034825429320335
1761317043971876900,3.246876953125,-0.000563908601179719,-0.0009596636518836021,-0.0016104001551866531
1761317043981859000,3.256859130859375,0.0005483175627887249,0.001492481678724289,-0.0015984736382961273
1761317043991841800,3.266841796875,-0.0005987059557810426,-0.0017054423224180937,-0.0020698532462120056
1761317044001824800,3.27682470703125,0.0006393225630745292,0.00047847628593444824,-0.00004488951526582241
1761317044011808000,3.28680810546875,0.0020217695273458958,-0.0009686853736639023,-0.0019399949815124273
1761317044021790700,3.296790771484375,0.0003296881914138794,-0.00033538881689310074,-0.0008093265350908041
1761317044031773700,3.306773681640625,-0.0005057454109191895,-0.00021368218585848808,0.001531858230009675
1761317044041756000,3.316755859375,-0.00003706454299390316,0.0007110824808478355,-0.0017697378061711788
1761317044051738600,3.326738525390625,0.0015722837997600436,0.00031933141872286797,0.0005333640147000551
1761317044061721900,3.336721923828125,-0.0018754071788862348,-0.0015615951269865036,-0.0006262434180825949
1761317044071704800,3.346704833984375,0.0008498056558892131,0.00025228410959243774,0.0008467509178444743
1761317044081687800,3.356687744140625,-0.0003501663450151682,0.0017217542044818401,0.001679862616583705
1761317044091670800,3.3666708984375,0.0004788758233189583,-0.00015337765216827393,0.0012095484416931868
1761317044101652700,3.37665283203125,0.0008402866078540683,-0.0023271124809980392,-0.0018518278375267982
1761317044111636000,3.386635986328125,0.0016051464481279254,0.003483638633042574,-0.00027470383793115616
1761317044121618700,3.39661865234375,-0.0015381332486867905,-0.0006120102480053902,0.0007370348321273923
1761317044131602000,3.406601806640625,0.0031186705455183983,-0.0004716613329946995,-0.001271521206945181
1761317044141585000,3.4165849609375,0.0033838595263659954,0.0003244481049478054,0.0006642530206590891
1761317044151568000,3.42656787109375,0.0010453378781676292,0.002096249256283045,-0.00035467231646180153
1761317044161550800,3.43655078125,-0.0003116002772003412,0.0007474920712411404,-0.0006501562893390656
1761317044171532800,3.44653271484375,-0.0022719530388712883,-0.0007057948969304562,0.0002193658147007227
1761317044181516000,3.45651611328125,0.000686215702444315,0.0005614189431071281,-0.00001938524655997753
1761317044191498800,3.466498779296875,0.0020465583074837923,0.0007281326688826084,-0.0002619992010295391
1761317044201481700,3.476481689453125,0.0015135324792936444,0.00005503883585333824,-0.000839524669572711
1761317044211465000,3.48646484375,-0.0007964934920892119,0.0015751714818179607,0.0005551727954298258
1761317044221448000,3.496447998046875,0.00012883392628282309,0.0006869160570204258,-0.0017328874673694372
1761317044231430000,3.506429931640625,0.0004910238785669208,0.0025977343320846558,-0.0022511386778205633
1761317044241412900,3.516412841796875,-0.0014953551581129432,-0.0016245096921920776,-0.0010031659621745348
1761317044251395800,3.526395751953125,-0.001631442690268159,0.0008692741394042969,-0.0016822719480842352
1761317044261378800,3.53637890625,0.0029325997456908226,-0.0005039181560277939,-0.0006978118326514959
1761317044271361800,3.54636181640625,-0.00005813036113977432,0.0014010407030582428,-0.0018746624700725079
1761317044281344800,3.5563447265625,-0.0005999861168675125,0.0003013075329363346,0.0018612687708809972
1761317044291326700,3.56632666015625,-0.002038625767454505,-0.0003871195949614048,-0.0021995194256305695
1761317044301309700,3.576309814453125,0.00140905671287328,-0.00020306091755628586,0.0008720023324713111
1761317044311293000,3.58629296875,-0.0003528906963765621,-0.0006387541070580482,0.0004829145036637783
1761317044321276000,3.59627587890625,0.002534337807446718,0.0003212364390492439,0.0017941843252629042
1761317044331259000,3.6062587890625,-0.0007890209089964628,0.00046904152259230614,-0.0011331622954457998
1761317044341241900,3.616241943359375,0.001248001353815198,-0.004528556019067764,0.0008913024794310331
1761317044351224000,3.62622412109375,-0.0008332591387443244,-0.0017551397904753685,-0.0018687974661588669
1761317044361206800,3.636206787109375,0.0021114153787493706,0.0013531092554330826,-0.00011819927021861076
1761317044371189800,3.646189697265625,-0.002679611323401332,0.0013067703694105148,0.00148449104744941
1761317044381173000,3.656173095703125,0.0002517047105357051,0.00006814347580075264,-0.00016646157018840313
1761317044391156000,3.666156005859375,0.0014714326243847609,0.002179764211177826,0.0001765536144375801
1761317044401138700,3.676138671875,0.00022926356177777052,0.0006625275127589703,0.0010889347176998854
1761317044411121000,3.686120849609375,0.0013690965715795755,0.00010566040873527527,-0.0011502511333674192
1761317044421103900,3.696103759765625,0.00010059436317533255,0.0023375488817691803,0.0008751378627493978
1761317044431086800,3.7060869140625,-0.001997976563870907,-0.0002997792325913906,0.0017880694940686226
1761317044441069800,3.71606982421875,0.0004126655403524637,0.0018393611535429955,-0.000485024182125926
1761317044451052500,3.726052490234375,-0.0011977478861808777,0.0005088462494313717,-0.0009295057971030474
1761317044461035800,3.736035888671875,0.0017529178876429796,0.0011793631128966808,-0.0013200792018324137
1761317044471017700,3.746017822265625,0.0019230940379202366,0.0006595142185688019,-0.0006473646499216557
1761317044481000700,3.756000732421875,-0.0005691035185009241,0.0010552783496677876,-0.00047578010708093643
1761317044490983700,3.765983642578125,-0.000893210235517472,-0.0014371741563081741,0.0004336894489824772
1761317044500967000,3.775966796875,0.00043598294723778963,0.0007838443852961063,0.0011911265319213271
1761317044510949600,3.78594970703125,-0.0010809535160660744,-0.0012425552122294903,-0.0009279507212340832
1761317044520932600,3.7959326171875,0.00006523914635181427,-0.0003336481750011444,0.002116456860676408
1761317044530915800,3.805915771484375,0.0010777730494737625,0.00026449793949723244,0.0026035490445792675
1761317044540897800,3.815897705078125,0.0001924204407259822,0.0004722531884908676,0.002030779141932726
1761317044550880800,3.825880859375,0.0015708727296441793,-0.001261198427528143,-0.0011197403073310852
1761317044560863700,3.83586376953125,-0.0013498070184141397,-0.00007756194099783897,-0.00013334350660443306
1761317044570846700,3.8458466796875,0.00015993905253708363,-0.001626456156373024,0.00016759359277784824
1761317044580829700,3.85582958984375,-0.0005575138493441045,-0.0012916196137666702,0.0000018428545445203781
1761317044590812700,3.865812744140625,0.00029736082069575787,-0.0008628503419458866,-0.0006154777947813272
1761317044600795000,3.875794921875,-0.002573121804744005,-0.0023786923848092556,0.0005618594586849213
1761317044610777600,3.885777587890625,-0.0014543278375640512,-0.0025597871281206608,0.003128614043816924
1761317044620760600,3.895760498046875,-0.0009523998596705496,-0.00024307752028107643,0.0008109839400276542
1761317044630743800,3.905743896484375,-0.0023180688731372356,0.0006956867873668671,-0.0020308750681579113
1761317044640726800,3.915726806640625,-0.0003555529983714223,0.0007754466496407986,0.0016827351646497846
1761317044650709500,3.92570947265625,0.00174594740383327,0.0003336281515657902,0.002543735085055232
1761317044660691700,3.935691650390625,-0.000015146681107580662,-0.0005609719082713127,0.0009861646685749292
1761317044670674700,3.9456748046875,0.0016575846821069717,0.0030926186591386795,-0.00036538951098918915
1761317044680657700,3.95565771484375,0.000004976056516170502,-0.00013101426884531975,-0.0004326431080698967
1761317044690640600,3.965640625,0.0010231025516986847,0.0010916427709162235,0.0013271737843751907
1761317044700624000,3.975623779296875,-0.00028688088059425354,0.0006312127225100994,0.004069589078426361
1761317044710606800,3.98560693359375,0.00010433746501803398,0.0004948587156832218,-0.0001283516176044941
1761317044720588800,3.9955888671875,-0.0009859849233180285,0.001975360792130232,-0.0011237275321036577
1761317044730571800,4.00557177734375,-0.0010839891619980335,0.000591848511248827,0.00004113907925784588
1761317044740554800,4.0155546875,0.001024845172651112,-0.0002655182033777237,-0.0020851530134677887
1761317044750537700,4.025537841796875,-0.00040367443580180407,-0.000457265879958868,0.0011660339077934623
1761317044760520700,4.035520751953125,-0.0003984711365774274,0.0009070653468370438,-0.0018491495866328478
1761317044770503700,4.045503662109375,0.00042870675679296255,0.0010317014530301094,-0.003182061715051532
1761317044780485600,4.055485595703125,0.00016338611021637917,-0.0011823885142803192,-0.0021373131312429905
1761317044790468600,4.065468505859375,0.000409728498198092,0.00016969861462712288,0.001527196611277759
1761317044800451800,4.075451904296875,-0.0006134413415566087,0.001121958252042532,-0.0007851212285459042
1761317044810434800,4.085434814453125,0.0007998982910066843,0.00018532434478402138,0.0004910656716674566
1761317044820417500,4.09541748046875,-0.0009512457181699574,0.000021977350115776062,-0.002695556962862611
1761317044830400800,4.10540087890625,-0.0011469880118966103,-0.0020715335849672556,0.0015694956528022885
1761317044840382700,4.1153828125,-0.001353507861495018,-0.0005289199762046337,0.00198360369540751
1761317044850365700,4.12536572265625,0.0009195002494379878,-0.0020008492283523083,-0.00025185360573232174
1761317044860348700,4.1353486328125,-0.0001806349027901888,-0.001997946994379163,0.0003162701614201069
1761317044870331600,4.14533154296875,0.0007288346532732248,0.0003757285885512829,0.00002598576247692108
1761317044880315000,4.15531494140625,0.0005863428814336658,-0.0020991149358451366,0.001834752969443798
1761317044890297600,4.165297607421875,-0.0010059610940515995,-0.0026866081170737743,0.0017732339911162853
1761317044900280800,4.17528076171875,0.0006126551888883114,-0.0017895761411637068,-0.0010830850806087255
1761317044910262800,4.1852626953125,-0.0004880293272435665,-0.000248937401920557,-0.00022022100165486336
1761317044920245800,4.195245849609375,-0.0009963251650333405,-0.0017804084345698357,0.0008234952110797167
1761317044930228700,4.205228759765625,-0.0007521132356487215,0.0011139148846268654,0.00038593774661421776
1761317044940211700,4.215211669921875,0.0007941813673824072,-0.0006467113271355629,-0.0012917914427816868
1761317044950195000,4.22519482421875,-0.0009091764804907143,0.0006225514225661755,0.0018294332548975945
1761317044960177700,4.235177734375,0.0010143173858523369,0.0012829913757741451,-0.0012841285206377506
1761317044970159900,4.245159912109375,0.002134176669642329,-0.0008432767353951931,-0.002617573132738471
1761317044980142800,4.255142822265625,0.0003889513900503516,0.0026746620424091816,0.0005790579598397017
1761317044990125600,4.26512548828125,-0.00027870305348187685,0.00016969256103038788,-0.00036902748979628086
1761317045000108800,4.27510888671875,-0.001267450163140893,0.0013525299727916718,0.001633496955037117
1761317045010091800,4.285091796875,0.0009110155515372753,0.0011503961868584156,0.000007903436198830605
1761317045020074800,4.29507470703125,0.0007746710907667875,-0.001232681330293417,0.0028633764013648033
1761317045030056700,4.305056640625,-0.00042215362191200256,0.00007093604654073715,0.0011488334275782108
1761317045040039700,4.315039794921875,0.0016653717029839754,-0.0007029394619166851,0.0013627879088744521
1761317045050023000,4.32502294921875,0.001812910893931985,-0.0013503539375960827,-0.00022818450815975666
1761317045060005600,4.335005615234375,-0.0018767258152365685,-0.0006582741625607014,0.0016404463676735759
1761317045069988600,4.344988525390625,0.0003060009330511093,0.0003779619000852108,-0.0006019352003931999
1761317045079971800,4.354971923828125,-0.0027467012405395508,0.00030494993552565575,-0.001050816848874092
1761317045089953500,4.36495361328125,0.001593985129147768,0.0004735277034342289,0.00045706494711339474
1761317045099936800,4.374936767578125,-0.000007405993528664112,-0.001295966561883688,-0.0008736441377550364
1761317045109919700,4.384919677734375,-0.0013866571243852377,0.000006052665412425995,-0.0014398321509361267
1761317045119902700,4.39490283203125,-0.00034230470191687346,0.001331001054495573,-0.001121101900935173
1761317045129885700,4.4048857421875,-0.0008126188768073916,-0.0005728928372263908,-0.0018382910639047623
1761317045139868700,4.41486865234375,0.00010862387716770172,-0.0005605220794677734,0.0004387663211673498
1761317045149851000,4.424850830078125,-0.002641089726239443,0.00008795782923698425,0.001953838625922799
1761317045159833600,4.43483349609375,-0.00014175521209836006,-0.001388557255268097,0.00018806499429047108
1761317045169816800,4.44481689453125,-0.000587834685575217,0.00003783171996474266,-0.0010817302390933037
1761317045179799800,4.4547998046875,0.0006276584463194013,0.0018919617868959904,0.0011743323411792517
1761317045189782500,4.464782470703125,0.0013547014677897096,0.0009745024144649506,-0.00044540222734212875
1761317045199765800,4.474765869140625,0.00023504020646214485,0.001073632389307022,0.00004191766493022442
1761317045209747700,4.484747802734375,-0.0016217157244682312,-0.0018225552048534155,0.00009225145913660526
1761317045219730700,4.494730712890625,-0.0010804783087223768,0.0036780801601707935,-0.0017208829522132874
1761317045229713700,4.504713623046875,0.001462840475142002,0.000706525519490242,-0.0007749283686280251
1761317045239696600,4.514696533203125,0.0005206317873671651,-0.000034632161259651184,0.0016934279119595885
1761317045249680000,4.524679931640625,-0.0015675529139116406,-0.0010042893700301647,0.0003940716851502657
1761317045259662600,4.53466259765625,0.0012120164465159178,0.0033410657197237015,0.0015599201433360577
1761317045269645600,4.5446455078125,-0.0009251704323105514,0.0011346368119120598,-0.003003406338393688
1761317045279627800,4.554627685546875,0.0031023905612528324,0.0004918291233479977,-0.0037560160271823406
1761317045289610800,4.56461083984375,0.0007790486561134458,0.0003895638510584831,0.0009575126459822059
1761317045299593700,4.57459375,0.00048052717465907335,0.0010041436180472374,0.0018653689185157418
1761317045309576700,4.58457666015625,0.0019857455044984818,-0.0005713826976716518,-0.00035810424014925957
1761317045319560000,4.594559814453125,0.0007162601687014103,0.001993495039641857,0.0008659249870106578
1761317045329542700,4.604542724609375,0.0013841809704899788,-0.0006140060722827911,-0.001941579394042492
1761317045339524900,4.61452490234375,-0.0000662259990349412,-0.0013650157488882542,0.0019997763447463512
1761317045349507800,4.6245078125,0.0012136893346905708,0.0013111946173012257,-0.0015283795073628426
1761317045359490600,4.634490478515625,0.0006645303219556808,0.0007909578271210194,-0.0021079343277961016
1761317045369473800,4.644473876953125,8.705537766218185e-7,-0.0008335704915225506,0.00035415799356997013
1761317045379456800,4.654456787109375,-0.000421523698605597,0.00023809261620044708,-0.0009223371744155884
1761317045389439700,4.664439697265625,0.0014573364751413465,-0.0023251997772604227,0.0007972659077495337
1761317045399421700,4.674421630859375,-0.0009934140834957361,-0.0018531223759055138,-0.00024807220324873924
1761317045409404700,4.68440478515625,0.0009371114429086447,0.0018079252913594246,0.00024434644728899
1761317045419388000,4.694387939453125,-0.0006890868535265326,-0.0030876623932272196,-0.001386495539918542
1761317045429370600,4.70437060546875,-0.001570593100041151,0.000011990778148174286,-0.0002357435878366232
1761317045439353900,4.714353759765625,-0.0007255529635585845,0.0011302274651825428,0.0011528200702741742
1761317045449336800,4.7243369140625,-0.0014523296849802136,0.0012157149612903595,-0.00017396663315594196
1761317045459318800,4.73431884765625,-0.0002169688232243061,-0.0028372984379529953,-0.00042332173325121403
1761317045469302000,4.744302001953125,0.0008301860652863979,-0.004994991235435009,-0.0019320023711770773
1761317045479284700,4.75428466796875,0.0014973505167290568,0.0019519645720720291,0.0003926760982722044
1761317045489267700,4.764267822265625,0.0006416769465431571,0.0016345158219337463,0.0006456765113398433
1761317045499251000,4.7742509765625,-0.0018746283603832126,0.0026408075354993343,0.001198360463604331
1761317045509234000,4.78423388671875,-0.0008935198420658708,-0.00037415744736790657,0.0017320578917860985
1761317045519215900,4.7942158203125,-0.0005402361857704818,0.0005814549513161182,-0.0022268001921474934
1761317045529198800,4.80419873046875,-0.0006877753185108304,0.0009529660455882549,-0.0006667203269898891
1761317045539181800,4.814181884765625,-0.000029847025871276855,0.0014116098172962666,0.0006515133427456021
1761317045549164800,4.824164794921875,0.0005065136356279254,0.0006033405661582947,0.000031795818358659744
1761317045559147800,4.834147705078125,0.00005842302925884724,-0.001738253515213728,0.0011563007719814777
1761317045569131000,4.844131103515625,-0.0004824649076908827,-0.0017662167083472013,-0.00012734276242554188
1761317045579112700,4.85411279296875,0.0032886494882404804,0.0011811847798526287,-0.00021289894357323647
1761317045589096000,4.864095947265625,-0.0014962521381676197,-0.0013187243603169918,0.0002102772705256939
1761317045599079000,4.874078857421875,-0.0008084365399554372,-0.0006443364545702934,0.0017877856735140085
1761317045609062000,4.884061767578125,0.0004951807204633951,-0.00040518445894122124,-0.001012528082355857
1761317045619044900,4.894044921875,-0.00038179801777005196,-0.000782268587499857,-0.0007727616466581821
1761317045629027800,4.90402783203125,0.0009625655366107821,-0.00009464006870985031,0.000536714680492878
1761317045639010000,4.914010009765625,-0.001544611412100494,0.0008469647727906704,0.0008592369267717004
1761317045648992800,4.92399267578125,0.0009899188298732042,-0.0028146153781563044,0.00045177340507507324
1761317045658975700,4.933975830078125,0.0010311704827472568,0.000841185450553894,-0.0001120253000408411
1761317045668959000,4.943958984375,-0.0005832377355545759,0.0022635795176029205,-0.0012185685336589813
1761317045678942000,4.95394189453125,-0.0023793349973857403,-0.0006542103365063667,0.00005991733632981777
1761317045688924700,4.963924560546875,-0.0013446968514472246,0.0006536678411066532,-0.0017670111265033484
1761317045698908000,4.973907958984375,-0.0011719624744728208,0.0002824808470904827,-0.0010890418197959661
1761317045708889900,4.983889892578125,-0.0010875402949750423,-0.0023354063741862774,0.0012803724966943264
1761317045718872800,4.993872802734375,0.0008952626958489418,-0.002042313339188695,0.0007070474093779922
1761317045728855800,5.003855712890625,-0.001847260631620884,-0.0002737077884376049,0.00022075418382883072
1761317045738838800,5.0138388671875,0.0016592016909271479,-0.0018803128041327,0.00033420510590076447
1761317045748821800,5.02382177734375,-0.0018180877668783069,0.0013516992330551147,0.00104127440135926
1761317045758804700,5.0338046875,-0.0008370265131816268,-0.00038029858842492104,0.0016683954745531082
1761317045768787000,5.043786865234375,-0.000655931537039578,-0.0013254540972411633,0.0004705057945102453
1761317045778770000,5.05377001953125,-0.00121662940364331,0.0031383568421006203,0.00027300650253891945
1761317045788753000,5.0637529296875,0.00045876530930399895,0.0005042245611548424,0.002966527594253421
1761317045798736000,5.07373583984375,0.0006002445006743073,-0.00043465523049235344,-0.001676695654168725
1761317045808718800,5.08371875,0.00015070289373397827,0.0007680286653339863,-0.0002649538218975067
1761317045818701800,5.093701904296875,0.0006823950679972768,0.00020763790234923363,-0.0022578928619623184
1761317045828683800,5.103683837890625,0.0014629674842581153,0.0016827629879117012,-0.00038995174691081047
1761317045838667000,5.1136669921875,0.0007333402754738927,-0.0022771297954022884,-0.00002017570659518242
1761317045848649700,5.123649658203125,0.00004091847222298384,0.001084045972675085,-0.0010004853829741478
1761317045858632700,5.1336328125,-0.0014148587360978127,0.000008063390851020813,0.002972659422084689
1761317045868616000,5.143615966796875,-0.0017360359197482467,0.0010762573219835758,-0.0012047749478369951
1761317045878599000,5.153598876953125,0.000002668239176273346,-0.0003704633563756943,-0.0018864467274397612
1761317045888580900,5.163580810546875,0.0013459667097777128,-0.0015917890705168247,0.001113337930291891
1761317045898563800,5.173563720703125,-0.002436261624097824,-0.0033767574932426214,-0.0009761664550751448
1761317045908546800,5.183546875,-0.0006114637944847345,0.001221989281475544,-0.0022755225654691458
1761317045918529800,5.19352978515625,-0.0014061842812225223,-0.00017914455384016037,0.0000837340485304594
1761317045928512800,5.2035126953125,-0.001854926929809153,-0.00011789146810770035,-0.00036980235017836094
1761317045938496000,5.21349609375,-0.00022880150936543941,0.001124892383813858,-0.00020982325077056885
1761317045948477700,5.223477783203125,0.0005195466801524162,-0.0022314894013106823,-0.0014303498901426792
1761317045958461000,5.2334609375,0.00046896119602024555,-0.0020296270959079266,-0.0014233896508812904
1761317045968444000,5.24344384765625,-0.0010738079436123371,-0.00005356175824999809,0.0012075473787263036
1761317045978427000,5.253427001953125,-0.004106419626623392,-0.000700569711625576,0.0001934603787958622
1761317045988409900,5.263409912109375,0.0029778550378978252,0.0011511263437569141,0.0010419435566291213
1761317045998392800,5.273392822265625,-0.002090246882289648,-0.0034111649729311466,-0.0017546263989061117
1761317046008375000,5.283375,0.0011936969822272658,0.001424602698534727,0.0017239945009350777
1761317046018357800,5.293357666015625,0.0011766067473217845,-0.000965924933552742,0.0014858386712148786
1761317046028340700,5.3033408203125,0.0019124381942674518,0.0020876554772257805,0.00040965527296066284
1761317046038324000,5.313323974609375,-0.0019518480403348804,0.0012798979878425598,-0.001223800703883171
1761317046048307000,5.323306884765625,-0.0006905749323777854,-0.0006434367969632149,-0.002420891774818301
1761317046058289700,5.33328955078125,-0.001272947178222239,0.0009511807002127171,0.00171906768810004
1761317046068273000,5.34327294921875,0.0004458570620045066,-0.00015269964933395386,0.00018988060764968395
1761317046078254800,5.3532548828125,-0.0006698878714814782,0.0006417380645871162,-0.0027226086240261793
1761317046088237800,5.36323779296875,0.001083537470549345,0.0011530648916959763,0.0018010367639362812
1761317046098220800,5.373220703125,0.0019083302468061447,0.0007542730309069157,-0.000519677298143506
1761317046108203800,5.383203857421875,-0.00011407420970499516,0.0003822292201220989,-0.0009023735765367746
1761317046118187000,5.39318701171875,0.0021796044893562794,-0.00014372076839208603,0.0008844017283990979
1761317046128169700,5.403169677734375,-0.0020484300330281258,-0.0005961917340755463,0.0005443160189315677
1761317046138152000,5.41315185546875,0.0005937349051237106,0.00046803057193756104,-0.0008594195824116468
1761317046148135000,5.423135009765625,-0.0008763299556449056,-0.001102701760828495,0.0009006636682897806
1761317046158118000,5.433117919921875,-0.001824170583859086,-0.0030483982991427183,0.0001613600179553032
1761317046168100900,5.443100830078125,-0.0006459880387410522,-0.0020473161712288857,-0.001242391997948289
1761317046178083800,5.453083740234375,0.0006277702050283551,-0.000028330832719802856,-0.00012534554116427898
1761317046188067000,5.463067138671875,-0.000529639539308846,-0.0008525792509317398,0.0006035617552697659
1761317046198048800,5.473048828125,-0.002100775483995676,-0.0008604614995419979,-0.0007586609572172165
1761317046208032000,5.483031982421875,-0.00024375342763960361,0.00013662595301866531,0.0007675966480746865
1761317046218015000,5.493014892578125,-0.001239969627931714,0.0006005135364830494,-0.0021988116204738617
1761317046227997700,5.502997802734375,-0.0020647505298256874,-0.0010154927149415016,0.000018269754946231842
1761317046237981000,5.51298095703125,0.002579839900135994,0.00036402326077222824,-0.000828098738566041
1761317046247964000,5.5229638671875,0.0007992504397407174,0.0009113028645515442,0.0016939148772507906
1761317046257945900,5.53294580078125,-0.0007737264386378229,0.001043674536049366,0.00009307637810707092
1761317046267928800,5.5429287109375,0.00034959486220031977,0.0007717655971646309,-0.0006922897882759571
1761317046277911800,5.552911865234375,0.0006712510949000716,0.00025584595277905464,-0.00004746462218463421
1761317046287895000,5.56289501953125,0.00011491670738905668,0.0007189693860709667,-0.0007811654359102249
1761317046297877800,5.572877685546875,-0.0016158279031515121,0.002209947444498539,-0.0011833347380161285
1761317046307860700,5.58286083984375,0.0008606455521658063,-0.00010700291022658348,-0.0004301927983760834
1761317046317843000,5.592843017578125,0.0008989527123048902,0.0019444189965724945,-0.0032261318992823362
1761317046327825700,5.60282568359375,-0.0011588718043640256,0.00040005194023251534,0.00044663366861641407
1761317046337809000,5.612808837890625,-0.002420262433588505,-0.0006391317583620548,-0.0016186356078833342
1761317046347792000,5.6227919921875,-0.002071920782327652,0.0002439725212752819,-0.0005448490846902132
1761317046357774800,5.63277490234375,0.004152530804276466,0.0010012057609856129,-0.0010758624412119389
1761317046367757800,5.6427578125,0.000904006534256041,-0.0007857750169932842,0.0004599825479090214
1761317046377740000,5.652739990234375,0.002130547072738409,0.0005430076271295547,0.0015930910594761372
1761317046387723000,5.662722900390625,-0.0001174270873889327,0.0004801573231816292,0.000961921876296401
1761317046397705700,5.672705810546875,-0.0010303938761353493,-0.0014328379184007645,-0.0014416195917874575
1761317046407689000,5.68268896484375,0.0016024070791900158,-0.0006125844083726406,-0.002338838530704379
1761317046417672000,5.692671875,-0.004251821897923946,-0.0017723818309605122,0.0008048772579059005
1761317046427654700,5.702654541015625,-0.0009862539591267705,-0.000958253163844347,-0.0009301721584051847
1761317046437636400,5.71263623046875,-0.0004286585608497262,-0.0007839021272957325,0.003698385786265135
1761317046447619300,5.722619384765625,-0.0009381212876178324,-0.0014768564142286777,0.00005544768646359444
1761317046457602600,5.7326025390625,-0.0029113395139575005,-0.0017109489999711514,-0.001983557129278779
1761317046467585500,5.74258544921875,0.0019699684344232082,0.001145823858678341,0.0002497697714716196
1761317046477568500,5.752568603515625,-0.00037753547076135874,-0.001339875627309084,-0.00453380960971117
1761317046487551500,5.762551513671875,-0.0008710192050784826,-0.0006937929429113865,-0.00032441713847219944
1761317046497533400,5.772533447265625,-0.00019491720013320446,-0.0016072355210781097,-0.001914698863402009
1761317046507516400,5.782516357421875,-0.0011262246407568455,0.0011118515394628048,0.0016438167076557875
1761317046517499400,5.79249951171875,-0.00038125179708004,-0.0015181777998805046,0.00038085668347775936
1761317046527482600,5.802482666015625,-0.00211843173019588,0.00032339803874492645,-0.0007645688019692898
1761317046537465600,5.812465576171875,-0.0021691657602787018,-0.0004119439981877804,-0.0006301775574684143
1761317046547448300,5.8224482421875,0.001375767751596868,0.0008573182858526707,-0.00005919579416513443
1761317046557430500,5.832430419921875,0.00023993488866835833,0.0030725705437362194,-0.0013125655241310596
1761317046567413500,5.84241357421875,-0.0008266611257568002,-0.002805026015266776,-0.00048219203017652035
1761317046577396500,5.852396484375,0.0009127880912274122,0.0006994670256972313,0.00044593471102416515
1761317046587379500,5.86237939453125,-0.00043983152136206627,-0.0008843149989843369,-0.0011964368168264627
1761317046597362400,5.872362548828125,-0.00014827458653599024,0.0022818236611783504,0.000370941823348403
1761317046607345700,5.882345703125,-0.0020500379614531994,0.0022613168694078922,-0.001610183622688055
1761317046617327400,5.892327392578125,0.0006527457153424621,0.0009781518019735813,-0.0004501151852309704
1761317046627310600,5.902310546875,-0.0017611434450373054,0.000570422038435936,-0.0007864723447710276
1761317046637293600,5.91229345703125,-0.0006285177660174668,-0.0009108339436352253,0.0007005734369158745
1761317046647276300,5.9222763671875,-0.00035101640969514847,-0.0011419965885579586,0.0028401571325957775
1761317046657259500,5.932259521484375,0.0016994478646665812,0.0005910522304475307,-0.0013181644026190042
1761317046667242500,5.942242431640625,-0.00267639197409153,-0.00031335698440670967,0.0008006466086953878
1761317046677224400,5.952224365234375,-0.0003223808016628027,-0.00014231260865926743,0.0013938089832663536
1761317046687207400,5.96220751953125,0.0009681869996711612,0.0010979212820529938,-0.0015985188074409962
1761317046697190400,5.9721904296875,0.0014686879003420472,-0.0009281076490879059,0.000347101129591465
1761317046707173600,5.982173583984375,0.00029663078021258116,-0.0019134772010147572,-0.0019120583310723305
1761317046717156400,5.99215625,0.0006860957946628332,-0.0007653478533029556,-0.002298900159075856
1761317046727139600,6.0021396484375,0.00004480662755668163,0.00023307139053940773,0.0020577649120241404
1761317046737122600,6.01212255859375,-0.0004815084394067526,0.0004951353184878826,0.0018049932550638914
1761317046747104500,6.0221044921875,0.0009243743261322379,-0.00187561078928411,-0.002406796207651496
1761317046757087500,6.03208740234375,0.0009811748750507832,-0.0006299824453890324,-0.0021232920698821545
1761317046767070500,6.042070556640625,0.0009201886132359505,0.0009631202556192875,0.0003824762534350157
1761317046777053700,6.0520537109375,0.000638565281406045,0.002450621221214533,-0.00015262048691511154
1761317046787036400,6.062036376953125,-0.0008253742707893252,-0.00040029268711805344,-0.0018983224872499704
1761317046797019400,6.072019287109375,0.00047721818555146456,0.0009774393402040005,0.0005856783827766776
1761317046807001600,6.082001708984375,-0.0028868867084383965,0.00004373490810394287,-0.001067612087354064
1761317046816984300,6.091984375,-0.0010047777323052287,0.0011771009303629398,0.002435168018564582
1761317046826967600,6.101967529296875,-0.0000673449831083417,0.00013154419139027596,0.0001453820150345564
1761317046836950500,6.111950439453125,-0.0020373952575027943,-0.0013065976090729237,-0.0008145999163389206
1761317046846933200,6.121933349609375,-0.0020035728812217712,0.0003568124957382679,0.0010714506497606635
1761317046856916500,6.13191650390625,-0.00010048155672848225,0.0007645138539373875,0.0019167255377396941
1761317046866898400,6.1418984375,-0.0007803865591995418,-0.0005622729659080505,0.002597429556772113
1761317046876881400,6.15188134765625,-0.002298962790518999,-0.000689550768584013,0.0011309029068797827
1761317046886864400,6.161864501953125,-0.0014661921886727214,-0.0009169848635792732,-0.0010113439057022333
1761317046896847400,6.171847412109375,0.0008118131663650274,-0.00040735164657235146,0.0007261070422828197
1761317046906830600,6.18183056640625,-0.0008121824939735234,-0.0008654152043163776,-0.0026686242781579494
1761317046916813300,6.191813232421875,-0.003228483721613884,0.00027792248874902725,0.0010039270855486393
1761317046926795500,6.20179541015625,-0.00019833911210298538,-0.0009354138746857643,0.000601523439399898
1761317046936778500,6.211778564453125,0.0029282886534929276,0.0005536875687539577,-0.0012251157313585281
1761317046946761500,6.221761474609375,-0.00256208423525095,-0.0016884277574717999,-0.0002831555902957916
1761317046956744400,6.231744384765625,-0.0014575861860066652,-0.001046561636030674,-0.0001577653456479311
1761317046966727400,6.2417275390625,0.0009062355384230614,-0.0004348335787653923,-0.0008581767324358225
1761317046976710700,6.251710693359375,-0.0009325791033916175,0.0008131512440741062,-0.0008182956371456385
1761317046986692400,6.2616923828125,0.0004101867089048028,-0.0004262835718691349,0.0003779961261898279
1761317046996675600,6.271675537109375,-0.003802073886618018,-0.001771452371031046,-0.0008648906368762255
1761317047006658600,6.281658447265625,0.0010523360688239336,-0.0008942070417106152,-0.0004289313219487667
1761317047016641300,6.291641357421875,-0.0015183002687990665,0.0008087111636996269,-0.0009622722864151001
1761317047026624500,6.30162451171875,0.0008420593803748488,-0.0012022419832646847,-0.0018515016417950392
1761317047036607500,6.311607421875,0.0008363216184079647,0.000527744647115469,-0.0016291020438075066
1761317047046589400,6.32158935546875,0.0030017381068319082,0.0006513153202831745,-0.001501536462455988
1761317047056572400,6.331572509765625,-0.00046072015538811684,0.0008342154324054718,-0.0025289508048444986
1761317047066555400,6.341555419921875,-0.0006266350974328816,-0.0005045556463301182,-0.0038442860823124647
1761317047076538600,6.35153857421875,-0.00016079912893474102,0.0027654985897243023,-0.0023147589527070522
1761317047086521300,6.361521240234375,-0.001374934334307909,0.0021524387411773205,-0.00011552078649401665
1761317047096504600,6.371504638671875,0.000876521342433989,-0.00005073612555861473,-0.0026943006087094545
1761317047106486500,6.381486572265625,-0.00152511743362993,0.0036260243505239487,-0.0017030721064656973
1761317047116469500,6.391469482421875,0.00003933045081794262,0.0021923650056123734,-0.0025442903861403465
1761317047126452500,6.401452392578125,0.0006457322742789984,-0.0003802482970058918,-0.0011961981654167175
1761317047136435500,6.411435546875,0.00032151315826922655,0.002629912458360195,-0.001742533640936017
1761317047146418700,6.421418701171875,0.0019737384282052517,-0.0006700106896460056,-0.0006192123983055353
1761317047156401400,6.4314013671875,-0.0008522459538653493,0.0013978499919176102,-0.0006945235654711723
1761317047166383600,6.441383544921875,0.0011762839276343584,-0.0014594551175832748,-0.001062838826328516
1761317047176366600,6.45136669921875,0.0010192092740908265,0.0008016345091164112,0.00002510123886168003
1761317047186349300,6.461349365234375,-0.0009821562562137842,0.00033957604318857193,-0.000334159005433321
1761317047196332500,6.47133251953125,0.0017447296995669603,0.003166516311466694,0.0008456686045974493
1761317047206315500,6.4813154296875,0.0005633514374494553,-0.0002423296682536602,0.00052662193775177
1761317047216298500,6.491298583984375,0.000624943058937788,-0.00015700934454798698,-0.0013696576934307814
1761317047226280400,6.501280517578125,-0.001281880191527307,0.0005615116097033024,-0.000002923421561717987
1761317047236263400,6.511263427734375,0.0015184840885922313,0.0011679520830512047,-0.0006884061731398106
1761317047246246700,6.52124658203125,0.0018071708036586642,-0.0017772377468645573,0.0013675541849806905
1761317047256229400,6.5312294921875,-0.0011832539457827806,-0.0010818126611411572,-0.000047147274017333984
1761317047266212400,6.54121240234375,-0.0018197493627667427,0.0006103599444031715,0.001925456221215427
1761317047276195600,6.551195556640625,-0.00262464489787817,-0.0007628388702869415,0.0011786645045503974
1761317047286177300,6.56117724609375,0.00009044795297086239,0.00016047898679971695,-0.002017927821725607
1761317047296160500,6.571160400390625,-0.00002310157287865877,0.0002478724345564842,0.002120732795447111
1761317047306143500,6.5811435546875,-0.0003738398663699627,0.00009340886026620865,0.0016506847459822893
1761317047316126500,6.59112646484375,-0.000989078893326223,0.00037874095141887665,-0.0004885860253125429
1761317047326109400,6.601109375,0.001110290875658393,-0.0016868067905306816,0.00043846038170158863
1761317047336092400,6.611092529296875,0.0003303205594420433,-0.00225942418910563,0.0008166789775714278
1761317047346074600,6.62107470703125,-0.0008510577026754618,0.0006506121717393398,-0.00008613266982138157
1761317047356057300,6.631057373046875,0.0023275665007531643,0.0010871854610741138,0.0012910881778225303
1761317047366040600,6.64104052734375,0.002614122349768877,-0.0009064571931958199,0.00027828803285956383
1761317047376023600,6.6510234375,-0.0018903820309787989,-0.00086956936866045,0.001785538624972105
1761317047386006500,6.661006591796875,0.00035865744575858116,-0.00026929285377264023,0.0013708843616768718
1761317047395989500,6.670989501953125,-0.0008911292534321547,0.0014984961599111557,-0.000492235878482461
1761317047405971500,6.680971435546875,-0.0009494525147601962,0.0028156950138509274,0.0008766289101913571
1761317047415954700,6.69095458984375,-0.002525829244405031,0.0017372118309140205,0.0004071465227752924
1761317047425937400,6.7009375,0.001878506736829877,0.0021523982286453247,0.000375987496227026
1761317047435920400,6.71092041015625,0.0005812017479911447,0.00022805295884609222,-0.0013154428452253342
1761317047445903600,6.720903564453125,0.001129812910221517,0.0000914325937628746,0.00195225584320724
1761317047455886600,6.730886474609375,0.0006902626482769847,0.0006721075624227524,0.0009532546391710639
1761317047465868500,6.74086865234375,-0.0016543841920793056,-0.00023469887673854828,0.00006642192602157593
1761317047475851500,6.7508515625,0.00018703134264796972,-0.0019485480152070522,0.0007951495936140418
1761317047485834500,6.76083447265625,0.0007396372966468334,0.00012552179396152496,-0.0009931630920618773
1761317047495817500,6.7708173828125,0.0004923149244859815,-0.0012235725298523903,0.00019475026056170464
1761317047505800400,6.780800537109375,0.002627904061228037,0.000818006694316864,0.0015444403979927301
1761317047515783400,6.790783447265625,-0.0016284442972391844,-0.000906315166503191,0.00021897652186453342
1761317047525765400,6.800765380859375,-0.0003376101376488805,-0.001838421681895852,0.0001550605520606041
1761317047535748600,6.81074853515625,-0.0017271789256483316,-0.00020934594795107841,0.0006581299239769578
1761317047545731600,6.820731689453125,0.000036100042052567005,-0.0017324076034128666,0.002030723262578249
1761317047555714600,6.830714599609375,0.00019252905622124672,-0.004300031810998917,0.00900597870349884
1761317047565697500,6.840697509765625,-0.000660481455270201,0.006234101485460997,0.008665893226861954
1761317047575680500,6.850680419921875,-0.001845923368819058,-0.001130727119743824,-0.007496914826333523
1761317047585662700,6.860662841796875,-0.0014128934126347303,0.0022709290497004986,0.001516553689725697
1761317047595645400,6.8706455078125,-0.0017756811575964093,0.0020987149327993393,-0.004825511947274208
1761317047605628400,6.88062841796875,-0.0024603798519819975,-0.0022211987525224686,0.0027099023573100567
1761317047615611600,6.890611572265625,-0.0021775534842163324,-0.002351299626752734,-0.0017704213969409466
1761317047625594600,6.9005947265625,-0.0007556917844340205,-0.0003549940884113312,0.004883753135800362
1761317047635577300,6.910577392578125,0.0007504402892664075,-0.001248620916157961,-0.001955699175596237
1761317047645559600,6.9205595703125,-0.0029353746213018894,0.001184709370136261,-0.00022171484306454659
1761317047655542500,6.93054248046875,0.000773852108977735,-0.000005080830305814743,0.003905662102624774
1761317047665525500,6.940525390625,-0.0015811813063919544,-0.0017233523540198803,0.0030686305835843086
1761317047675508500,6.950508544921875,0.0015218969201669097,0.002649504691362381,-0.0000640044454485178
1761317047685491500,6.960491455078125,-0.0002525673480704427,-0.0014954395592212677,0.002381043741479516
1761317047695474700,6.970474609375,-0.00012452469673007727,0.003786963876336813,-0.0010648681782186031
1761317047705456400,6.980456298828125,-0.001963171176612377,-0.001458930317312479,0.0004968093708157539
1761317047715439600,6.990439697265625,-0.0017499421956017613,-0.0008585909381508827,0.00011373520828783512
1761317047725422600,7.000422607421875,-0.000038594938814640045,-0.000304387416690588,-0.002061268547549844
1761317047735405600,7.010405517578125,0.0029915515333414078,0.0009685680270195007,0.0004681614227592945
1761317047745388500,7.020388427734375,-0.003018670715391636,-0.0018107066862285137,0.0008940009865909815
1761317047755371500,7.03037158203125,0.003243899904191494,0.0001670108176767826,0.001663699746131897
1761317047765353500,7.040353515625,-0.0006227436242625117,0.0005949810147285461,-0.0011115805245935917
1761317047775336400,7.05033642578125,0.00013479148037731647,0.00027153873816132545,-0.00047212978824973106
1761317047785319700,7.060319580078125,-0.0018223655642941594,-0.0022121253423392773,-0.0009371177293360233
1761317047795302700,7.070302734375,0.0024010760243982077,-0.00031628599390387535,0.00027217227034270763
1761317047805285400,7.080285400390625,0.0017019961960613728,-0.0006102989427745342,0.0005669842939823866
1761317047815268600,7.0902685546875,0.0030600838363170624,0.00004154164344072342,0.0007863730425015092
1761317047825250600,7.10025048828125,0.0005878715310245752,-0.00012304214760661125,-0.0025420456659048796
1761317047835233500,7.110233642578125,-0.0010042109061032534,-0.003124887589365244,-0.0009882035665214062
1761317047845216500,7.120216552734375,0.001898102113045752,0.0030555101111531258,-0.0010427983943372965
1761317047855199500,7.130199462890625,0.0032264189794659615,-0.000421848613768816,0.0017568001057952642
1761317047865182500,7.140182373046875,-0.000020240433514118195,-0.0010945629328489304,-0.0004256602842360735
1761317047875165400,7.15016552734375,-0.0018121720058843493,-0.0004975823685526848,0.0007320186123251915
1761317047885147600,7.160147705078125,-0.0001703331945464015,0.0015338771045207977,-0.0007606830913573503
1761317047895130600,7.170130615234375,0.003222669940441847,-0.0007630717009305954,0.0022127400152385235
1761317047905113300,7.18011328125,-0.00039523467421531677,-0.00029728515073657036,0.002381051890552044
1761317047915096600,7.1900966796875,-0.0008624415495432913,-0.0009343456476926804,0.0019790681544691324
1761317047925079600,7.20007958984375,-0.00018360174726694822,-0.0008198297582566738,-0.0011307050008326769
1761317047935062500,7.2100625,0.0015875863609835505,0.00014729099348187447,0.0008882319089025259
1761317047945044500,7.22004443359375,0.0003382974537089467,0.0011036321520805359,0.0008048749295994639
1761317047955027500,7.23002734375,-0.0014549477491527796,0.0007232935167849064,0.001692682970315218
1761317047965010400,7.240010498046875,0.00010486564133316278,0.0006820145063102245,0.0012404781300574541
1761317047974993400,7.249993408203125,0.002070436254143715,0.000987938605248928,0.0006963501218706369
1761317047984976600,7.2599765625,-0.0019501380156725645,-0.0010983818210661411,0.0009988852543756366
1761317047994959600,7.269959716796875,-0.0010806643404066563,-0.0012229750864207745,-0.0013746812473982573
1761317048004941600,7.279941650390625,-0.0022615098860114813,-0.0005542552098631859,-0.0015813421923667192
1761317048014924500,7.289924560546875,-0.0005362732335925102,0.0004068594425916672,-0.0003120566252619028
1761317048024907500,7.299907470703125,0.0005782596999779344,0.0011283098720014095,-0.0005400232039391994
1761317048034890500,7.309890380859375,0.0008565708994865417,0.00031517213210463524,0.0007448634132742882
1761317048044873500,7.31987353515625,-0.0011264188215136528,-0.0018888600170612335,-0.0011811347212642431
1761317048054856400,7.3298564453125,0.0007407920202240348,-0.002439525444060564,0.0017934754723683
1761317048064838400,7.33983837890625,0.0011453261831775308,-0.0006839698180556297,-0.0009732826147228479
1761317048074821400,7.3498212890625,-0.003974119666963816,0.0002570841461420059,0.000975182862021029
1761317048084804600,7.3598046875,-0.00015488045755773783,0.00007439125329256058,0.0005741107743233442
1761317048094787600,7.36978759765625,-0.001643749768845737,0.0008337912149727345,0.0007325382903218269
1761317048104770300,7.379770263671875,0.0011323292274028063,-0.0022727863397449255,-0.0022693767677992582
1761317048114753500,7.38975341796875,0.00011246651411056519,0.0007679644040763378,-0.0018893585074692965
1761317048124735500,7.399735595703125,0.0004674658412113786,-0.00048425374552607536,-0.00037162285298109055
1761317048134718500,7.409718505859375,-0.0006225594552233815,0.0006704600527882576,0.002762754913419485
1761317048144701400,7.419701416015625,0.0011146205943077803,-0.0005226363427937031,0.00035765417851507664
1761317048154684400,7.429684326171875,0.0007406981894746423,0.00030038412660360336,0.00038193678483366966
1761317048164667600,7.439667724609375,0.000285031390376389,-0.0017798109911382198,-0.0008833310566842556
1761317048174650400,7.449650390625,0.0009173766011372209,-0.00030892249196767807,0.0008210372179746628
1761317048184632600,7.459632568359375,-0.0006424367311410606,0.0010069450363516808,-0.001091911457479
1761317048194615600,7.469615478515625,-0.0012510212836787105,-0.0004598153755068779,-0.000675091752782464
1761317048204598500,7.4795986328125,0.0007692527724429965,0.003058487083762884,-0.0003608386032283306
1761317048214581500,7.48958154296875,-0.0014556559035554528,0.0007323003374040127,-0.00023192702792584896
1761317048224564500,7.499564453125,0.00013558287173509598,0.00025239866226911545,0.0007752804085612297
1761317048234547700,7.509547607421875,-0.001255393959581852,-0.000977952964603901,0.0031174852047115564
1761317048244529400,7.519529296875,0.0016317388508468866,-0.0008306801319122314,-0.0008935017976909876
1761317048254512600,7.5295126953125,0.0021205474622547626,-0.00011250795796513557,-0.0003142158966511488
1761317048264495600,7.53949560546875,0.0011953654466196895,-0.000259514432400465,0.0008458570810034871
1761317048274478300,7.549478271484375,0.0001427175011485815,-0.000891396775841713,0.0012319020461291075
1761317048284461600,7.559461669921875,-0.0007395877037197351,-0.00012733601033687592,-0.0023820074275135994
1761317048294444500,7.569444580078125,-0.0007495195604860783,0.0008719367906451225,0.0014050193130970001
1761317048304426500,7.579426513671875,-0.0004136950010433793,-0.0012647174298763275,-0.0015715959016233683
1761317048314409500,7.589409423828125,-0.0011920072138309479,0.00015398534014821053,-0.0004506956320255995
1761317048324392400,7.599392333984375,0.0008447784930467606,-0.00260345172137022,0.0018287039129063487
1761317048334375700,7.609375732421875,0.0007976568304002285,0.0005429140292108059,-0.0009459054563194513
1761317048344358400,7.6193583984375,0.001715914811939001,-0.001908259466290474,0.0010021969210356474
1761317048354341600,7.629341552734375,-0.00021056854166090488,-0.0018560735043138266,0.000247385585680604
1761317048364323600,7.639323486328125,-0.0015671828296035528,0.0022491896525025368,0.0003757497761398554
1761317048374306600,7.649306640625,0.0012095895363017917,-0.0013241684064269066,-0.0021749904844909906
1761317048384289500,7.65928955078125,0.0028061545453965664,0.0016684257425367832,-0.0001264871098101139
1761317048394272500,7.6692724609375,0.00014963652938604355,0.0003978344611823559,-0.0020635928958654404
1761317048404255700,7.679255859375,0.0036996302660554647,-0.0006506522186100483,0.004048095550388098
1761317048414238500,7.689238525390625,0.002146806800737977,0.00043215928599238396,0.00038935989141464233
1761317048424220700,7.699220703125,-0.0015081153251230717,0.0024468405172228813,0.0004306389018893242
1761317048434203600,7.70920361328125,0.00028997287154197693,0.0007752780802547932,-0.000701588811352849
1761317048444186400,7.719186279296875,-0.001342811156064272,0.000006956048309803009,-0.0005143685266375542
1761317048454169600,7.729169677734375,0.0017190335784107447,0.001958981156349182,-0.0009432756341993809
1761317048464152600,7.739152587890625,-0.0017627832712605596,0.0009592305868864059,-0.00006949249655008316
1761317048474135600,7.749135498046875,-0.0006290768506005406,-0.00003963569179177284,0.00042483233846724033
1761317048484117500,7.759117431640625,0.0014031813479959965,0.0014810292050242424,0.0007542653474956751
1761317048494100500,7.7691005859375,-0.0016351082595065236,0.0005323877558112144,0.00019929208792746067
1761317048504083700,7.779083740234375,0.0010767887579277158,0.0000037499703466892242,0.00028318166732788086
1761317048514066400,7.78906640625,0.001759489648975432,0.0004527685232460499,0.001988330390304327
1761317048524049400,7.79904931640625,-0.0003675771877169609,0.00033212732523679733,0.0009560892358422279
1761317048534032600,7.80903271484375,-0.0016478992765769362,-0.00188209000043571,0.001688897144049406
1761317048544014300,7.819014404296875,-0.0004702494479715824,0.0005051675252616405,0.0005967346951365471
1761317048553997600,7.82899755859375,-0.0006334161735139787,0.000489434227347374,-0.0019437726587057114
1761317048563980500,7.83898046875,-0.0010403471533209085,-0.0023526910226792097,-0.0008747801184654236
1761317048573963500,7.848963623046875,-0.0015549745876342058,-0.001056162640452385,0.00047090044245123863
1761317048583946500,7.858946533203125,0.0021113993134349585,-0.0020311458501964808,0.000240004388615489
1761317048593929500,7.868929443359375,0.0013942073564976454,-0.001952724065631628,0.001276529859751463
1761317048603911400,7.878911376953125,0.0009031204972416162,-0.0011186222545802593,0.00011166324838995934
1761317048613894400,7.888894287109375,-0.0003147345269098878,-0.0015927953645586967,-0.0015524267219007015
1761317048623877600,7.898877685546875,-0.0003086093347519636,-0.001037792768329382,0.0015858423430472612
1761317048633860600,7.908860595703125,-0.0026124161668121815,0.0021891766227781773,-0.0011743747163563967
1761317048643843300,7.91884326171875,-0.001173243741504848,-0.00009688083082437515,0.0002371007576584816
1761317048653826600,7.92882666015625,-0.0034294186625629663,-0.0002504931762814522,-0.0019212642218917608
1761317048663808500,7.93880859375,0.00043456186540424824,-0.00034104054793715477,-0.004216110333800316
1761317048673791500,7.94879150390625,-0.0009586501982994378,-0.0019605476409196854,-0.0020802791696041822
1761317048683774500,7.9587744140625,0.0018509847577661276,-0.0003551938571035862,0.0011277645826339722
1761317048693757400,7.96875732421875,0.0014502821722999215,0.0011020293459296227,-0.00007965555414557457
1761317048703740700,7.97874072265625,-0.00013136921916157007,0.0013859225437045097,-0.0006359899416565895
1761317048713723400,7.988723388671875,0.0005438155494630337,0.0004098573699593544,-0.0010209064930677414
1761317048723705600,7.99870556640625,0.0022690114565193653,-0.0008210558444261551,0.000050483038648962975
1761317048733688600,8.0086884765625,0.001739639788866043,0.0032910844311118126,-0.0018105246126651764
1761317048743671300,8.01867138671875,0.0015478921122848988,0.0020311432890594006,-0.00037534721195697784
1761317048753654500,8.028654541015625,0.0014452687464654446,0.002004668116569519,-0.0004095938056707382
1761317048763637500,8.038637451171875,0.0018274325411766768,0.0022206506691873074,-0.0008767121471464634
1761317048773619500,8.048619384765624,0.000052276416681706905,0.001304727979004383,0.0015105053316801786
1761317048783602400,8.0586025390625,-0.00114055338781327,-0.00008118106052279472,-0.00030257459729909897
1761317048793585700,8.068585693359376,0.0014826225815340877,0.0000050729140639305115,-0.0015189959667623043
1761317048803568600,8.078568603515626,-0.00012273085303604603,0.0008042873814702034,0.0025218185037374496
1761317048813551400,8.08855126953125,-0.00009813799988478422,-0.001967770978808403,0.0010028616525232792
1761317048823534600,8.09853466796875,-0.003317367285490036,-0.0007794685661792755,-0.00010208389721810818
1761317048833517600,8.108517578125,0.00045655586291104555,0.0010755043476819992,0.0002925537992268801
1761317048843499500,8.11849951171875,0.000856296275742352,-0.0027892752550542355,0.000673385919071734
1761317048853482500,8.128482421875,-0.0016479003243148327,-0.00123153580352664,-0.0018353939522057772
1761317048863465500,8.138465576171875,0.0011761155910789967,0.0005373358726501465,0.0020709307864308357
1761317048873448700,8.14844873046875,0.00006902101449668407,-0.0022790783550590277,-0.00011793826706707478
1761317048883431400,8.158431396484374,0.0018674538005143404,0.0014370963908731937,0.0004969856236129999
1761317048893413600,8.16841357421875,-0.0022273343056440353,-0.002534549217671156,-0.00034248107112944126
1761317048903396600,8.178396728515626,0.0003101255279034376,0.0006836145184934139,-0.0021499686408787966
1761317048913379300,8.18837939453125,-0.0022375560365617275,0.0018353848718106747,0.0015034631360322237
1761317048923362600,8.198362548828126,0.0011832744348794222,0.0005767750553786755,0.002563667483627796
1761317048933345500,8.208345458984375,0.0002458279486745596,-0.0002138400450348854,-0.0015379197429865599
1761317048943328500,8.21832861328125,0.0017089686589315534,-0.0012151882983744144,-0.001210617134347558
1761317048953310500,8.228310546875,0.00045185815542936325,-0.0008982298895716667,-0.0006330462638288736
1761317048963293400,8.23829345703125,-0.000039228820241987705,0.0005499967373907566,0.002646370092406869
1761317048973276700,8.248276611328125,0.001103062299080193,-0.00010376982390880585,-0.0009162374772131443
1761317048983259400,8.25825927734375,0.002237568609416485,0.0012387298047542572,0.0019368070643395185
1761317048993242600,8.26824267578125,-0.00012432271614670753,0.0010298145934939384,0.000010260380804538727
1761317049003225600,8.2782255859375,0.003226999193429947,-0.0005840607918798923,-0.0020009586587548256
1761317049013207600,8.28820751953125,0.002038980834186077,0.0008912188932299614,0.0018988666124641895
1761317049023190500,8.2981904296875,0.0004192462656646967,0.0013311728835105896,-0.0010729548521339893
1761317049033173500,8.308173583984376,0.000555692589841783,-0.001510291825979948,0.0008036107756197453
1761317049043156700,8.31815673828125,0.0010118921054527164,0.0006396779790520668,-0.0016776563134044409
1761317049053139500,8.328139404296875,0.0009572568815201521,0.0006644818931818008,-0.001222447957843542
1761317049063122400,8.338122314453125,0.0027144106570631266,0.00041414471343159676,-0.0018035497050732374
1761317049073104600,8.348104736328125,-0.0002808193676173687,-0.000020493753254413605,0.0002817020285874605
1761317049083087400,8.35808740234375,0.0010672727366909385,-0.0010383538901805878,0.0012747948057949543
1761317049093070600,8.368070556640625,0.0009252929594367743,0.0006257304921746254,-0.0016472642309963703
1761317049103053600,8.378053466796874,-0.0020020536612719297,-0.0016893558204174042,0.00196531368419528
1761317049113036500,8.38803662109375,0.00276568322442472,-0.0011419286020100117,0.0008751412387937307
1761317049123019500,8.39801953125,-0.00007511058356612921,-0.0013981247320771217,-0.0014972025528550148
1761317049133001500,8.40800146484375,-0.0017792235594242811,-0.00041745277121663094,-0.0004434855654835701
1761317049142984700,8.417984619140626,0.002029096707701683,0.0009231823496520519,0.001382910180836916
1761317049152967400,8.427967529296875,-0.0022454294376075268,-0.000882753636687994,0.0015741430688649416
1761317049162950400,8.437950439453125,0.0014206778723746538,-0.0008707698434591293,-0.0005912731867283583
1761317049172933600,8.44793359375,0.00015232327859848738,-0.0014452817849814892,0.0006543411873281002
1761317049182916400,8.457916259765625,0.00032942346297204494,-0.00027322443202137947,-0.0006141224876046181
1761317049192898600,8.467898681640625,0.0020044646225869656,0.002987529616802931,-0.002885698340833187
1761317049202881500,8.477881591796875,0.0013642407720908523,0.001284970436245203,0.0011380715295672417
1761317049212864500,8.487864501953124,0.0006036238046362996,-0.0012602615170180798,-0.0014962921850383282
1761317049222847500,8.497847412109374,0.00105689384508878,-0.00047809118404984474,-0.0003447411581873894
1761317049232830500,8.50783056640625,0.00038754602428525686,0.001486191526055336,0.0006007904885336757
1761317049242813700,8.517813720703124,0.00038541550748050213,0.0008369130082428455,0.000197588000446558
1761317049252795400,8.52779541015625,0.0003020656295120716,0.001165909692645073,0.00195133569650352
1761317049262778600,8.537778564453125,-0.0015967682702466846,-0.0009110895916819572,0.001472765696235001
1761317049272761600,8.54776171875,0.0003730533644556999,0.003220152109861374,0.00011439272202551365
1761317049282744300,8.557744384765625,0.0005397670902311802,-0.0004219869151711464,-0.00020358874462544918
1761317049292727600,8.5677275390625,0.0005456176586449146,-0.0004393160343170166,0.000091607216745615
1761317049302709500,8.57770947265625,0.000516589148901403,0.0026571410708129406,-0.001101755304262042
1761317049312692500,8.5876923828125,0.0006616066675633192,0.001158175989985466,0.0011138797271996737
1761317049322675500,8.597675537109374,-0.0013653251808136702,0.0005744113586843014,-0.0005226328503340483
1761317049332658400,8.607658447265624,-0.000017718877643346786,0.00007255328819155693,0.00017663463950157166
1761317049342641700,8.6176416015625,-0.0001924221869558096,-0.00003503821790218353,0.0005039372481405735
1761317049352624400,8.627624267578126,0.0010434042196720839,0.0009956127032637596,-0.0021972672548145056
1761317049362607400,8.637607421875,-0.00071694515645504,0.0002967990003526211,-0.0010190850589424372
1761317049372589600,8.647589599609375,0.00014249910600483418,-0.00022113695740699768,-0.0014736533630639315
1761317049382572300,8.657572265625,0.0013867279049009085,0.0009237560443580151,0.002524017821997404
1761317049392555500,8.667555419921875,-0.0013418812304735184,0.01575041562318802,0.004386689513921738
1761317049402538500,8.67753857421875,-0.0015645214589312673,0.01142917200922966,0.004992292728275061
1761317049412521700,8.687521728515625,0.0000916084973141551,0.011265980079770088,0.003110768971964717
1761317049422503400,8.69750341796875,-0.000087355962023139,0.0015382524579763412,-0.0008371009025722742
1761317049432486700,8.707486572265625,0.000914572854526341,-0.006573530845344067,-0.003302681725472212
1761317049442470000,8.717469970703124,-0.001623419695533812,-0.010228985920548439,-0.0006150195840746164
1761317049452452600,8.72745263671875,-0.0017495121574029326,-0.008265228942036629,-0.0023874675389379263
1761317049462435800,8.737435791015624,-0.0003617388429120183,-0.006043086759746075,-0.002488667843863368
1761317049472418800,8.747418701171876,0.0005767975235357881,0.000023090746253728867,-0.0017190598882734776
1761317049482400800,8.75740087890625,0.0006028966745361686,-0.000243491493165493,0.0023361355997622013
1761317049492383700,8.7673837890625,0.0011656375136226416,-0.0020746244117617607,0.0004786814097315073
