time,seconds_elapsed,z,y,x
1761316508680835800,0.0778359375,0.0022727802861481905,-0.0014154454693198204,-0.00203303643502295
1761316508690818000,0.087818115234375,-0.002233820967376232,-0.0026293143164366484,0.0014394595054909587
1761316508700801000,0.097801025390625,0.000013556214980781078,-0.001994495280086994,-0.0003061923198401928
1761316508710783000,0.107782958984375,-0.0007531678420491517,0.0004319106228649616,0.00008609122596681118
1761316508720766000,0.117765869140625,-0.0010307170450687408,0.0018396875821053982,-0.00014532683417201042
1761316508730749200,0.127749267578125,0.0020638760179281235,0.0000029052607715129852,-0.0008619835134595633
1761316508740731000,0.13773095703125,0.0035134400241076946,-0.001688689924776554,-0.0027277038898319006
1761316508750714000,0.147714111328125,-0.0017391126602888107,-0.0022234527859836817,0.0013527913251891732
1761316508760695800,0.15769580078125,-0.0011391045991331339,0.00003062468022108078,0.001248350366950035
1761316508770679000,0.167678955078125,0.0023669470101594925,0.0025134896859526634,0.0020771261770278215
1761316508780661000,0.177660888671875,-0.0005052753840573132,-0.00033132126554846764,0.00011912500485777855
1761316508790644000,0.18764404296875,0.002312615280970931,-0.00042692897841334343,-0.0031291323248296976
1761316508800626000,0.1976259765625,0.0010238043032586575,0.000603443942964077,-0.0000426445621997118
1761316508810609200,0.207609130859375,0.0018706896807998419,0.0017057261429727077,-0.002295146230608225
1761316508820590800,0.2175908203125,0.002115437528118491,0.0009653898887336254,0.0014532984932884574
1761316508830574000,0.227573974609375,0.0016917285975068808,-0.0009177313186228275,-0.0003517919685691595
1761316508840557000,0.23755712890625,0.001426035538315773,0.0013722390867769718,-0.0009563968051224947
1761316508850539000,0.2475390625,0.0011543931905180216,0.0001024436205625534,0.0010502950754016638
1761316508860522000,0.25752197265625,-0.000040974002331495285,-0.00022474629804491997,-0.0007131735328584909
1761316508870504200,0.267504150390625,0.001078086206689477,-0.0014687087386846542,-0.0003738868981599808
1761316508880487000,0.27748681640625,-0.0007423488423228264,0.0022463607601821423,0.0013569272123277187
1761316508890469000,0.28746923828125,0.0021373273339122534,-0.0005214624106884003,0.0006708969594910741
1761316508900452000,0.2974521484375,0.0007948852144181728,-0.0009491299279034138,0.0005706208758056164
1761316508910434000,0.30743408203125,-0.000656803953461349,0.0005646105855703354,0.002485699951648712
1761316508920416300,0.317416259765625,0.0017115399241447449,0.0009882748126983643,0.0006568172248080373
1761316508930398200,0.327398193359375,0.0008806337136775255,-0.0011443844996392727,0.0027287565171718597
1761316508940381200,0.337381103515625,0.0008151805959641933,-0.000026841647922992706,-0.0016750982031226158
1761316508950364400,0.347364501953125,-0.0003803122672252357,-0.001247368287295103,0.0002682104241102934
1761316508960346000,0.35734619140625,0.0012615795712918043,0.0007550534792244434,0.0010757164563983679
1761316508970329300,0.367329345703125,0.002034162636846304,0.0008874125778675079,-0.0007727835327386856
1761316508980311300,0.377311279296875,0.0032184638548642397,-0.0003795195370912552,0.0014100746484473348
1761316508990294300,0.387294189453125,0.0015838155522942543,-0.0008985698223114014,0.0011749175610020757
1761316509000276200,0.397276123046875,0.002052583498880267,-0.0018815516959875822,0.0019611178431659937
1761316509010259500,0.407259521484375,0.0017423252575099468,-0.001773427240550518,0.0011485874420031905
1761316509020241200,0.4172412109375,0.002306495327502489,-0.0007070489227771759,0.0010936657199636102
1761316509030224400,0.427224365234375,0.0002545297611504793,0.0007803267799317837,0.00012187822721898556
1761316509040206000,0.4372060546875,-0.00034069607499986887,-0.0000269436277449131,0.0016626474680379033
1761316509050189300,0.447189208984375,0.0016361684538424015,-0.00113694928586483,0.0008309422992169857
1761316509060172300,0.45717236328125,0.00008078780956566334,0.002084517851471901,-0.002010008320212364
1761316509070154200,0.467154296875,-0.00040310859913006425,-0.0019134196918457747,-0.0007945415563881397
1761316509080137200,0.47713720703125,0.0006697144126519561,0.002834932878613472,-0.0001572661567479372
1761316509090119400,0.487119384765625,0.0007807682268321514,0.0016767242923378944,0.000009447801858186722
1761316509100102100,0.49710205078125,-0.00062841473845765,0.0006543546915054321,-0.0009637416806071997
1761316509110084400,0.50708447265625,0.0013218179810792208,0.0026892758905887604,-0.002157636685296893
1761316509120067300,0.5170673828125,0.00022731104400008917,-0.0007989411242306232,0.0017846758710220456
1761316509130049300,0.52704931640625,-0.0017586082685738802,-0.0006767022423446178,0.00044111115857958794
1761316509140032300,0.5370322265625,-0.0006290692836046219,0.0031022410839796066,0.00177715253084898
1761316509150015200,0.54701513671875,-0.0023436122573912144,0.0021922383457422256,-0.0008814812172204256
1761316509159997200,0.5569970703125,0.0021211551502346992,0.0007747560739517212,0.00039063580334186554
1761316509169980200,0.566980224609375,0.0023746879305690527,0.001338280737400055,-0.002318331506103277
1761316509179962400,0.57696240234375,0.00018843996804207563,0.0005464651621878147,-0.0005688045639544725
1761316509189945300,0.5869453125,-0.0014853568281978369,0.00003593740984797478,0.0006248241988942027
1761316509199927300,0.59692724609375,0.00030210171826183796,0.00041276169940829277,-0.00042507448233664036
1761316509209910300,0.60691015625,-0.0006105636130087078,0.00011741695925593376,0.000813295366242528
1761316509219892200,0.616892333984375,-0.0003305149730294943,0.0013149934820830822,-0.0005818754434585571
1761316509229875200,0.626875244140625,0.0022511533461511135,0.00046038487926125526,0.00020215916447341442
1761316509239857200,0.636857177734375,-0.00127931940369308,0.001148417592048645,0.003991400357335806
1761316509249840400,0.64684033203125,0.0011726530501618981,-0.0002761073410511017,0.0008523323340341449
1761316509259823400,0.6568232421875,-0.0024774293415248394,-0.0007128585129976273,-0.0019610871095210314
1761316509269805300,0.666805419921875,-0.0006686102715320885,-0.001365066971629858,0.001789176370948553
1761316509279788300,0.676788330078125,0.0012256274931132793,-0.0011363895609974861,-0.00010707811452448368
1761316509289770200,0.686770263671875,-0.0002553564263507724,-0.0009275977499783039,-0.0004908395931124687
1761316509299753200,0.696753173828125,0.0021615084260702133,-0.00006343144923448563,-0.0010114989709109068
1761316509309735400,0.7067353515625,0.0011204787297174335,-0.0019364326726645231,0.001174956327304244
1761316509319718400,0.716718505859375,0.000067488057538867,-0.000294707715511322,-0.0008873443584889174
1761316509329700400,0.726700439453125,0.0034963078796863556,-0.0015330775640904903,0.00021307379938662052
1761316509339683300,0.736683349609375,0.00002852559555321932,0.00018343143165111542,-0.004271289333701134
1761316509349665300,0.746665283203125,0.0005995073588564992,-0.00028581777587532997,0.0003231964074075222
1761316509359648300,0.756648193359375,-0.0033660198096185923,0.0028222380205988884,0.0020512586925178766
1761316509369631200,0.76663134765625,-0.001464256551116705,-0.0009930068626999855,-0.0008414669428020716
1761316509379613400,0.776613525390625,-0.00012425915338099003,-0.00008669216185808182,-0.0029270153027027845
1761316509389596200,0.78659619140625,-0.0014936565421521664,-0.00034155696630477905,-0.0019698755349963903
1761316509399578400,0.796578369140625,-0.0016825280617922544,0.0008243611082434654,-0.0028836852870881557
1761316509409561300,0.806561279296875,-0.0007357742870226502,-0.0007125493139028549,-0.0008676724974066019
1761316509419543300,0.816543212890625,-0.0006543415947817266,0.003566537983715534,0.00005116988904774189
1761316509429526300,0.8265263671875,0.0006617925828322768,0.0020948750898241997,0.0017926109721884131
1761316509439508200,0.83650830078125,-0.00010146934073418379,0.000421344768255949,-0.0010298071429133415
1761316509449491200,0.8464912109375,0.0017670044908300042,0.002078630030155182,-0.00047294003888964653
1761316509459474400,0.856474365234375,0.0007271472131833434,0.001997940707951784,-0.0020363666117191315
1761316509469456100,0.8664560546875,-0.000372205744497478,0.0002474449574947357,0.0013527722330763936
1761316509479439400,0.876439453125,-0.0005475981743074954,0.00006318045780062675,0.0005422665271908045
1761316509489421300,0.88642138671875,-0.0017798428889364004,0.0004442785866558552,-0.0006963696796447039
1761316509499404300,0.896404296875,0.0011923533165827394,0.0012363297864794731,0.0007384351920336485
1761316509509386200,0.90638623046875,0.003294652793556452,-0.0006779502145946026,0.0006305772112682462
1761316509519369500,0.916369384765625,-0.0009552187984809279,-0.0005287909880280495,0.0012175827287137508
1761316509529351200,0.92635107421875,-0.0000052691902965307236,0.0012736362405121326,0.0008631160017102957
1761316509539334400,0.93633447265625,0.0031798705458641052,0.000744976568967104,-0.0012237818446010351
1761316509549316400,0.94631640625,-0.00017065240535885096,-0.00015730224549770355,-0.00017103436402976513
1761316509559299300,0.95629931640625,-0.0012877562548965216,0.0017068050801753998,-0.002140019554644823
1761316509569281300,0.96628125,-0.00047176372027024627,-0.00010387785732746124,0.002661926206201315
1761316509579264500,0.976264404296875,0.0022663469426333904,0.0003254711627960205,0.0004530409350991249
1761316509589247200,0.986247314453125,0.0008719159523025155,0.00003465358167886734,0.00013346155174076557
1761316509599229400,0.9962294921875,-0.0005848795990459621,0.0000075660645961761475,-0.0033692950382828712
1761316509609212400,1.00621240234375,-0.00011776108294725418,0.0006387350149452686,0.00036046188324689865
1761316509619194400,1.0161943359375,0.0009641214273869991,-0.00197648536413908,-0.0018059038557112217
1761316509629177300,1.02617724609375,0.000005117151886224747,0.000646994449198246,-0.0016929861158132553
1761316509639159300,1.0361591796875,0.001026862533763051,-0.0009221890941262245,-0.0006737327203154564
1761316509649142300,1.046142333984375,-0.0006823541480116546,-0.0018542956095188856,-0.0009248689748346806
1761316509659124500,1.05612451171875,0.0019264784641563892,0.000019504688680171967,-0.004052218981087208
1761316509669107200,1.066107177734375,-0.00015531457029283047,0.001587573904544115,0.0018434870289638638
1761316509679090200,1.076090087890625,0.00028448004741221666,-0.000522976741194725,0.0036034192889928818
1761316509689072400,1.086072265625,-0.00012404879089444876,0.00025706319138407707,0.00022440054453909397
1761316509699055000,1.09605517578125,0.0002008585724979639,-0.0017639873549342155,0.0008353743469342589
1761316509709037300,1.106037353515625,0.0023239306174218655,0.0019402033649384975,0.0010713303927332163
1761316509719020300,1.116020263671875,-0.00037524575600400567,0.0011403760872781277,0.0027489066123962402
1761316509729002200,1.126002197265625,0.0012143950443714857,-0.0019382382743060589,-0.0030719644855707884
1761316509738985200,1.135985107421875,-0.0009063915349543095,0.000015165191143751144,-0.00008965190500020981
1761316509748967400,1.145967529296875,-0.00283638434484601,-0.00022105732932686806,0.0006552343256771564
1761316509758950100,1.1559501953125,-0.0003960643080063164,-0.0017411112785339355,-0.003358731744810939
1761316509768932400,1.165932373046875,0.0003621376818045974,-0.00015546521171927452,-0.0008969057817012072
1761316509778915300,1.175915283203125,-0.00018498289864510298,-0.0000028708018362522125,-0.00014547724276781082
1761316509788898300,1.185898193359375,-0.0004233357612974942,0.00011963490396738052,0.0011120674898847938
1761316509798880300,1.19588037109375,0.00020697980653494596,0.0015854253433644772,-0.0010638153180480003
1761316509808863500,1.205863525390625,-0.0006311169709078968,0.0006463951431214809,0.0003154356963932514
1761316509818845200,1.21584521484375,-0.0015444252640008926,0.0011915178038179874,-0.0015625199303030968
1761316509828828400,1.225828369140625,0.0006811784114688635,0.0014437194913625717,0.0010234094224870205
1761316509838810000,1.23581005859375,-0.0017480498645454645,-0.0008551175706088543,-0.0012015458196401596
1761316509848793300,1.24579345703125,0.000003244844265282154,0.0008301306515932083,0.0029633715748786926
1761316509858775300,1.255775390625,0.001990287099033594,0.0004546605050563812,0.00019780430011451244
1761316509868758300,1.26575830078125,0.0011436681961640716,0.00011111237108707428,0.002879341132938862
1761316509878740200,1.275740234375,-0.00005752092693001032,0.0017197029665112495,-0.0011114315129816532
1761316509888723500,1.285723388671875,-0.0006372910575009882,0.0014571151696145535,-0.001439000479876995
1761316509898706200,1.2957060546875,0.0011201706947758794,-0.0018378454260528088,0.0009872604859992862
1761316509908688400,1.3056884765625,0.0021569393575191498,-0.0009094676934182644,-0.000905448105186224
1761316509918671600,1.315671630859375,0.0006428377237170935,-0.0014334707520902157,-0.002361821476370096
1761316509928653800,1.32565380859375,0.003824782557785511,0.0009420691058039665,0.0007506150286644697
1761316509938636800,1.33563671875,0.0034711093176156282,-0.0005368511192500591,-0.002392581896856427
1761316509948618800,1.34561865234375,0.00042312138248234987,0.000982481986284256,-0.0001912128645926714
1761316509958601700,1.355601806640625,0.0029262194875627756,-0.0007976186461746693,0.002360803773626685
1761316509968583700,1.365583740234375,0.0017317915335297585,0.0004034671001136303,0.00129207712598145
1761316509978566700,1.375566650390625,-0.00031979114282876253,-0.0014590779319405556,0.0003138827160000801
1761316509988548900,1.385548828125,0.0013681204291060567,-0.0008878298103809357,0.00182575942017138
1761316509998531600,1.395531494140625,-0.002340224338695407,-0.0007322966121137142,-0.000743010314181447
1761316510008514600,1.4055146484375,0.0005935138324275613,0.0007859715260565281,-0.0002985286992043257
1761316510018496800,1.415496826171875,-0.00275866175070405,-0.0012452355585992336,0.0018846505554392934
1761316510028479500,1.4254794921875,0.002900555729866028,0.0021577514708042145,0.001362937269732356
1761316510038461700,1.435461669921875,-0.0011092032073065639,0.0018414091318845749,-0.0004168790765106678
1761316510048444700,1.445444580078125,-0.00042450445471331477,-0.0015413379296660423,0.0021211132407188416
1761316510058426600,1.455426513671875,-0.001964827999472618,0.0019321693107485771,-0.000644101295620203
1761316510068409600,1.46540966796875,-0.0011235354468226433,-0.0009853239171206951,0.0033881908748298883
1761316510078391800,1.475391845703125,-0.00017470342572778463,0.000894610770046711,0.000766007462516427
1761316510088374500,1.48537451171875,-0.0020397151820361614,0.00017529120668768883,0.0011561604915186763
1761316510098356700,1.495356689453125,-0.001758911064825952,0.0008128555491566658,0.0014460280071943998
1761316510108339700,1.505339599609375,0.00041476101614534855,0.000750271137803793,-0.0018898474518209696
1761316510118322700,1.51532275390625,0.002265657763928175,0.0029519060626626015,-0.000743889482691884
1761316510128304600,1.5253046875,0.00012074806727468967,-0.0009288517758250237,-0.0011375045869499445
1761316510138287900,1.535287841796875,-0.0010230822954326868,0.0015606498345732689,-0.0017447504214942455
1761316510148269600,1.54526953125,0.0011838792124763131,0.0011172336526215076,-0.0012004002928733826
1761316510158252800,1.555252685546875,-0.00012383493594825268,0.0006080763414502144,0.0038318834267556667
1761316510168234500,1.565234375,-0.0028040402103215456,0.0004943590611219406,0.0011484823189675808
1761316510178217700,1.5752177734375,0.0034834598191082478,-0.0002476722002029419,0.0016799487639218569
1761316510188199700,1.58519970703125,0.001204859116114676,0.005116201005876064,0.000017070909962058067
1761316510198182700,1.5951826171875,0.00005491019692271948,-0.00046363286674022675,-0.000453463988378644
1761316510208164600,1.60516455078125,0.00026609888300299644,-0.0008878745138645172,-0.0008422853425145149
1761316510218147800,1.61514794921875,-0.001101374626159668,0.00010660849511623383,-0.00033478299155831337
1761316510228130600,1.625130615234375,0.00007520988583564758,-0.00023001525551080704,0.0022583368699997663
1761316510238112800,1.63511279296875,0.00029305194038897753,0.002139621414244175,-0.0006981280166655779
1761316510248095700,1.645095703125,-0.0013988543068990111,-0.001421025488525629,-0.001204394968226552
1761316510258077700,1.65507763671875,0.00019814260303974152,-0.0033296504989266396,-0.0032070728484541178
1761316510268060700,1.665060791015625,0.00003355927765369415,0.000028329435735940933,0.00021988269872963428
1761316510278042600,1.675042724609375,-0.001803648890927434,-0.0032255162950605154,-0.0011233005207031965
1761316510288025600,1.685025634765625,0.00047495169565081596,-0.0030417582020163536,0.00017472426407039165
1761316510298007800,1.6950078125,0.0007264034356921911,-0.00023377500474452972,-0.0015513247344642878
1761316510307990800,1.70499072265625,0.0030215156730264425,0.0019074063748121262,0.0006529738893732429
1761316510317972700,1.71497265625,0.002082858234643936,0.0013619954697787762,-0.0011970086488872766
1761316510327955700,1.724955810546875,-0.0011957593960687518,-0.0002747830003499985,0.0016323337331414223
1761316510337937700,1.734937744140625,-0.0000915509881451726,0.001945260912179947,-0.0009227897971868515
1761316510347920600,1.744920654296875,-0.0004300387226976454,-0.0003557102754712105,-0.003138273488730192
1761316510357903600,1.754903564453125,-0.003789853071793914,-0.0007220921106636524,0.0002096765674650669
1761316510367885600,1.764885498046875,0.001716498751193285,-0.0002565714530646801,-0.00029525882564485073
1761316510377868500,1.77486865234375,-0.0005011882167309523,-0.001890666550025344,-0.000022160587832331657
1761316510387850800,1.784850830078125,0.000490306643769145,0.0017751744017004967,-0.00185468140989542
1761316510397833500,1.79483349609375,0.0011288843816146255,-0.0003129797987639904,-0.0011260800529271364
1761316510407815700,1.804815673828125,0.0010423316853120923,0.0008034175261855125,-0.002225699136033654
1761316510417798700,1.814798583984375,0.004449951928108931,0.0006553265266120434,0.0009366088779643178
1761316510427780600,1.824780517578125,-0.001403676113113761,-0.0030003946740180254,0.00035870284773409367
1761316510437763600,1.834763671875,0.003426283597946167,0.0000691334716975689,0.00044098543003201485
1761316510447746800,1.844746826171875,-0.0008395679760724306,-0.000043252017349004745,0.00002846168354153633
1761316510457728500,1.854728515625,0.0003750046016648412,0.0005164891481399536,-0.001102124573662877
1761316510467711700,1.864711669921875,0.002057855948805809,-0.00013358844444155693,-0.0018640549387782812
1761316510477693400,1.874693359375,-0.0021793644409626722,0.001423870213329792,0.0005501472624018788
1761316510487676700,1.8846767578125,0.0001490372233092785,-0.0019815140403807163,0.001478791469708085
1761316510497658600,1.89465869140625,0.002343340078368783,-0.0007549254223704338,-0.0011883026454597712
1761316510507641600,1.9046416015625,0.0005427768919616938,-0.0005147084593772888,0.0007590006571263075
1761316510517623600,1.91462353515625,-0.0017746385419741273,-0.002016462152823806,0.0011841392843052745
1761316510527606800,1.924606689453125,-0.001389545388519764,-0.0019078052137047052,-0.002014849567785859
1761316510537588500,1.93458837890625,0.0015269138384610415,-0.0007077888585627079,-0.0011636388953775167
1761316510547571700,1.94457177734375,-0.00008323322981595993,-0.0006308234296739101,0.00031068711541593075
1761316510557553700,1.9545537109375,-0.00028912851121276617,0.0007889214903116226,0.0016175153432413936
1761316510567536600,1.96453662109375,0.00047413341235369444,-0.0022641264367848635,-0.0012557690497487783
1761316510577519600,1.97451953125,-0.0018374038627371192,0.001958764623850584,-0.0009123724885284901
1761316510587501800,1.984501708984375,-0.0014443212421610951,0.0000482131727039814,0.001310301711782813
1761316510597484500,1.994484619140625,-0.0009330457542091608,0.0004278128035366535,0.0005708001554012299
1761316510607466800,2.004466796875,0.0003346188459545374,0.0014544613659381866,0.00109491019975394
1761316510617449700,2.01444970703125,-0.0017635793192312121,0.002747604623436928,0.00017872173339128494
1761316510627431700,2.024431640625,0.0010931935394182801,-0.000801856629550457,0.0006128170061856508
1761316510637414700,2.03441455078125,0.0022672107443213463,0.001943778246641159,-0.002373983385041356
1761316510647396600,2.044396728515625,0.001245622057467699,0.002208496443927288,-0.0007127036806195974
1761316510657379600,2.054379638671875,0.0003903578035533428,0.00013962900266051292,-0.0010583715047687292
1761316510667361800,2.06436181640625,-0.00008927751332521439,0.000955621711909771,0.0010620374232530594
1761316510677344500,2.074344482421875,-0.0009671584703028202,-0.0005122716538608074,0.0008635588455945253
1761316510687326700,2.08432666015625,-0.00029684085166081786,0.0032132240012288094,-0.0032531553879380226
1761316510697309700,2.094309814453125,0.002185220830142498,0.004827960394322872,-0.00045243394561111927
1761316510707292700,2.104292724609375,0.000972151174210012,-0.0020025151316076517,0.0007515811594203115
1761316510717274600,2.114274658203125,0.0006418594857677817,-0.00025663524866104126,0.000926584005355835
1761316510727257900,2.1242578125,-0.0010726836044341326,-0.00011309096589684486,0.000519653083756566
1761316510737239600,2.134239501953125,0.0011585007887333632,0.0023443633690476418,0.0016432818956673145
1761316510747222800,2.144222900390625,0.0011089660692960024,-0.0016253446228802204,0.0005306132370606065
1761316510757204700,2.154204833984375,-0.0012854691594839096,0.0007482348009943962,-0.003302287543192506
1761316510767187700,2.164187744140625,-0.0020375458989292383,-0.00044352980330586433,-0.0014420694205909967
1761316510777169700,2.174169677734375,0.0013754863757640123,-0.0005949642509222031,0.0007906957762315869
1761316510787152600,2.184152587890625,0.0005560317076742649,-0.0003997543826699257,0.00028975517489016056
1761316510797134600,2.194134521484375,-0.0020471999887377024,-0.000026799272745847702,0.0007429823745042086
1761316510807117800,2.204117919921875,0.0006607021205127239,0.0001055598258972168,0.0008164856117218733
1761316510817100800,2.214100830078125,0.0010303149465471506,-0.0009720735251903534,0.0009099215967580676
1761316510827082800,2.224082763671875,0.0006092691328376532,-0.0009813946671783924,0.00207185884937644
1761316510837065700,2.234065673828125,-0.0005115363164804876,-0.00039188843220472336,-0.0012148311361670494
1761316510847047700,2.244047607421875,-0.0004122004029341042,0.00028029317036271095,-0.0016340126749128103
1761316510857030700,2.25403076171875,-0.00011336884927004576,-0.0009011030197143555,0.0010719895362854004
1761316510867012900,2.264012939453125,0.0013380538439378142,0.0004488532431423664,-0.0006886261980980635
1761316510876995600,2.27399560546875,-0.00126980384811759,-0.003041567513719201,-0.000582762761041522
1761316510886977800,2.283977783203125,-0.001522271428257227,-0.00023619364947080612,-0.00004320638254284859
1761316510896960800,2.293960693359375,-0.00020286696963012218,0.0009925784543156624,-0.0003852969966828823
1761316510906942700,2.303942626953125,0.0005840972298756242,-5.140900611877441e-7,-0.0010561472736299038
1761316510916925700,2.31392578125,0.0019693132489919662,0.000536198727786541,-0.00021374342031776905
1761316510926909000,2.323908935546875,0.0013187029398977757,-0.000005488283932209015,-0.0009964464697986841
1761316510936891000,2.333890869140625,0.002387485932558775,0.0006960243918001652,0.0004628249444067478
1761316510946873900,2.343873779296875,-0.002420851495116949,-0.0030012421775609255,-0.0015571829862892628
1761316510956856000,2.35385595703125,-0.001571242231875658,0.001484657172113657,0.001624828903004527
1761316510966838800,2.3638388671875,0.0021848801989108324,0.002200248185545206,-0.0011331408750265837
1761316510976821000,2.373821044921875,-0.0035417648032307625,0.0005726427771151066,0.001040493487380445
1761316510986804000,2.383803955078125,0.000648186425678432,0.0003342898562550545,-0.0007510150317102671
1761316510996786000,2.393785888671875,-0.0017475265776738524,0.0017169411294162273,-0.0017698006704449654
1761316511006769000,2.403768798828125,-0.000434055516961962,0.0001597907394170761,-0.00024567381478846073
1761316511016750800,2.413750732421875,0.004462673328816891,0.0014542685821652412,0.0002172354143112898
1761316511026733800,2.42373388671875,0.0007206659065559506,-0.0008030268363654613,0.00006383727304637432
1761316511036716000,2.433716064453125,0.0012893376406282187,-0.0002834917977452278,0.0010229446925222874
1761316511046698800,2.44369873046875,-0.0000704724807292223,0.0012805825099349022,0.0017097739037126303
1761316511056682000,2.453681884765625,0.00013456400483846664,-0.000462154857814312,0.00019835634157061577
1761316511066664000,2.463663818359375,-0.0006002021254971623,0.0016787606291472912,0.0006697357166558504
1761316511076647000,2.47364697265625,-0.0022603492252528667,-0.00100746750831604,-0.0031308778561651707
1761316511086628900,2.48362890625,-0.0009205129463225603,-0.001094553153961897,0.00008888402953743935
1761316511096612000,2.493612060546875,-0.001422956818714738,0.0007735011167824268,-0.006137252319604158
1761316511106593800,2.50359375,0.00016801559831947088,-0.001378865446895361,-0.0012231871951371431
1761316511116577000,2.513576904296875,-0.0015452991938218474,-0.00101399514824152,-0.002972954185679555
1761316511126559000,2.52355908203125,-0.0013077452313154936,0.001398828811943531,0.002912365598604083
1761316511136542000,2.5335419921875,0.001135234022513032,0.0014404542744159698,-0.000747135141864419
1761316511146524000,2.54352392578125,-0.0015790597535669804,-0.0008551906794309616,0.0017602309817448258
1761316511156507100,2.553507080078125,-0.00044326187344267964,0.0006444379687309265,0.0018609293038025498
1761316511166489900,2.56348974609375,0.0005407760618254542,0.00013257842510938644,-0.0021684332750737667
1761316511176472000,2.57347216796875,0.0009286697022616863,0.002491725143045187,0.0028781576547771692
1761316511186455000,2.583455078125,0.0003259963123127818,-0.00031711114570498466,-0.000927233137190342
1761316511196437000,2.59343701171875,-0.001909265760332346,0.0002725152298808098,-0.0019556491170078516
1761316511206420000,2.603419921875,-0.000889008748345077,-0.0004694415256381035,-0.0007556285709142685
1761316511216402000,2.61340185546875,0.0010503497906029224,0.0004394063726067543,0.0007150997407734394
1761316511226385000,2.623385009765625,-0.00017523684073239565,-0.001566486433148384,-0.0009235432371497154
1761316511236367000,2.6333671875,0.001030048937536776,0.0007187165319919586,-0.0007509968709200621
1761316511246349800,2.643349853515625,0.001470269518904388,0.0005195122212171555,0.002182208700105548
1761316511256332000,2.65333203125,-0.0019995002076029778,0.0009582121856510639,-0.001871501561254263
1761316511266315000,2.66331494140625,0.00021651608403772116,0.00011026160791516304,-0.0012869376223534346
1761316511276297700,2.673297607421875,-0.0017039176309481263,0.0008612768724560738,0.0016836707945913076
1761316511286280000,2.683280029296875,0.0008726908126845956,0.001256756018847227,-0.0010452703572809696
1761316511296263000,2.693262939453125,0.0013057959731668234,0.0016285320743918419,0.0009868191555142403
1761316511306244900,2.703244873046875,0.0007667720783501863,0.001590981613844633,-0.0022172299213707447
1761316511316227800,2.713227783203125,-0.002271961886435747,-0.00028206733986735344,0.0007340193260461092
1761316511326210000,2.7232099609375,0.00007241894491016865,-0.0022746443282812834,-0.002254846505820751
1761316511336192800,2.73319287109375,-0.0006535308202728629,-0.0006529781967401505,0.0006768229650333524
1761316511346175000,2.743175048828125,0.0007174644852057099,0.0010288082994520664,-0.0010877875611186028
1761316511356158000,2.753157958984375,0.0013262653956189752,0.0008963332511484623,-0.0008888214360922575
1761316511366140000,2.763139892578125,0.0013236022787168622,-0.0016320720314979553,-0.0010739110875874758
1761316511376123000,2.773122802734375,-0.0012645396636798978,-0.0004872456192970276,0.0028435077983886003
1761316511386104800,2.783104736328125,0.00024094537366181612,-0.0007317238487303257,0.0005590481450781226
1761316511396087800,2.793087890625,0.00042347959242761135,-0.0011863214895129204,-0.00014716642908751965
1761316511406071000,2.803071044921875,-0.00016614433843642473,-0.0005357111804187298,0.00045390892773866653
1761316511416052700,2.813052734375,-0.0023673572577536106,-0.001980291912332177,-0.0021239679772406816
1761316511426036000,2.823035888671875,-0.0016869197133928537,-0.0009834705851972103,0.002448146929964423
1761316511436018000,2.833017822265625,-0.0004478651680983603,0.001116893719881773,-0.0017420544754713774
1761316511446001000,2.8430009765625,-0.002020994434133172,0.002119573764503002,0.0001887371763586998
1761316511455982800,2.85298291015625,-0.0018190667033195496,-0.0007573817856609821,-0.0010707674082368612
1761316511465966000,2.862966064453125,-0.0011333026923239231,-0.00017601391300559044,0.00034150690771639347
1761316511475947800,2.87294775390625,-0.00023336801677942276,-0.00187032506801188,0.0009170511038973927
1761316511485931000,2.882930908203125,0.0009418848203495145,-0.0008247680962085724,-0.00023556500673294067
1761316511495913000,2.892912841796875,-0.00048096897080540657,-0.0011839056387543678,-0.001051686704158783
1761316511505896000,2.90289599609375,-0.0020871213637292385,-0.00045819440856575966,-0.0002785709220916033
1761316511515879000,2.91287890625,-0.0010907638352364302,-0.0018463009037077427,-0.0006135548464953899
1761316511525861000,2.922861083984375,-0.0020122176501899958,0.000959339551627636,0.0027857040986418724
1761316511535843800,2.93284375,-0.0025453208945691586,0.0005066283047199249,0.0005035822978243232
1761316511545826000,2.942825927734375,-0.0005426236893981695,-0.0007296106778085232,0.0005768191767856479
1761316511555809000,2.95280908203125,-0.0006012602825649083,-0.0004302184097468853,0.0007406584918498993
1761316511565791000,2.962791015625,0.0032065275590866804,0.0016933861188590527,0.00037047918885946274
1761316511575774000,2.97277392578125,0.0012957124272361398,0.0021970272064208984,-0.0007584935519844294
1761316511585756000,2.982755859375,0.0011692122789099813,0.0016851676627993584,-0.00008444744162261486
1761316511595739000,2.99273876953125,-0.0017410889267921448,0.001491994597017765,0.001415621256455779
1761316511605721000,3.00272119140625,-0.000281144049949944,-0.000653980765491724,-0.0008240973111242056
1761316511615703800,3.012703857421875,-0.0007413013954646885,0.0010769814252853394,-0.00012780074030160904
1761316511625686000,3.02268603515625,-0.0032939412631094456,-0.0011012181639671326,-0.002311059972271323
1761316511635669000,3.0326689453125,-0.0021635042503476143,-0.0019509221892803907,0.0003831055946648121
1761316511645651700,3.042651611328125,-0.000011403695680201054,0.00011222902685403824,0.000802020775154233
1761316511655634000,3.052634033203125,-0.00047805055510252714,0.00010311231017112732,0.001487329020164907
1761316511665617000,3.062616943359375,0.00001649849582463503,0.00011190073564648628,-0.0009531918913125992
1761316511675598800,3.072598876953125,0.00036798068322241306,-0.0004223659634590149,0.00046721380203962326
1761316511685581800,3.082581787109375,-0.000950284069404006,0.00096141267567873,-0.0006635643076151609
1761316511695564000,3.09256396484375,-0.0009538005106151104,-0.0012037502601742744,0.000049549853429198265
1761316511705546800,3.102546630859375,0.002200713846832514,-0.0004199822433292866,0.0037894267588853836
1761316511715529000,3.112529052734375,-0.0002562921727076173,-0.0007243957370519638,0.000267616705968976
1761316511725512000,3.122511962890625,0.0023195170797407627,-0.0007739304564893246,-0.0006796696688979864
1761316511735494000,3.132493896484375,-0.00027891574427485466,-0.0024266678374260664,-0.0015063893515616655
1761316511745476900,3.142476806640625,0.0005637084832414985,-0.0027720797806978226,-0.000573483994230628
1761316511755460000,3.152460205078125,0.0036249621771275997,0.00173975620418787,0.0004887745017185807
1761316511765441800,3.16244189453125,0.0005066671874374151,-0.0001513543538749218,0.0010099551873281598
1761316511775425000,3.172425048828125,0.0008977862307801843,0.0016990723088383675,-0.0008931201882660389
1761316511785406700,3.18240673828125,0.00011588202323764563,-0.0001342478208243847,0.0014603151939809322
1761316511795390000,3.192389892578125,-0.0005312545690685511,-0.0011550611816346645,-0.0009837644174695015
1761316511805372000,3.202371826171875,-0.00007798452861607075,-0.000761179719120264,0.0009443641174584627
1761316511815355000,3.21235498046875,0.0010196000803261995,-0.0006115594878792763,0.0009770176839083433
1761316511825336800,3.2223369140625,-0.0004368826630525291,0.00031708506867289543,0.00023639248684048653
1761316511835320000,3.232320068359375,-0.003746705362573266,-0.001036500558257103,-0.002323294524103403
1761316511845301800,3.2423017578125,-0.0008028472075238824,-0.0012631355784833431,-0.001400775508955121
1761316511855285000,3.252284912109375,-0.00141910242382437,-0.0019332172814756632,0.002490835729986429
1761316511865268000,3.26226806640625,-0.00002360600046813488,-0.0024147166404873133,0.0004553818143904209
1761316511875250000,3.27225,0.004264241550117731,0.002996266819536686,-0.0007099115755409002
1761316511885233000,3.28223291015625,0.002731592394411564,0.000863873865455389,-0.000743999844416976
1761316511895215000,3.292215087890625,0.0018428408075124025,0.0005173832178115845,-0.0009384907316416502
1761316511905197800,3.30219775390625,-0.0006773085915483534,0.0008404245600104332,-0.0008367581758648157
1761316511915180000,3.312179931640625,-0.0009886818006634712,-0.001327334437519312,-0.001778930425643921
1761316511925163300,3.322163330078125,0.0007764612091705203,0.00034113600850105286,0.00171566940844059
1761316511935145200,3.332145263671875,-0.002379278652369976,0.00010809162631630898,0.000733033986762166
1761316511945128200,3.342128173828125,0.002723870798945427,0.00038506044074893,0.0010771143715828657
1761316511955110100,3.352110107421875,0.000765541335567832,0.0003190087154507637,0.0011776661267504096
1761316511965093000,3.362093017578125,0.0016923213843256235,-0.00006928015500307083,0.0010999018559232354
1761316511975075300,3.372075439453125,0.0023845296818763018,-0.0006455965340137482,0.001071974285878241
1761316511985058000,3.38205810546875,0.003316103247925639,-0.0003750193864107132,0.0013606608845293522
1761316511995041000,3.392041015625,-0.0026239226572215557,0.0001788688823580742,0.0007268895860761404
1761316512005023200,3.402023193359375,0.0007337906863540411,-0.0022786962799727917,0.0005417999345809221
1761316512015006000,3.412005859375,0.0000028080539777874947,0.0001613055355846882,-0.00046745804138481617
1761316512024988200,3.42198828125,0.0021860674023628235,-0.002568967407569289,0.0009682520758360624
1761316512034971100,3.43197119140625,-0.00007702852599322796,-0.0011773845180869102,0.004754948429763317
1761316512044953000,3.441953125,0.0014042217517271638,0.000863129273056984,0.0008443626575171947
1761316512054936000,3.45193603515625,0.0014498447999358177,0.0006556729786098003,0.003485035616904497
1761316512064918300,3.461918212890625,0.0003590141423046589,0.0013161366805434227,-0.001601868076249957
1761316512074901000,3.47190087890625,-0.0007373656262643635,-0.00024133548140525818,-0.0019799470901489258
1761316512084883200,3.48188330078125,-0.0018412459176033735,-0.0008256332948803902,0.0026009560097008944
1761316512094866200,3.4918662109375,-0.0006545367068611085,0.0014480208046734333,-0.0006430842913687229
1761316512104849200,3.50184912109375,0.0009359030518680811,0.0011183219030499458,0.00005679461173713207
1761316512114831000,3.5118310546875,0.0015899757854640484,0.003185420762747526,-0.0003315825015306473
1761316512124814300,3.521814453125,-0.00040020456071943045,0.000268460251390934,0.00018586963415145874
1761316512134796000,3.531796142578125,0.0012736693024635315,-0.0016096215695142746,-0.002093529561534524
1761316512144779300,3.541779296875,0.0029067196883261204,0.0011238469742238522,0.001569382380694151
1761316512154761000,3.551760986328125,0.0027910855133086443,0.0021406514570116997,0.0005200615851208568
1761316512164744200,3.561744140625,0.0002104826271533966,0.0005523418076336384,-0.0005268270615488291
1761316512174726100,3.57172607421875,0.00021911284420639277,0.0028062020428478718,0.002603346249088645
1761316512184709000,3.581709228515625,0.0007967525161802769,0.0005867239087820053,-0.0003618174232542515
1761316512194691000,3.591691162109375,-0.0006030594231560826,0.0015103728510439396,-0.0007476010359823704
1761316512204674300,3.60167431640625,0.0019802066963166,-0.00028512999415397644,0.00020208233036100864
1761316512214656000,3.611656005859375,0.0001954096369445324,0.0025876122526824474,-0.0011244025081396103
1761316512224639200,3.62163916015625,0.003800530917942524,-0.00041590118780732155,0.0007637786911800504
1761316512234622200,3.631622314453125,-0.0008783254306763411,-0.0025014770217239857,-0.0008227196522057056
1761316512244604200,3.641604248046875,-0.0008399758953601122,-0.00028945552185177803,0.0034580454230308533
1761316512254587100,3.651587158203125,-0.0006532883271574974,-0.0019848239608108997,-0.0007425583899021149
1761316512264569300,3.6615693359375,-0.0018351991893723607,0.0008735470473766327,0.0010670594638213515
1761316512274552000,3.671552001953125,-0.002316510770469904,-0.00252460571937263,0.00003991834819316864
1761316512284534300,3.6815341796875,-0.0007029013941064477,-0.0027062331791967154,0.0017712393309921026
1761316512294517200,3.691517333984375,0.0003284348640590906,-0.0010720989666879177,0.0013927333056926727
1761316512304499200,3.701499267578125,0.0028208871372044086,-0.000755715649574995,-0.0004949152935296297
1761316512314482200,3.711482177734375,0.0030726620461791754,0.0009266478009521961,-0.0010753388050943613
1761316512324464000,3.721464111328125,0.000914702657610178,0.0008669928647577763,0.0018101962050423026
1761316512334447000,3.731447021484375,-0.0009580862242728472,-0.0005378853529691696,-0.0023437044583261013
1761316512344430300,3.741430419921875,-0.00043903611367568374,0.000030166935175657272,0.00043184193782508373
1761316512354412000,3.751412109375,0.0011980629060417414,0.0002528214827179909,0.001560037024319172
1761316512364395300,3.761395263671875,-0.0015745541313663125,-0.0004028487019240856,-0.001126826275140047
1761316512374377200,3.771377197265625,0.0030548686627298594,0.0003558737225830555,-0.0004900135099887848
1761316512384360200,3.781360107421875,0.002670041983947158,0.001231520902365446,0.00008576200343668461
1761316512394342100,3.791342041015625,0.0010435166768729687,0.0002267705276608467,-0.002723577432334423
1761316512404325000,3.8013251953125,-0.0009155045263469219,-0.00518610468134284,0.0017137816175818443
1761316512414307000,3.81130712890625,-0.0018681592773646116,0.005135113839060068,0.0022779274731874466
1761316512424290300,3.821290283203125,-0.0017600348219275475,-0.0001467340625822544,0.002582859480753541
1761316512434272300,3.831272216796875,-0.0004302576999180019,-0.0007573389448225498,-0.00006415206007659435
1761316512444255200,3.841255126953125,0.000046181841753423214,0.0018616137094795704,-0.0017419434152543545
1761316512454238200,3.85123828125,-0.0017817032057791948,-0.0007002507336437702,-0.0012409763876348734
1761316512464220200,3.86122021484375,0.0006801229901611805,0.0004494357854127884,-0.00437232106924057
1761316512474203100,3.871203125,0.0009299257071688771,0.00399001594632864,-0.0008531310595571995
1761316512484185300,3.881185302734375,0.000995173235423863,0.00044614775106310844,-0.0021125399507582188
1761316512494168300,3.891168212890625,0.0013471267884597182,0.0018232711590826511,-0.0013055664021521807
1761316512504150300,3.901150390625,-0.00041988055454567075,0.0007896982133388519,-0.0006885121110826731
1761316512514133200,3.91113330078125,-0.002084197010844946,-0.0006358963437378407,0.0009809081675484776
1761316512524115200,3.921115234375,0.0002729669213294983,0.0005526724271476269,0.002229131758213043
1761316512534098200,3.93109814453125,0.0018997369334101677,-0.001114127691835165,0.0005001906538382173
1761316512544080400,3.941080322265625,0.0008203575853258371,0.000770325306802988,0.00017635035328567028
1761316512554063000,3.95106298828125,-0.0014874039916321635,0.00036466866731643677,-0.0005022452678531408
1761316512564045300,3.96104541015625,0.0010465937666594982,-0.0004087132401764393,-0.0005938580725342035
1761316512574028300,3.9710283203125,-0.000472687475848943,-0.00022496376186609268,-0.002328872215002775
1761316512584011000,3.981010986328125,-0.0012561894254758954,-0.0019179352093487978,0.00012816023081541061
1761316512593993200,3.9909931640625,-0.0012170892441645265,-0.0006062053143978119,0.0007137097418308258
1761316512603976200,4.00097607421875,0.0006101055769249797,0.0002787630073726177,-0.0009763322304934263
1761316512613958100,4.010958251953125,0.004070259630680084,-0.002567179501056671,-0.0013442360796034336
1761316512623941000,4.020941162109375,-0.00014552450738847256,-0.0003991001285612583,0.0007681832648813725
1761316512633923000,4.030923095703125,0.0024491737131029367,-0.0006576529704034328,0.0022091371938586235
1761316512643906000,4.040906005859375,-0.0005021414253860712,-0.0014424864202737808,0.002475453307852149
1761316512653888300,4.05088818359375,0.0003346062730997801,0.002175167202949524,-0.0000336342491209507
1761316512663871200,4.060871337890625,-0.0026697057764977217,-0.0014352807775139809,0.0009847586043179035
1761316512673853200,4.070853271484375,-0.0013950944412499666,-0.0002826652489602566,-0.002235165098682046
1761316512683836200,4.080836181640625,0.0006438216660171747,-0.00022061355412006378,0.00029750121757388115
1761316512693819400,4.0908193359375,0.0005398014327511191,0.0011152545921504498,-0.0015572302509099245
1761316512703801000,4.100801025390625,0.000008500763215124607,-0.001943119801580906,-0.0012102203909307718
1761316512713784300,4.110784423828125,0.000246769399382174,0.0014335722662508488,0.001242221100255847
1761316512723766000,4.12076611328125,0.00025049783289432526,-0.0010791202075779438,-0.0028420027811080217
1761316512733749200,4.130749267578125,0.0010057042818516493,0.002734517212957144,-0.00023043155670166016
1761316512743731200,4.140731201171875,0.0002602854510769248,-0.000039165373891592026,-0.0021809309255331755
1761316512753714200,4.150714111328125,0.0005488900933414698,0.0019028265960514545,-0.00010304735042154789
1761316512763696000,4.160696044921875,-0.001642625080421567,0.00009986665099859238,0.0010389161761850119
1761316512773679400,4.170679443359375,0.00012241338845342398,-0.0015281373634934425,0.00016860547475516796
1761316512783661000,4.1806611328125,0.002094484167173505,0.002026650123298168,0.0016328113852068782
1761316512793644300,4.190644287109375,0.0018249601125717163,0.0012749950401484966,-0.0021499013528227806
1761316512803626000,4.2006259765625,0.002339483005926013,0.0027874046936631203,-0.0009466852061450481
1761316512813609200,4.210609130859375,-0.003249149536713958,0.0007973122410476208,0.0002886692527681589
1761316512823592200,4.22059228515625,0.0003442537272349,-0.0000932491384446621,-0.003237888915464282
1761316512833574100,4.23057421875,-0.0005379977519623935,-0.0007606232538819313,0.0007334972033277154
1761316512843557000,4.24055712890625,-0.0007364032207988203,-0.002119634300470352,0.0010176565265282989
1761316512853539300,4.250539306640625,0.0022362598683685064,0.0001873648725450039,-0.0008504290599375963
1761316512863522300,4.260522216796875,-0.001067125122062862,0.0024372031912207603,0.0005863462574779987
1761316512873504300,4.270504150390625,-0.0016734495293349028,-0.0025827891658991575,-0.00025397283025085926
1761316512883487200,4.2804873046875,0.0012546959333121777,0.00036027003079652786,0.00018251920118927956
1761316512893469200,4.29046923828125,0.00017970753833651543,-0.00015479372814297676,0.0016686476301401854
1761316512903452200,4.3004521484375,-0.0009824959561228752,-0.0007417541928589344,-0.0010736093390733004
1761316512913434400,4.310434326171875,-0.0029906912241131067,-0.0007726415060460567,-0.0017832894809544086
1761316512923416800,4.320416748046875,-0.00014457094948738813,-0.0008312310092151165,-0.0025452198460698128
1761316512933399800,4.33039990234375,-0.0009563480853103101,0.002043378073722124,-0.000985849415883422
1761316512943381800,4.3403818359375,-0.0007550130831077695,-0.0007372284308075905,-0.0011496336665004492
1761316512953364700,4.35036474609375,-0.0014870560262352228,-0.0007204045541584492,0.0005025862483307719
1761316512963346700,4.3603466796875,-0.00035254936665296555,-0.00018457695841789246,-0.0022271540947258472
1761316512973329700,4.37032958984375,0.0014247457729652524,-0.0004792544059455395,0.0014448869042098522
1761316512983312000,4.380311767578125,0.0018971905810758471,-0.002010305877774954,0.001640096539631486
1761316512993294600,4.390294677734375,-0.0008146876352839172,-0.0010099834762513638,-0.002271800534799695
1761316513003276800,4.40027685546875,0.004024276044219732,0.000673667062073946,0.00011039711534976959
1761316513013259800,4.410259765625,0.0002494900254532695,0.0010528047569096088,-0.0023834393359720707
1761316513023241700,4.42024169921875,-0.0009401440038345754,0.0015729200094938278,-0.003138445783406496
1761316513033224700,4.430224609375,-0.000513868872076273,0.0006717429496347904,0.0003875133115798235
1761316513043206700,4.44020654296875,0.0009857570985332131,0.0026877564378082752,-0.0029241275042295456
1761316513053189600,4.450189697265625,-0.000640755461063236,-0.0008829529397189617,-0.00016075465828180313
1761316513063172900,4.4601728515625,0.0009531464893370867,0.0026292232796549797,0.0005644242046400905
1761316513073154600,4.470154541015625,0.0031368364579975605,0.0020171552896499634,-0.001877220580354333
1761316513083137800,4.4801376953125,-0.00025443267077207565,-0.0006244340911507607,-0.0011736133601516485
1761316513093119700,4.49011962890625,0.0012033891398459673,0.0020919530652463436,0.0014750601258128881
1761316513103102700,4.500102783203125,-0.001644062576815486,0.0001899232156574726,-0.0013974253088235855
1761316513113084700,4.510084716796875,-0.0013539146166294813,-0.0006240261718630791,-0.0017052723560482264
1761316513123068000,4.52006787109375,-0.003328648628666997,-0.0028427059296518564,-0.0002405338454991579
1761316513133049600,4.530049560546875,0.0013396580470725894,-0.0019413940608501434,-0.0020810153800994158
1761316513143032800,4.54003271484375,0.0023521920666098595,-0.0017232811078429222,0.0012849539052695036
1761316513153014800,4.550014892578125,-0.0015701822703704238,-0.00022245198488235474,0.0003230208531022072
1761316513162997800,4.559997802734375,0.0004903054796159267,-0.0011079530231654644,-0.001215487252920866
1761316513172980700,4.569980712890625,0.0011553828371688724,-0.001436668448150158,0.0005212048999965191
1761316513182963000,4.579962890625,0.0008017151849344373,-0.0015839412808418274,-0.0006860061548650265
1761316513192945700,4.589945556640625,0.0011330682318657637,-0.0007015303708612919,-0.001998764928430319
1761316513202927900,4.599927978515625,-0.0022893601562827826,-0.0016200547106564045,-0.0011076715309172869
1761316513212910800,4.609910888671875,0.00019329623319208622,-0.0020141226705163717,0.001936300890520215
1761316513222892800,4.619892822265625,0.0004268554039299488,-0.00039465446025133133,-0.0002560133580118418
1761316513232875800,4.629875732421875,0.0004022378707304597,-0.0006071152165532112,0.00006399932317435741
1761316513242857700,4.639857666015625,0.0010147648863494396,-0.0002119019627571106,0.0013021029299125075
1761316513252840700,4.6498408203125,-0.0009023956954479218,0.0005033235065639019,0.000929154921323061
1761316513262823000,4.659822998046875,-0.0015926870983093977,0.0021749893203377724,0.0005027828738093376
1761316513272805600,4.6698056640625,-0.00006217916961759329,-0.0017718072049319744,0.0014215013943612576
1761316513282787800,4.679787841796875,0.001965019153431058,0.0003443406894803047,0.0016784964827820659
1761316513292770800,4.689770751953125,-0.00023118231911212206,0.0007762168534100056,0.0016392871038988233
1761316513302753800,4.69975390625,0.0009723001858219504,0.002721655648201704,-0.0008672801777720451
1761316513312735700,4.70973583984375,0.0037434245459735394,0.0006547579541802406,-0.0007377795409411192
1761316513322719000,4.719718994140625,-0.001681434572674334,-0.0004909336566925049,-0.0004280537832528353
1761316513332700700,4.72970068359375,-0.0010614170460030437,-0.0006513963453471661,0.0020044136326760054
1761316513342684000,4.739683837890625,-0.0017418547067791224,0.000445027370005846,0.0007322215242311358
1761316513352665900,4.749665771484375,-0.001847788691520691,0.0008183480240404606,0.00025664782151579857
1761316513362648800,4.75964892578125,-0.0000027507776394486427,0.0023904121480882168,-0.00135270063765347
1761316513372630800,4.769630859375,0.0010582308750599623,0.0005238768644630909,0.0003137076273560524
1761316513382614000,4.779614013671875,-0.000034996774047613144,-0.000015946105122566223,0.0004990635206922889
1761316513392595700,4.789595703125,-0.0006024623871780932,0.0011442676186561584,-0.0007826341316103935
1761316513402579000,4.799578857421875,0.0004327083006501198,-0.0003582877106964588,0.0005659905727952719
1761316513412562000,4.80956201171875,0.00009693612810224295,-0.0016893446445465088,0.0005734827136620879
1761316513422544000,4.8195439453125,-0.0012330464087426662,0.00017753150314092636,-0.0016603765543550253
1761316513432526800,4.82952685546875,0.0009527724469080567,-0.0007188254967331886,-0.0008952326606959105
1761316513442508800,4.8395087890625,0.0002574211684986949,-0.000356901902705431,-0.0019005758222192526
1761316513452491800,4.84949169921875,-0.0017905079293996096,-0.0013992986641824245,-0.0016696883831173182
1761316513462474000,4.859473876953125,-0.0004927495610900223,-0.0010794526897370815,0.0006768228486180305
1761316513472456700,4.869456787109375,0.0009092013351619244,0.0020700828172266483,0.0028431310784071684
1761316513482439000,4.87943896484375,-0.00008761999197304249,-0.0017456943169236183,0.0005581388249993324
1761316513492422000,4.889421875,-0.0005020629032514989,-0.00039604073390364647,0.0021324751432985067
1761316513502403800,4.89940380859375,-0.00017715722788125277,-0.0013457238674163818,0.0015452482039108872
1761316513512386800,4.90938671875,-0.0010101415682584047,0.000951776746660471,0.0009761657565832138
1761316513522369000,4.919369140625,0.000747544807381928,-0.00041495729237794876,-0.0014758065808564425
1761316513532351700,4.929351806640625,0.0007454698206856847,-0.0011515053920447826,-0.000031361356377601624
1761316513542334700,4.939334716796875,-0.0006252590683288872,0.00005943421274423599,0.001533245900645852
1761316513552317000,4.94931689453125,0.0007911701686680317,0.000970473513007164,0.0013133757747709751
1761316513562299600,4.959299560546875,0.001265212893486023,0.003185424953699112,-0.0009087659418582916
1761316513572281900,4.96928173828125,-0.0004993246402591467,-0.0003850311040878296,0.00009335693903267384
1761316513582264800,4.979264892578125,-0.0035510410089045763,-0.00041592400521039963,0.00023477082140743732
1761316513592246800,4.989246826171875,0.000918471603654325,0.00174001045525074,-0.0003924907650798559
1761316513602229800,4.999229736328125,0.0015632229624316096,-0.0013162335380911827,0.0019292528741061687
1761316513612211700,5.009211669921875,0.001037036650814116,-0.0006198030896484852,-0.0010848327074199915
1761316513622194700,5.019194580078125,0.0009337059454992414,-0.0006331191398203373,0.0016446411609649658
1761316513632177000,5.029177001953125,-0.002260542009025812,0.00015278812497854233,-0.0003607547841966152
1761316513642159600,5.03915966796875,-0.0012733081821352243,0.00016637006774544716,0.0010065122041851282
1761316513652142800,5.049142822265625,0.00010738137643784285,0.0009048697538673878,0.000024986686185002327
1761316513662124800,5.059124755859375,-0.0025035818107426167,0.00032536592334508896,0.00021273968741297722
1761316513672107800,5.069107666015625,-0.00044320058077573776,-0.0013158321380615234,-0.0011165686883032322
1761316513682089700,5.07908984375,0.0019262137357145548,0.0015742303803563118,0.00013032346032559872
1761316513692073000,5.089072998046875,0.0011999952839687467,0.0008839373476803303,-0.0019471042323857546
1761316513702054700,5.0990546875,0.0005097037646919489,-0.0007515102624893188,0.0004824977368116379
1761316513712038000,5.109037841796875,-0.0006394233205355704,0.00015709269791841507,-0.001931135542690754
1761316513722019800,5.119019775390625,0.001950234523974359,-0.00010869093239307404,-0.0005846414715051651
1761316513732002800,5.1290029296875,-0.0008177445270121098,0.001068572048097849,0.00013941270299255848
1761316513741984800,5.13898486328125,0.00039665692020207644,-0.0014750133268535137,-0.00048536481335759163
1761316513751968000,5.148968017578125,0.0013318777782842517,0.0010293349623680115,0.0015538758598268032
1761316513761950700,5.15895068359375,0.0007265411550179124,-0.0015075919218361378,-0.0025892036501318216
1761316513771933000,5.168932861328125,0.00032151956111192703,0.0023167897015810013,0.0016879900358617306
1761316513781916000,5.178916015625,0.00033616693690419197,0.0020320983603596687,-0.0001991258468478918
1761316513791897900,5.18889794921875,-0.0016507059335708618,-0.0035404714290052652,-0.0009860624559223652
1761316513801880800,5.198880859375,-0.00021259894128888845,-0.0003992728888988495,0.0024398278910666704
1761316513811862800,5.20886279296875,0.0034007227513939142,-0.0015173275023698807,-0.002067740773782134
1761316513821845800,5.218845703125,0.0012129361275583506,-0.0010848301462829113,-0.0001060564536601305
1761316513831828000,5.228827880859375,-0.0006841407157480717,0.0026652785018086433,-0.001161361811682582
1761316513841810700,5.238810791015625,0.000740384217351675,-0.0026325476355850697,0.00008073635399341583
1761316513851793000,5.24879296875,-0.0007836883887648582,0.0016648918390274048,-0.0014563146978616714
1761316513861776000,5.25877587890625,-0.00016876449808478355,0.0016286731697618961,-0.0008445864077657461
1761316513871757800,5.2687578125,-0.0016167240682989359,-0.00005601951852440834,-0.0004280232824385166
1761316513881740800,5.27874072265625,-0.0016960863722488284,0.001496070995926857,-0.0000490555539727211
1761316513891723800,5.288723876953125,0.0014562963042408228,0.002207111567258835,0.0016670406330376863
1761316513901705700,5.298705810546875,-0.0019038139143958688,-0.0015146560035645962,-0.000746582169085741
1761316513911688700,5.308688720703125,0.0005747256800532341,0.0008798874914646149,-0.003709109965711832
1761316513921671200,5.318671142578125,-0.00044925970723852515,0.0006766882725059986,0.000004135770723223686
1761316513931654000,5.32865380859375,-0.00026588968466967344,-0.002628037938848138,-0.0005872929468750954
1761316513941636000,5.338635986328125,0.0006590260891243815,-0.0016096453182399273,-0.0010187248699367046
1761316513951619000,5.348619140625,-0.00029810983687639236,0.0019220169633626938,0.0017313447315245867
1761316513961601000,5.35860107421875,0.002594349440187216,0.00047165947034955025,0.0006532971747219563
1761316513971584000,5.368583984375,0.0015501240268349648,0.0015728767029941082,-0.00024019344709813595
1761316513981566000,5.37856591796875,-0.0014198332792147994,0.0005467603914439678,-0.001292940927669406
1761316513991549000,5.388548828125,0.00253895646892488,0.001345465425401926,0.0015209998236969113
1761316514001531100,5.39853125,-0.0016371464589610696,0.00003572273999452591,0.00039528170600533485
1761316514011513900,5.408513916015625,0.001815535593777895,-0.00036242371425032616,-0.0002602378372102976
1761316514021497000,5.4184970703125,0.0028712123166769743,0.001188601367175579,0.000268666073679924
1761316514031479000,5.42847900390625,0.0031296450179070234,0.000770732294768095,0.0016530477441847324
1761316514041462000,5.4384619140625,0.0019205696880817413,0.0007662051357328892,-0.00004817941226065159
1761316514051444000,5.44844384765625,-0.0005929760518483818,0.0008823052048683167,0.000656945863738656
1761316514061427200,5.45842724609375,0.0002999819116666913,-0.0007347660139203072,-0.0007193756755441427
1761316514071409000,5.468408935546875,-0.00009086332283914089,-0.0019315853714942932,0.00030472525395452976
1761316514081392000,5.47839208984375,0.0011658824514597654,-0.0008261073380708694,-0.002279872540384531
1761316514091374000,5.4883740234375,0.0008492853958159685,0.0010705864988267422,-0.0011581138242036104
1761316514101357000,5.498357177734375,0.0013616776559501886,-0.002544121816754341,-0.000019612489268183708
1761316514111339000,5.508339111328125,-0.001646307297050953,0.0009822286665439606,0.0006953487172722816
1761316514121322200,5.518322265625,-0.0012436372926458716,0.0015374980866909027,-0.00008628913201391697
1761316514131305000,5.528304931640625,0.00046764907892793417,-0.0022898337338119745,-0.00012995745055377483
1761316514141287200,5.538287109375,0.0010295761749148369,-0.00039153266698122025,0.002399246674031019
1761316514151270100,5.548270263671875,-0.0003354469081386924,-0.0013134479522705078,-0.0012197389733046293
1761316514161252000,5.558252197265625,0.00035777396988123655,0.0011241431348025799,0.0015512802638113499
1761316514171235000,5.568235107421875,-0.00045704637886956334,0.0034605618566274643,-0.001097074244171381
1761316514181217000,5.578217041015625,-0.0005547844339162111,-0.001781337894499302,0.00019429274834692478
1761316514191200000,5.588199951171875,0.0009105356875807047,-0.0021084509789943695,-0.004256746731698513
1761316514201182200,5.59818212890625,-0.0010365013731643558,-0.001857581315562129,-0.001039914321154356
1761316514211165000,5.6081650390625,-0.00033720763167366385,-0.0019475873559713364,-0.0002351424191147089
1761316514221147100,5.618147216796875,-0.0005404068506322801,-0.0019419945310801268,0.0027971328236162663
1761316514231130000,5.628130126953125,0.00015003315638750792,-0.0002310425043106079,-0.000008396338671445847
1761316514241112000,5.638112060546875,0.0016539202770218253,0.0010483404621481895,-0.0006422286387532949
1761316514251095000,5.648094970703125,0.0006990225519984961,0.001242288388311863,0.0016131468582898378
1761316514261078000,5.658078125,0.0008867753203958273,0.00008754199370741844,0.0001409514807164669
1761316514271060000,5.66806005859375,0.0007359865121543407,0.0003139674663543701,0.0017455583438277245
1761316514281043000,5.67804296875,-0.0006318130763247609,-0.0018666288815438747,-0.0013279959093779325
1761316514291025200,5.688025146484375,-0.00008494872599840164,-0.0006014290265738964,-0.0010073017328977585
1761316514301008000,5.6980078125,0.0011441002134233713,-0.001920492621138692,-0.0016294161323457956
1761316514310990000,5.707989990234375,-0.001105805509723723,-0.0006254715844988823,-0.0022598421201109886
1761316514320973000,5.71797314453125,0.000979449599981308,0.00021475600078701973,-0.00016633118502795696
1761316514330955000,5.727955078125,0.0012645460665225983,-0.0004160618409514427,-0.0001619323156774044
1761316514340938000,5.73793798828125,-0.0009759714012034237,-0.0002528098411858082,-0.0009174712467938662
1761316514350920000,5.747919921875,0.001811617985367775,0.00004071323201060295,0.0014680370222777128
1761316514360903000,5.75790283203125,-0.0006318324012681842,-0.0017950036562979221,-0.00008059130050241947
1761316514370886100,5.76788623046875,0.000692955800332129,-0.0010059187188744545,-0.0015728597063571215
1761316514380867800,5.777867919921875,-0.0005928182508796453,-0.00022028619423508644,0.001192033989354968
1761316514390851000,5.78785107421875,0.0003418924752622843,-0.0018229912966489792,0.0005225342465564609
1761316514400833000,5.7978330078125,0.0016140843508765101,0.00019168993458151817,0.0006588880205526948
1761316514410816000,5.80781591796875,0.0006716009229421616,-0.0005627037025988102,0.00043458444997668266
1761316514420798000,5.8177978515625,0.002703859005123377,0.00032892264425754547,-0.0018173845019191504
1761316514430781200,5.82778125,-0.002873796969652176,-0.0019959984347224236,-0.0012418306432664394
1761316514440763000,5.837762939453125,0.0020602415315806866,-0.00005695084109902382,-0.0025166857521981
1761316514450746000,5.84774609375,-0.000753697007894516,0.002060593105852604,-0.0003231596201658249
1761316514460727800,5.857727783203125,0.0006591100245714188,0.0006637652404606342,0.0017684870399534702
1761316514470711000,5.8677109375,-0.000018643098883330822,0.0013402500189840794,-0.0009997885208576918
1761316514480693000,5.87769287109375,-0.0014474289491772652,-0.0005202344618737698,0.000008750706911087036
1761316514490676200,5.88767626953125,-0.000669912900775671,-0.0003990870900452137,-0.000635793898254633
1761316514500659000,5.897658935546875,-0.00011038279626518488,-0.0010387781076133251,-0.000894919503480196
1761316514510641200,5.90764111328125,-0.0011485056020319462,0.0014470219612121582,0.0017638178542256355
1761316514520624000,5.9176240234375,0.0017181208822876215,0.00034793559461832047,0.000881512532941997
1761316514530606000,5.927606201171875,-0.00048584159230813384,-0.000870176125317812,-0.001958800246939063
1761316514540589000,5.937589111328125,0.0025664072018116713,0.0003554103896021843,0.0017882672837004066
1761316514550571000,5.947571044921875,-0.0019759060814976692,-0.0011618677526712418,-0.0008463736157864332
1761316514560554000,5.957553955078125,0.0021080514416098595,0.0019316603429615498,0.0008119766134768724
1761316514570536200,5.9675361328125,-0.00005346536636352539,0.0021645138040184975,-0.00023920508101582527
1761316514580519000,5.977518798828125,0.0004669162444770336,-0.0006467187777161598,-0.0003691671881824732
1761316514590501000,5.987501220703125,0.003356336848810315,-0.0012227483093738556,0.0014574727974832058
1761316514600484000,5.997484130859375,0.0005901112454012036,-0.002163643017411232,-0.0004219198599457741
1761316514610466000,6.007466064453125,0.0005963225848972797,-0.002114073606207967,0.0017592418007552624
1761316514620449000,6.017448974609375,-0.0030519417487084866,0.0006345752626657486,-0.0026964929420500994
1761316514630432300,6.027432373046875,-0.0004534990293905139,0.0000477139838039875,-0.0000539624597877264
1761316514640414000,6.0374140625,-0.00017040502279996872,-0.0004279264248907566,0.001230213907547295
1761316514650397200,6.047397216796875,0.0007940533105283976,-0.00033357180655002594,0.0015522581525146961
1761316514660379000,6.05737890625,0.00016155245248228312,0.0005242321640253067,0.00006914371624588966
1761316514670362000,6.067362060546875,0.0001096273772418499,-0.0009335107170045376,0.0007420025067403913
1761316514680344000,6.077343994140625,0.00035197497345507145,0.000809794757515192,-0.0005573537200689316
1761316514690327000,6.0873271484375,-0.0015176291344687343,-0.0011185714974999428,0.0018289029831066728
1761316514700309000,6.09730908203125,0.0009239568607881665,0.0007344558835029602,0.0007902701618149877
1761316514710292200,6.107292236328125,0.0005813597235828638,-0.0007903994992375374,0.0003616821486502886
1761316514720274000,6.11727392578125,0.00252120615914464,-0.00008918903768062592,-0.0008969276677817106
1761316514730257200,6.127257080078125,-0.000021257204934954643,-0.0011433511972427368,0.000025416025891900063
1761316514740240100,6.137240234375,-0.0006843843148089945,0.0011994312517344952,-0.0006968332454562187
1761316514750222000,6.14722216796875,-0.00026114913634955883,0.001992715522646904,-0.002653865609318018
1761316514760205000,6.157205078125,-0.000815086648799479,0.0015506311319768429,-0.000758227426558733
1761316514770187300,6.167187255859375,0.00003505509812384844,0.0002122451551258564,-0.000915903365239501
1761316514780170000,6.177169921875,0.0006651590811088681,0.0017776512540876865,0.0002255274448543787
1761316514790152200,6.187152099609375,0.0025343564338982105,0.001579177100211382,0.0013616232899948955
1761316514800135200,6.19713525390625,-0.001243071281351149,0.000998607836663723,-0.0011952777858823538
1761316514810117000,6.2071171875,0.0005489261820912361,-0.00044046761468052864,-0.0010603349655866623
1761316514820100000,6.21710009765625,0.0017942204140126705,0.00002345489338040352,-0.0006552680861204863
1761316514830082000,6.22708203125,0.0006433177040889859,0.0012461072765290737,0.0007092432351782918
1761316514840065000,6.23706494140625,0.002594882156699896,-0.0016364981420338154,-0.0011714810971170664
1761316514850047200,6.247047119140625,0.00010925938840955496,-0.0001961737871170044,-0.001529341796413064
1761316514860030000,6.257030029296875,0.0015348495217040181,0.00032261013984680176,-0.0019282831344753504
1761316514870013000,6.267012939453125,-0.00048475508810952306,0.0008872677572071552,0.0008994275704026222
1761316514879995100,6.2769951171875,-0.00021950423251837492,-0.0009487154893577099,0.000622192514128983
1761316514889977900,6.286977783203125,0.0004366125212982297,-0.0019120951183140278,-0.0004408967215567827
1761316514899960000,6.2969599609375,-0.0010694049997255206,-0.0006441641598939896,-0.0009492940735071898
1761316514909943000,6.306943115234375,0.003345139091834426,-0.0003267275169491768,-0.0005428739823400974
1761316514919925000,6.316925048828125,-0.0010189828462898731,0.0004317406564950943,-0.00016124313697218895
1761316514929907700,6.32690771484375,0.0026038051582872868,0.0007010377012193203,-0.0002639363519847393
1761316514939889700,6.3368896484375,0.002042410895228386,-0.00010989466682076454,0.0007832186529412866
1761316514949872600,6.34687255859375,-0.0018799202516674995,-0.0009708902798593044,-0.0023418664932250977
1761316514959854600,6.3568544921875,-0.0002535277744755149,0.0006738780066370964,0.00033114850521087646
1761316514969837600,6.366837646484375,0.000034123193472623825,0.00007925229147076607,0.0002732262946665287
1761316514979819800,6.37681982421875,0.00030816253274679184,-0.0035751373507082462,-0.001641586422920227
1761316514989802500,6.386802490234375,0.0001282034208998084,-0.0024108875077217817,-0.000688974978402257
1761316514999785700,6.39678564453125,0.00003712333273142576,-0.0005868882872164249,-0.00019016512669622898
1761316515009767700,6.406767578125,0.0023080543614923954,0.001655105035752058,-0.0008761596400290728
1761316515019751000,6.4167509765625,-0.00043659936636686325,0.0012244717217981815,-0.0007744270842522383
1761316515029732600,6.426732666015625,0.0014472813345491886,-0.0016734423115849495,-0.000301840016618371
1761316515039715800,6.4367158203125,0.0021373063791543245,0.001459767110645771,-0.0018976060673594475
1761316515049697500,6.446697509765625,0.0012089882511645555,0.001180310733616352,0.000004695728421211243
1761316515059680800,6.4566806640625,0.0012952745892107487,0.00022929580882191658,0.00009604217484593391
1761316515069662700,6.466662841796875,-0.000036093639209866524,0.0002745315432548523,0.001528894528746605
1761316515079645700,6.476645751953125,-0.00022544432431459427,0.0026306300424039364,-0.00001707044430077076
1761316515089627600,6.486627685546875,-0.000736176676582545,0.0009340588003396988,-0.0003279563970863819
1761316515099611000,6.49661083984375,-0.0015532345278188586,-0.0012760981917381287,-0.0005455366335809231
1761316515109593600,6.506593505859375,0.0006245099939405918,-0.00027172500267624855,0.0027176050934940577
1761316515119575800,6.516575927734375,-0.002381932456046343,-0.0022264854051172733,0.0006477962015196681
1761316515129558800,6.526558837890625,-0.0001340092858299613,0.000718223862349987,-0.0003908863291144371
1761316515139540700,6.536540771484375,0.00012804579455405474,-0.0002841898240149021,0.0009806416928768158
1761316515149523700,6.546523681640625,-0.0011712193954735994,0.0011418364010751247,-0.00016508717089891434
1761316515159505700,6.556505615234375,-0.0010692202486097813,0.00004248321056365967,-0.0002577651757746935
1761316515169488600,6.566488525390625,-0.0025273701176047325,0.001627577468752861,0.0016911355778574944
1761316515179470800,6.576470947265625,0.004127070773392916,0.00030531780794262886,0.0010221494594588876
1761316515189453600,6.58645361328125,0.0006769484607502818,-0.0007370770908892155,0.00011061760596930981
1761316515199435800,6.596435791015625,0.0033606160432100296,-0.00030617788434028625,0.0029114640783518553
1761316515209418800,6.606418701171875,-0.0008384596440009773,-0.002191924722865224,0.0010365583002567291
1761316515219400700,6.616400634765625,0.0020585269667208195,-0.0024944599717855453,0.0007944769458845258
1761316515229383700,6.6263837890625,0.0009360880358144641,-0.0008702380582690239,0.00044860795605927706
1761316515239366700,6.63636669921875,-0.002488470636308193,-0.0014342954382300377,-0.0001687128096818924
1761316515249348600,6.6463486328125,0.002159654162824154,0.0005494379438459873,-0.0009395182132720947
1761316515259331600,6.65633154296875,0.0023532661143690348,-0.000680143479257822,-0.00007345830090343952
1761316515269313800,6.666313720703125,-0.00029023142997175455,-0.001243671402335167,0.000014505581930279732
1761316515279296500,6.676296630859375,0.0016200538957491517,-0.0028423666954040527,-0.0018710121512413025
1761316515289278700,6.68627880859375,-0.0007367780199274421,-0.00006151897832751274,-0.0004247897304594517
1761316515299261700,6.69626171875,0.0012451463844627142,0.00006657931953668594,0.0010929458076134324
1761316515309243600,6.70624365234375,-0.0004547156859189272,0.0010843104682862759,-0.0012943018227815628
1761316515319226600,6.7162265625,0.0012819316470995545,0.0014438373036682606,0.002287650015205145
1761316515329208600,6.72620849609375,-0.002665936714038253,-0.0018208087421953678,0.0008785853860899806
1761316515339191600,6.736191650390625,-0.0013881520135328174,-0.002293786033987999,-0.0021765930578112602
1761316515349173800,6.746173828125,0.00006588816177099943,-0.00021912436932325363,-0.002042627427726984
1761316515359156700,6.75615673828125,0.001831830246374011,0.0005699703469872475,0.0006564862560480833
1761316515369139700,6.7661396484375,-0.0005062230047769845,-0.002668515546247363,-0.0011613261885941029
1761316515379121700,6.77612158203125,-0.0011134237283840775,0.0004234141670167446,0.0013953082961961627
1761316515389104600,6.786104736328125,0.0011681518517434597,0.0011448250152170658,0.003726166905835271
1761316515399086600,6.796086669921875,-0.0026753221172839403,0.002338985912501812,-0.00022782827727496624
1761316515409069800,6.80606982421875,0.00012821354903280735,0.0002299472689628601,0.0008167305495589972
1761316515419051500,6.816051513671875,-0.0006193357985466719,0.0017106649465858936,-0.0011518781539052725
1761316515429034800,6.82603466796875,-0.00011621450539678335,-0.0004904991947114468,-0.000010038027539849281
1761316515439016700,6.8360166015625,0.0004893883597105742,-0.002047649584710598,0.0014413846656680107
1761316515448999700,6.845999755859375,0.0022239615209400654,0.0013666553422808647,0.00020769191905856133
1761316515458981600,6.855981689453125,0.0007714735111221671,-0.00001685693860054016,0.00020209932699799538
1761316515468964900,6.86596484375,0.0005193090764805675,-0.0013463227078318596,-0.0011411791201680899
1761316515478947600,6.875947509765625,-0.001037841197103262,0.00046436022967100143,-0.0009188051335513592
1761316515488929800,6.8859296875,0.0010264812735840678,-0.0015066182240843773,-0.0003602667711675167
1761316515498912800,6.895912841796875,-0.0010286802425980568,-0.001261340919882059,0.00019846437498927116
1761316515508894700,6.905894775390625,-0.00022361497394740582,-0.0002627680078148842,-0.00010397331789135933
1761316515518877700,6.915877685546875,-0.0007916672038845718,-0.0002630343660712242,0.0013794073602184653
1761316515528859600,6.925859619140625,-0.0009739813976921141,-0.0023773261345922947,-0.001043945550918579
1761316515538842600,6.935842529296875,0.0024849320761859417,-0.0028649510350078344,-0.00009106658399105072
1761316515548824800,6.945824951171875,-0.0018968477379530668,-0.00013189669698476791,0.0017482956172898412
1761316515558807600,6.9558076171875,-0.0008680685423314571,-0.0007351026870310307,0.001780786202289164
1761316515568789800,6.965789794921875,-0.0010836594738066196,-6.742775440216064e-7,0.0012503555044531822
1761316515578772700,6.975772705078125,0.0002665632637217641,-0.00022038491442799568,0.002424809383228421
1761316515588754700,6.985754638671875,-0.0005967621109448373,-0.0005035526119172573,0.0017932571936398745
1761316515598737700,6.995737548828125,-0.0004361735191196203,0.0005918056704103947,-0.0005724288057535887
1761316515608720000,7.005719970703125,-0.0015561998588964343,0.0018084673210978508,-0.0007581494282931089
1761316515618702600,7.01570263671875,-0.0016938853077590466,-0.0018925275653600693,-0.0006521556060761213
1761316515628685800,7.025685791015625,-0.000845095666591078,0.00036015966907143593,-0.0010743180755525827
1761316515638667800,7.035667724609375,-0.000050941016525030136,0.0013908031396567822,0.000864463159814477
1761316515648650800,7.045650634765625,-0.0009390858467668295,0.0009517758153378963,-0.0009676793124526739
1761316515658632700,7.0556328125,-0.00007142790127545595,0.0007331301458179951,-0.00009309710003435612
1761316515668616000,7.065615966796875,-0.0019584125839173794,0.00008511869236826897,0.0003506219945847988
1761316515678597600,7.07559765625,0.00004907825496047735,0.0016819504089653492,0.0015668877167627215
1761316515688580900,7.085580810546875,-0.00017518061213195324,0.00010571861639618874,-0.003881411859765649
1761316515698562600,7.0955625,-0.0024513844400644302,0.0010697832331061363,0.001925344462506473
1761316515708545800,7.1055458984375,0.0016120627988129854,-0.0004859035834670067,-0.0007168273441493511
1761316515718527700,7.11552783203125,-0.000888379174284637,0.00090826116502285,-0.0003818017430603504
1761316515728510700,7.1255107421875,-0.001246088184416294,-0.003063187003135681,-0.0008344599045813084
1761316515738493700,7.13549365234375,0.0031776889227330685,-0.0003917701542377472,0.00028539937920868397
1761316515748476000,7.145475830078125,-0.0027261464856565,0.0020433347672224045,0.0002867912407964468
1761316515758458600,7.155458740234375,0.00046192354056984186,-0.0006392677314579487,-0.0012208241969347
1761316515768440800,7.16544091796875,0.0009517822181805968,-0.0018029161728918552,0.0006512894760817289
1761316515778423800,7.175423828125,-0.0029699888546019793,0.000794731080532074,-0.0009300955571234226
1761316515788405800,7.18540576171875,-0.0009491469827480614,0.00028973305597901344,-0.0024838673416525126
1761316515798388700,7.195388671875,0.00014754279982298613,-0.0014977804385125637,0.0013651992194354534
1761316515808371000,7.205370849609375,-0.0011555765522643924,-0.0009614918380975723,-0.0003128345124423504
1761316515818353700,7.215353759765625,-0.001508711720816791,0.0007570460438728333,-0.0000497142318636179
1761316515828335900,7.2253359375,0.000919388490729034,-0.0007578078657388687,0.00003249663859605789
1761316515838318800,7.23531884765625,0.001535377581603825,-0.0016883164644241333,-0.000824508722871542
1761316515848300800,7.24530078125,0.00014371529687196016,0.000710188876837492,0.0010721462313085794
1761316515858283800,7.25528369140625,-0.0022688424214720726,-0.00020034611225128174,-0.003154556732624769
1761316515868266800,7.265266845703125,0.0010211062617599964,0.000004173256456851959,0.00007737311534583569
1761316515878248700,7.275248779296875,0.0017316376324743032,-0.0022182343527674675,0.00020760158076882362
1761316515888231700,7.285231689453125,0.0022607864812016487,-0.0009109550155699253,-0.0005390078295022249
1761316515898213600,7.295213623046875,0.0002178755821660161,-0.001304304227232933,0.0006873778766021132
1761316515908196600,7.305196533203125,0.0009093045955523849,-0.00025111855939030647,0.0009248913265764713
1761316515918178800,7.3151787109375,-0.001946136704646051,0.0020594396628439426,0.00031502731144428253
1761316515928162000,7.325162109375,-0.0004031936405226588,-0.00048111798241734505,-0.0007274700328707695
1761316515938144000,7.33514404296875,-0.0009206458926200867,0.0005258233286440372,0.000978550873696804
1761316515948127000,7.345126953125,-0.00003163388464599848,-0.001224979292601347,-0.0012700625229626894
1761316515958109200,7.355109130859375,0.0003571875859051943,0.000003003980964422226,-0.0013195972424000502
1761316515968092000,7.365091796875,-0.0008804896497167647,-0.001460936851799488,-0.0023947148583829403
1761316515978074000,7.37507421875,0.00003244203981012106,0.001493574120104313,-0.0013318473938852549
1761316515988057000,7.38505712890625,-0.00015174259897321463,0.0014387350529432297,-0.00031199841760098934
1761316515998040000,7.3950400390625,0.0007689121412113309,0.0011591031216084957,0.0005362182855606079
1761316516008022000,7.40502197265625,-0.001707143965177238,0.0004622768610715866,-0.00032678269781172276
1761316516018005200,7.415005126953125,0.001360551337711513,0.000915813259780407,0.0005033245543017983
1761316516027987000,7.424987060546875,0.0009579845936968923,0.00040088966488838196,-0.0019143784884363413
1761316516037970200,7.43497021484375,-0.00020421890076249838,0.0029402137733995914,-0.0014270201791077852
1761316516047952000,7.444951904296875,0.0012741235550493002,-0.0008470374159514904,0.0016565702389925718
1761316516057935000,7.45493505859375,-0.0026503107510507107,-0.0005269255489110947,0.0005111446371302009
1761316516067917000,7.4649169921875,-0.00291564897634089,0.0001070341095328331,0.00006444379687309265
1761316516077900000,7.474900146484375,-0.0029284320771694183,-0.00003677653148770332,0.00290603656321764
1761316516087882000,7.484882080078125,0.0025259654503315687,0.0022432622499763966,-0.0001696222461760044
1761316516097865200,7.494865234375,-0.0007944636163301766,-0.0005397414788603783,0.0007315914845094085
1761316516107848000,7.504847900390625,-0.000745275232475251,0.0014481893740594387,-0.0020968224853277206
1761316516117830100,7.514830078125,-0.0006832235958427191,-0.0013441350311040878,0.001696850173175335
1761316516127813000,7.524813232421875,0.0015114957932382822,-0.00045768870040774345,0.0026498534716665745
1761316516137795000,7.534795166015625,-0.00028640427626669407,-0.0010630255565047264,0.000005068257451057434
1761316516147778000,7.544778076171875,0.0018200883641839027,-0.001441214233636856,-0.0039161499589681625
1761316516157760300,7.55476025390625,0.0009566915687173605,0.0007449747063219547,0.00005622114986181259
1761316516167743000,7.564742919921875,0.0018327864818274975,-0.0026703979820013046,-0.0002699242904782295
1761316516177725200,7.57472509765625,-0.0006974827847443521,0.0016444558277726173,0.0005455357022583485
1761316516187708200,7.584708251953125,-0.001299992436543107,-0.0011852066963911057,0.0015053724637255073
1761316516197690000,7.594690185546875,0.0005668834783136845,0.0004025697708129883,0.0012156205484643579
1761316516207673000,7.604673095703125,0.001046188292093575,-0.0010743732564151287,-0.0017077377997338772
1761316516217655000,7.614655029296875,-0.0019701081328094006,0.02496921271085739,0.010634947568178177
1761316516227638000,7.624637939453125,-0.0019530047429725528,0.035421308130025864,0.019016483798623085
1761316516237620200,7.6346201171875,-0.00376022607088089,0.15546569228172302,0.06766711175441742
1761316516247603000,7.64460302734375,-0.008368808776140213,0.2021721452474594,0.09299120306968689
1761316516257586000,7.6545859375,-0.004077923949807882,0.1420944333076477,0.06447248160839081
1761316516267568000,7.664568115234375,0.0011870411690324545,-0.07406683266162872,-0.03621363267302513
1761316516277550800,7.67455078125,0.008537099696695805,-0.4059363901615143,-0.18746361136436462
1761316516287533000,7.684532958984375,0.006251947022974491,-0.008958151564002037,-0.009722565300762653
1761316516297516000,7.69451611328125,-0.00042779312934726477,0.03182043880224228,0.014377444051206112
1761316516307498000,7.704498046875,0.0007346230559051037,-0.02280391752719879,-0.011317035183310509
1761316516317481000,7.71448095703125,0.001865667523816228,-0.04258134961128235,-0.017328055575489998
