time,seconds_elapsed,z,y,x
1761315707471947800,0.07394775390625,0.6680731177330017,-0.10664400458335876,-0.14730452001094818
1761315707481929700,0.0839296875,0.6381489038467407,-0.09567198157310486,-0.06670482456684113
1761315707491912700,0.09391259765625,0.6097108721733093,-0.08736637979745865,-0.0017279568128287792
1761315707501894700,0.103894775390625,0.5774758458137512,-0.07959259301424026,0.042852409183979034
1761315707511876600,0.113876708984375,0.5512319803237915,-0.06508555263280869,0.06400136649608612
1761315707521859600,0.123859619140625,0.5370031595230103,-0.026893582195043564,0.06702397763729095
1761315707531841800,0.133841796875,0.5293670892715454,0.015358534641563892,0.04648088291287422
1761315707541823700,0.14382373046875,0.532075822353363,0.052789151668548584,0.011860670521855354
1761315707551806700,0.153806640625,0.535365104675293,0.0768691897392273,-0.03439870476722717
1761315707561788700,0.16378857421875,0.5265880823135376,0.08548013865947723,-0.06924072653055191
1761315707571770600,0.1737705078125,0.5132003426551819,0.09966733306646347,-0.09264671802520752
1761315707581753900,0.18375390625,0.5124451518058777,0.11098791658878326,-0.09383516758680344
1761315707591735600,0.193735595703125,0.5131580829620361,0.10901930928230286,-0.08071990311145782
1761315707601717800,0.2037177734375,0.5161769986152649,0.10497264564037323,-0.061342086642980576
1761315707611700700,0.21370068359375,0.5032327175140381,0.12225416302680969,-0.02815111167728901
1761315707621682700,0.2236826171875,0.49126389622688293,0.12999168038368225,0.011523625813424587
1761315707631664600,0.23366455078125,0.4831167757511139,0.13400720059871674,0.042176343500614166
1761315707641647600,0.243647705078125,0.47970083355903625,0.1335274875164032,0.06806234270334244
1761315707651629600,0.253629638671875,0.48197731375694275,0.14524565637111664,0.08867014944553375
1761315707661611500,0.263611572265625,0.487300306558609,0.15666066110134125,0.10240936279296875
1761315707671594500,0.273594482421875,0.4980834424495697,0.15849345922470093,0.10916367173194885
1761315707681576700,0.28357666015625,0.4995855987071991,0.14639496803283691,0.09731462597846985
1761315707691559700,0.2935595703125,0.492565780878067,0.11575476080179214,0.06902040541172028
1761315707701541600,0.303541748046875,0.473270446062088,0.06886285543441772,0.0333591103553772
1761315707711523800,0.31352392578125,0.4483901262283325,0.027412615716457367,0.00046907365322113037
1761315707721506600,0.323506591796875,0.4151221215724945,0.024162657558918,-0.03038899600505829
1761315707731488800,0.33348876953125,0.38135698437690735,0.04138931632041931,-0.05351588502526283
1761315707741470500,0.343470458984375,0.36074113845825195,0.06143620237708092,-0.07614417374134064
1761315707751453700,0.35345361328125,0.35181236267089844,0.06406155228614807,-0.10821688920259476
1761315707761435600,0.363435546875,0.34594669938087463,0.042438603937625885,-0.12955421209335327
1761315707771417600,0.37341748046875,0.34221720695495605,0.018351640552282333,-0.15057507157325745
1761315707781400600,0.383400634765625,0.3341614305973053,-0.0008495771326124668,-0.15978191792964935
1761315707791382800,0.3933828125,0.3293437659740448,0.0009065112099051476,-0.167893648147583
1761315707801364700,0.40336474609375,0.32743144035339355,0.004748121369630098,-0.17589150369167328
1761315707811347700,0.41334765625,0.3297446668148041,0.007103420328348875,-0.1842048168182373
1761315707821329700,0.42332958984375,0.329825758934021,0.020149899646639824,-0.192427396774292
1761315707831311600,0.4333115234375,0.3256283402442932,0.028060821816325188,-0.19775745272636414
1761315707841294800,0.443294921875,0.3224851191043854,0.02167654037475586,-0.19745422899723053
1761315707851276500,0.453276611328125,0.32848602533340454,0.02198280394077301,-0.19030098617076874
1761315707861258800,0.4632587890625,0.34659141302108765,0.03377927839756012,-0.18284760415554047
1761315707871241500,0.473241455078125,0.3773730397224426,0.028592238202691078,-0.17835432291030884
1761315707881223700,0.4832236328125,0.42126330733299255,0.0062530734576284885,-0.17138025164604187
1761315707891206000,0.493205810546875,0.45361804962158203,-0.030075905844569206,-0.16410022974014282
1761315707901188600,0.503188720703125,0.4737415611743927,-0.06845808029174805,-0.15513120591640472
1761315707911170800,0.5131708984375,0.48062798380851746,-0.09764419496059418,-0.14244604110717773
1761315707921152500,0.523152587890625,0.4725639820098877,-0.11878176778554916,-0.13088560104370117
1761315707931135700,0.5331357421875,0.46066951751708984,-0.135240375995636,-0.12220928817987442
1761315707941117700,0.54311767578125,0.44952285289764404,-0.14558328688144684,-0.11386586725711823
1761315707951099600,0.553099609375,0.4358440637588501,-0.14346075057983398,-0.10155513882637024
1761315707961082600,0.56308251953125,0.42828720808029175,-0.12382528185844421,-0.08739815652370453
1761315707971064600,0.573064697265625,0.422809898853302,-0.10423081368207932,-0.07085540145635605
1761315707981046800,0.583046875,0.41820794343948364,-0.08427007496356964,-0.055826179683208466
1761315707991029800,0.59302978515625,0.4164888560771942,-0.07585448771715164,-0.04677702486515045
1761315708001011700,0.60301171875,0.42101699113845825,-0.06156722083687782,-0.04453618451952934
1761315708010993700,0.61299365234375,0.43129679560661316,-0.0474519319832325,-0.04758603498339653
1761315708020977000,0.622976806640625,0.4409434199333191,-0.05277182161808014,-0.05051489546895027
1761315708030958600,0.63295849609375,0.4402659237384796,-0.06503994017839432,-0.05592218041419983
1761315708040940800,0.64294091796875,0.42694351077079773,-0.07593165338039398,-0.06351333856582642
1761315708050923500,0.652923583984375,0.40428426861763,-0.08846582472324371,-0.0725822001695633
1761315708060905700,0.66290576171875,0.38287749886512756,-0.10522139817476273,-0.08584032207727432
1761315708070887700,0.6728876953125,0.3573335111141205,-0.1185808777809143,-0.10034522414207458
1761315708080870700,0.68287060546875,0.32281869649887085,-0.11637400090694427,-0.10661701112985611
1761315708090852900,0.692852783203125,0.2818097472190857,-0.10449230670928955,-0.12402743101119995
1761315708100834600,0.70283447265625,0.23729491233825684,-0.09789275377988815,-0.1423088163137436
1761315708110817800,0.71281787109375,0.19671127200126648,-0.10960080474615097,-0.1717231571674347
1761315708120799700,0.7227998046875,0.1544976681470871,-0.1330084204673767,-0.20350277423858643
1761315708130781700,0.73278173828125,0.11583628505468369,-0.14233560860157013,-0.2300422340631485
1761315708140764700,0.7427646484375,0.07341957837343216,-0.14316584169864655,-0.25129732489585876
1761315708150747000,0.752746826171875,0.038370512425899506,-0.1332024335861206,-0.26672154664993286
1761315708160728600,0.762728515625,0.008344637230038643,-0.12231060117483139,-0.28000888228416443
1761315708170711800,0.7727119140625,-0.006032437086105347,-0.10962489992380142,-0.29036352038383484
1761315708180693800,0.78269384765625,-0.017878413200378418,-0.09464991837739944,-0.2976560890674591
1761315708190675700,0.79267578125,-0.017138320952653885,-0.07908453792333603,-0.3002026081085205
1761315708200658700,0.80265869140625,-0.019871801137924194,-0.06901504099369049,-0.2923588454723358
1761315708210640600,0.812640625,-0.019397493451833725,-0.04875824227929115,-0.28061988949775696
1761315708220623600,0.82262353515625,-0.013960108160972595,-0.003281239653006196,-0.25473499298095703
1761315708230605800,0.832605712890625,-0.00460282526910305,0.054413482546806335,-0.22672893106937408
1761315708240587800,0.842587890625,0.011659793555736542,0.11306802928447723,-0.20292963087558746
1761315708250570800,0.85257080078125,0.029517887160182,0.1706724762916565,-0.17954707145690918
1761315708260552700,0.862552734375,0.05791007727384567,0.21862582862377167,-0.15897555649280548
1761315708270534700,0.87253466796875,0.08151499927043915,0.2539592981338501,-0.14165009558200836
1761315708280518000,0.882517822265625,0.09426795691251755,0.26996710896492004,-0.1290249228477478
1761315708290499600,0.89249951171875,0.10528066009283066,0.27961307764053345,-0.1166824996471405
1761315708300481800,0.902481689453125,0.11361727863550186,0.3005598187446594,-0.11080483347177505
1761315708310464800,0.91246484375,0.11306147277355194,0.316731333732605,-0.1058976948261261
1761315708320446700,0.92244677734375,0.11836416274309158,0.33376219868659973,-0.11300264298915863
1761315708330429000,0.932428955078125,0.13094013929367065,0.34561407566070557,-0.11931406706571579
1761315708340411600,0.94241162109375,0.1454821676015854,0.3575378656387329,-0.14332357048988342
1761315708350393900,0.952393798828125,0.15692763030529022,0.34823331236839294,-0.1763632893562317
1761315708360375600,0.96237548828125,0.1674252152442932,0.3348448574542999,-0.2221195250749588
1761315708370358800,0.97235888671875,0.17207801342010498,0.31851115822792053,-0.26943644881248474
1761315708380340700,0.9823408203125,0.17030642926692963,0.3008197247982025,-0.3166961669921875
1761315708390322700,0.99232275390625,0.16694125533103943,0.27252283692359924,-0.35258039832115173
1761315708400305700,1.0023056640625,0.17123983800411224,0.2522859573364258,-0.37687432765960693
1761315708410287900,1.012287841796875,0.17850333452224731,0.24270176887512207,-0.3736756145954132
1761315708420269800,1.022269775390625,0.1858925223350525,0.2786453664302826,-0.3456677794456482
1761315708430252800,1.032252685546875,0.20079663395881653,0.367158442735672,-0.29090386629104614
1761315708440234800,1.04223486328125,0.23523487150669098,0.44159114360809326,-0.23273953795433044
1761315708450216700,1.052216796875,0.27981966733932495,0.49012190103530884,-0.17678625881671906
1761315708460200000,1.062199951171875,0.30268946290016174,0.4993664026260376,-0.14901597797870636
1761315708470181600,1.072181640625,0.3026609420776367,0.4610123634338379,-0.13193872570991516
1761315708480163800,1.082163818359375,0.2807919979095459,0.3785603940486908,-0.12410853803157806
1761315708490146800,1.092146728515625,0.2347765564918518,0.23867465555667877,-0.11470571160316467
1761315708500128800,1.102128662109375,0.14406707882881165,0.041670724749565125,-0.10050739347934723
1761315708510111000,1.112111083984375,0.015215611085295677,-0.1412266492843628,-0.07622922211885452
1761315708520093700,1.12209375,-0.10908438265323639,-0.27974680066108704,-0.024391410872340202
1761315708530076000,1.132075927734375,-0.19077685475349426,-0.3121473491191864,0.06611771136522293
1761315708540057600,1.1420576171875,-0.2130664587020874,-0.2059480994939804,0.1925308257341385
1761315708550040800,1.152040771484375,-0.18535786867141724,0.004027504473924637,0.3402015268802643
1761315708560022800,1.162022705078125,-0.12163940817117691,0.2688632011413574,0.5007574558258057
1761315708570004700,1.172004638671875,-0.045302554965019226,0.5256729125976562,0.6411569118499756
1761315708579987700,1.18198779296875,0.0356551930308342,0.7373716831207275,0.7620874643325806
1761315708589970000,1.191969970703125,0.11101385951042175,0.8855187892913818,0.8610768914222717
1761315708599952000,1.201951904296875,0.17755134403705597,0.9825473427772522,0.9348711967468262
1761315708609934800,1.211934814453125,0.23484472930431366,1.0292633771896362,0.9904221296310425
1761315708619916800,1.221916748046875,0.282330721616745,1.0288962125778198,1.0332005023956299
1761315708629898800,1.231898681640625,0.3257240056991577,1.0041229724884033,1.068158507347107
1761315708639881700,1.2418818359375,0.36791738867759705,0.9725841283798218,1.1029860973358154
1761315708649863700,1.25186376953125,0.40825575590133667,0.9006074070930481,1.121469259262085
1761315708659846000,1.261845947265625,0.42788660526275635,0.7376343607902527,1.106040120124817
1761315708669828600,1.27182861328125,0.421040415763855,0.5040767192840576,1.0524771213531494
1761315708679810800,1.281810791015625,0.3854270279407501,0.21201129257678986,0.9638880491256714
1761315708689792800,1.291792724609375,0.3267543911933899,-0.10466279089450836,0.8568137884140015
1761315708699775700,1.301775634765625,0.24992616474628448,-0.3712575137615204,0.7342211604118347
1761315708709757700,1.3117578125,0.15050184726715088,-0.5498155355453491,0.5923625826835632
1761315708719739600,1.32173974609375,0.03649747744202614,-0.6813744306564331,0.44736507534980774
1761315708729722600,1.33172265625,-0.08205632865428925,-0.7665151357650757,0.2967055141925812
1761315708739704800,1.341704833984375,-0.18615105748176575,-0.7893790006637573,0.15137432515621185
1761315708749686800,1.351686767578125,-0.27774354815483093,-0.770949125289917,0.007979342713952065
1761315708759669800,1.361669677734375,-0.3490598201751709,-0.725496768951416,-0.12548215687274933
1761315708769651700,1.371651611328125,-0.403742253780365,-0.674170970916748,-0.22725538909435272
1761315708779633700,1.381633544921875,-0.427973210811615,-0.5786903500556946,-0.2824366092681885
1761315708789617000,1.391616943359375,-0.4064069390296936,-0.4362877309322357,-0.27903681993484497
1761315708799598600,1.4015986328125,-0.33980926871299744,-0.2589016258716583,-0.22125273942947388
1761315708809580800,1.411580810546875,-0.24306488037109375,-0.06131105497479439,-0.1234673261642456
1761315708819563800,1.421563720703125,-0.13550230860710144,0.15207110345363617,0.007185791619122028
1761315708829545700,1.431545654296875,-0.03736243396997452,0.35028591752052307,0.14519719779491425
1761315708839528000,1.44152783203125,0.04965326562523842,0.5108197927474976,0.25596484541893005
1761315708849510700,1.4515107421875,0.12414081394672394,0.6179624795913696,0.33766528964042664
1761315708859492900,1.461492919921875,0.1948162466287613,0.6466472744941711,0.37077224254608154
1761315708869474600,1.471474609375,0.23952458798885345,0.5914000272750854,0.3633529245853424
1761315708879457800,1.481457763671875,0.25340208411216736,0.4484374225139618,0.3154652714729309
1761315708889439700,1.491439697265625,0.22177544236183167,0.23629483580589294,0.24571333825588226
1761315708899421700,1.501421630859375,0.17323699593544006,0.00700379628688097,0.17787110805511475
1761315708909404700,1.51140478515625,0.12050533294677734,-0.2028258591890335,0.12003417313098907
1761315708919387000,1.521386962890625,0.06609851866960526,-0.40693455934524536,0.06753477454185486
1761315708929368800,1.531368896484375,0.017304614186286926,-0.5790330767631531,0.022875159978866577
1761315708939351800,1.541351806640625,-0.025030551478266716,-0.6965658068656921,-0.009134093299508095
1761315708949333800,1.551333740234375,-0.062390707433223724,-0.7685768604278564,-0.03647250682115555
1761315708959315700,1.561315673828125,-0.10014613717794418,-0.7902153134346008,-0.06060541793704033
1761315708969299000,1.571298828125,-0.14546941220760345,-0.7708474397659302,-0.07892769575119019
1761315708979280600,1.58128076171875,-0.1891774982213974,-0.686135470867157,-0.08549331873655319
1761315708989262800,1.591262939453125,-0.20890513062477112,-0.5535220503807068,-0.08242429047822952
1761315708999245600,1.60124560546875,-0.20655611157417297,-0.41179195046424866,-0.06946032494306564
1761315709009227800,1.611227783203125,-0.1916583925485611,-0.293866902589798,-0.05546887591481209
1761315709019210000,1.6212099609375,-0.17926651239395142,-0.21655131876468658,-0.04753146693110466
1761315709029192700,1.631192626953125,-0.1780792772769928,-0.181216761469841,-0.037524640560150146
1761315709039175000,1.6411748046875,-0.18485477566719055,-0.16686227917671204,-0.035047680139541626
1761315709049156600,1.651156494140625,-0.20211951434612274,-0.17012172937393188,-0.041190795600414276
1761315709059139800,1.661139892578125,-0.22573313117027283,-0.1751479208469391,-0.05635322257876396
1761315709069121800,1.671121826171875,-0.25542712211608887,-0.1799946129322052,-0.07325444370508194
1761315709079103700,1.681103759765625,-0.2857058048248291,-0.1834772676229477,-0.09466128051280975
1761315709089086700,1.691086669921875,-0.32517704367637634,-0.19732411205768585,-0.11880097538232803
1761315709099068700,1.701068603515625,-0.3724285662174225,-0.21931882202625275,-0.1569468379020691
1761315709109050600,1.711050537109375,-0.42108848690986633,-0.26184576749801636,-0.19503642618656158
1761315709119033900,1.721033935546875,-0.45300188660621643,-0.296160489320755,-0.21354205906391144
1761315709129015800,1.731015869140625,-0.4755154550075531,-0.30566051602363586,-0.21480385959148407
1761315709138998800,1.740998779296875,-0.48558318614959717,-0.2991456389427185,-0.1989232748746872
1761315709148980200,1.750980224609375,-0.4942706823348999,-0.29927587509155273,-0.18206892907619476
1761315709158962200,1.760962158203125,-0.5057847499847412,-0.311194509267807,-0.16380222141742706
1761315709168944000,1.770944091796875,-0.5177793502807617,-0.3352114260196686,-0.14129877090454102
1761315709178927000,1.780927001953125,-0.5240258574485779,-0.36736294627189636,-0.12005425244569778
1761315709188909000,1.790908935546875,-0.5345823764801025,-0.4015401005744934,-0.10457329452037811
1761315709198892000,1.80089208984375,-0.545539379119873,-0.4369260370731354,-0.11218876391649246
1761315709208874200,1.810874267578125,-0.5700088143348694,-0.49421489238739014,-0.12844257056713104
1761315709218856200,1.820856201171875,-0.6002286076545715,-0.5580933094024658,-0.1350119411945343
1761315709228839200,1.830839111328125,-0.6303223371505737,-0.5850258469581604,-0.1171029657125473
1761315709238821000,1.840821044921875,-0.6510116457939148,-0.5668194890022278,-0.08275971561670303
1761315709248803000,1.850802978515625,-0.6591407060623169,-0.45924001932144165,-0.02558351494371891
1761315709258785300,1.860785400390625,-0.6235479116439819,-0.2936602532863617,0.04790719971060753
1761315709268768000,1.87076806640625,-0.5585029125213623,-0.1936771720647812,0.09757434576749802
1761315709278750200,1.880750244140625,-0.5134612321853638,-0.16273848712444305,0.0959557294845581
1761315709288733200,1.890733154296875,-0.49072715640068054,-0.22162124514579773,0.024073276668787003
1761315709298715100,1.900715087890625,-0.5021616816520691,-0.3841201961040497,-0.11435794830322266
1761315709308697300,1.910697265625,-0.5903272032737732,-0.6367694735527039,-0.32348960638046265
1761315709318680000,1.92068017578125,-0.7817597985267639,-0.8926655054092407,-0.5662226676940918
1761315709328662300,1.930662353515625,-1.0275161266326904,-1.022657036781311,-0.7808907628059387
1761315709338644000,1.94064404296875,-1.2346203327178955,-0.9460979700088501,-0.9360446929931641
1761315709348627200,1.950627197265625,-1.353455901145935,-0.7364203333854675,-1.0122355222702026
1761315709358609200,1.960609130859375,-1.38156259059906,-0.43314439058303833,-1.0003043413162231
1761315709368591000,1.970591064453125,-1.3321706056594849,-0.054696157574653625,-0.9004025459289551
1761315709378574000,1.980573974609375,-1.2033913135528564,0.3139938712120056,-0.743408739566803
1761315709388556300,1.990556396484375,-1.0296977758407593,0.6179766654968262,-0.5577933192253113
1761315709398538200,2.000538330078125,-0.8424346446990967,0.845536470413208,-0.3660886287689209
1761315709408521200,2.010521240234375,-0.6651877164840698,0.9709340333938599,-0.19064144790172577
1761315709418503200,2.020503173828125,-0.5046859383583069,0.9703296422958374,-0.02082468569278717
1761315709428485000,2.030485107421875,-0.35883790254592896,0.8631890416145325,0.14502818882465363
1761315709438468000,2.040468017578125,-0.2357630580663681,0.7021116018295288,0.3172071874141693
1761315709448450000,2.050449951171875,-0.11981727182865143,0.5089751482009888,0.4989815354347229
1761315709458432300,2.060432373046875,-0.015428179875016212,0.2910177707672119,0.6691632270812988
1761315709468415000,2.0704150390625,0.06441605091094971,0.05472056567668915,0.8347554206848145
1761315709478397200,2.080397216796875,0.1229577362537384,-0.16222600638866425,0.9788856506347656
1761315709488379100,2.090379150390625,0.15633326768875122,-0.33313143253326416,1.099361538887024
1761315709498362000,2.100362060546875,0.15296640992164612,-0.45033395290374756,1.1847461462020874
1761315709508344000,2.110343994140625,0.10358075052499771,-0.5187162160873413,1.223400592803955
1761315709518326000,2.120325927734375,0.011470986530184746,-0.5463870763778687,1.202147364616394
1761315709528309000,2.13030908203125,-0.113874152302742,-0.54441899061203,1.1222004890441895
1761315709538291200,2.140291259765625,-0.2624366283416748,-0.5274682641029358,0.9737263321876526
1761315709548273200,2.150273193359375,-0.4049815237522125,-0.4833439588546753,0.7726103067398071
1761315709558256000,2.160256103515625,-0.5238215327262878,-0.38031306862831116,0.5561231374740601
1761315709568238000,2.170238037109375,-0.6003914475440979,-0.22489523887634277,0.3553263545036316
1761315709578220000,2.180219970703125,-0.6367799639701843,-0.05180918797850609,0.19479788839817047
1761315709588203300,2.190203369140625,-0.6354371905326843,0.10827209055423737,0.08649458736181259
1761315709598185000,2.20018505859375,-0.6099290251731873,0.25079163908958435,0.03775612637400627
1761315709608167200,2.210167236328125,-0.5628413558006287,0.35407355427742004,0.029889680445194244
1761315709618150100,2.220150146484375,-0.5032503604888916,0.3954254686832428,0.0585758276283741
1761315709628132000,2.230132080078125,-0.4502878487110138,0.38613688945770264,0.10860677808523178
1761315709638114300,2.2401142578125,-0.40513503551483154,0.339730441570282,0.16450780630111694
1761315709648097000,2.250096923828125,-0.3701903820037842,0.2627299427986145,0.21013255417346954
1761315709658079200,2.260079345703125,-0.3565439283847809,0.1509697586297989,0.23891237378120422
1761315709668061000,2.27006103515625,-0.3765557110309601,0.03028276190161705,0.2477671205997467
1761315709678044200,2.280044189453125,-0.4140263497829437,-0.09117700159549713,0.218074232339859
1761315709688026000,2.290026123046875,-0.4560614228248596,-0.18606969714164734,0.17123854160308838
1761315709698008000,2.300008056640625,-0.49095332622528076,-0.2368016391992569,0.11351045966148376
1761315709707991000,2.309990966796875,-0.507748007774353,-0.24808838963508606,0.037811700254678726
1761315709717973200,2.31997314453125,-0.5260395407676697,-0.25877314805984497,-0.041176557540893555
1761315709727955200,2.329955078125,-0.5607120394706726,-0.24701529741287231,-0.12147006392478943
1761315709737938200,2.339938232421875,-0.5949802994728088,-0.21166642010211945,-0.2065189927816391
1761315709747920100,2.349920166015625,-0.6264471411705017,-0.16229248046875,-0.3026023805141449
1761315709757902000,2.359902099609375,-0.6466917991638184,-0.11030871421098709,-0.4096406102180481
1761315709767885300,2.36988525390625,-0.6666135787963867,-0.06715831160545349,-0.5206262469291687
1761315709777867000,2.379866943359375,-0.6930620670318604,-0.03260780870914459,-0.6231971979141235
1761315709787849200,2.38984912109375,-0.6919629573822021,0.004028498660773039,-0.6929528713226318
1761315709797832200,2.399832275390625,-0.6657399535179138,0.052435215562582016,-0.7343823313713074
1761315709807814100,2.409814208984375,-0.6272692680358887,0.09070910513401031,-0.7514668107032776
1761315709817796400,2.41979638671875,-0.5890647768974304,0.11953595280647278,-0.7420341372489929
1761315709827779000,2.429779052734375,-0.5347104668617249,0.15657013654708862,-0.7029165625572205
1761315709837761300,2.43976123046875,-0.47500550746917725,0.19586828351020813,-0.6314570307731628
1761315709847743000,2.449742919921875,-0.40505465865135193,0.21261638402938843,-0.5334503054618835
1761315709857726200,2.459726318359375,-0.3406633138656616,0.20443397760391235,-0.42215418815612793
1761315709867708200,2.469708251953125,-0.27511411905288696,0.17972037196159363,-0.3102838397026062
1761315709877690000,2.479690185546875,-0.21222950518131256,0.13981348276138306,-0.22238679230213165
1761315709887673000,2.489673095703125,-0.16425585746765137,0.08170516788959503,-0.1543901562690735
1761315709897655300,2.4996552734375,-0.13081234693527222,0.017588995397090912,-0.11137048900127411
1761315709907637000,2.509636962890625,-0.11034408956766129,-0.04345039278268814,-0.10361482948064804
1761315709917620200,2.5196201171875,-0.11144642531871796,-0.11302957683801651,-0.11997545510530472
1761315709927602200,2.529602294921875,-0.13099296391010284,-0.18297722935676575,-0.1590629369020462
1761315709937584000,2.539584228515625,-0.15937282145023346,-0.23941075801849365,-0.22303837537765503
1761315709947567000,2.549567138671875,-0.20696963369846344,-0.26719605922698975,-0.3061063587665558
1761315709957549000,2.559549072265625,-0.2632971704006195,-0.2775457501411438,-0.3954710066318512
1761315709967531300,2.56953125,-0.3193814754486084,-0.26019924879074097,-0.4768822491168976
1761315709977514000,2.579513916015625,-0.3697078227996826,-0.24961447715759277,-0.5455166101455688
1761315709987496200,2.58949609375,-0.41541990637779236,-0.21499231457710266,-0.596614420413971
1761315709997478100,2.59947802734375,-0.4445299506187439,-0.09365684539079666,-0.6186286211013794
1761315710007461000,2.609461181640625,-0.44123056530952454,0.12007807940244675,-0.6169117093086243
1761315710017443000,2.619443115234375,-0.3975827395915985,0.3356953561306,-0.6012624502182007
1761315710027425000,2.629425048828125,-0.33195048570632935,0.4488711655139923,-0.6070513725280762
1761315710037408000,2.639407958984375,-0.2599569857120514,0.41207829117774963,-0.6329787373542786
1761315710047390200,2.64939013671875,-0.19687069952487946,0.2671123147010803,-0.6568449139595032
1761315710057372200,2.6593720703125,-0.15363404154777527,0.07210057973861694,-0.6622135043144226
1761315710067355100,2.669355224609375,-0.14462696015834808,-0.19782517850399017,-0.6487792134284973
1761315710077337000,2.679337158203125,-0.17263412475585938,-0.5124108791351318,-0.6330054998397827
1761315710087319000,2.689319091796875,-0.2228163331747055,-0.7572675347328186,-0.5879456400871277
1761315710097302300,2.69930224609375,-0.28087449073791504,-0.8668608069419861,-0.4921095371246338
1761315710107284000,2.709283935546875,-0.3264898955821991,-0.8076493740081787,-0.3395655155181885
1761315710117266200,2.71926611328125,-0.34799322485923767,-0.5715104937553406,-0.14805275201797485
1761315710127249200,2.729249267578125,-0.3267907202243805,-0.22282040119171143,0.06260755658149719
1761315710137231000,2.739231201171875,-0.27292028069496155,0.14433301985263824,0.26943179965019226
1761315710147213300,2.74921337890625,-0.1948702186346054,0.45561283826828003,0.4446329176425934
1761315710157196000,2.759196044921875,-0.1169256940484047,0.6916447281837463,0.5700408816337585
1761315710167178200,2.76917822265625,-0.03820504993200302,0.8227015137672424,0.6501940488815308
1761315710177160000,2.779159912109375,0.045153819024562836,0.8506683707237244,0.697162926197052
1761315710187143200,2.78914306640625,0.13409540057182312,0.8357626795768738,0.731086790561676
1761315710197125000,2.799125,0.22087298333644867,0.7997215986251831,0.7609476447105408
1761315710207107000,2.809107177734375,0.2848929762840271,0.7162671685218811,0.7870703339576721
1761315710217090000,2.819090087890625,0.3208426237106323,0.5814679265022278,0.7924982905387878
1761315710227072300,2.829072265625,0.3373832404613495,0.4013921618461609,0.7866877913475037
1761315710237054200,2.83905419921875,0.3424067795276642,0.1953766644001007,0.7702012658119202
1761315710247037200,2.849037109375,0.3214429020881653,-0.0021196226589381695,0.7287201285362244
1761315710257019100,2.85901904296875,0.2797895073890686,-0.1639939248561859,0.6729859709739685
1761315710267001000,2.8690009765625,0.2098727524280548,-0.29395514726638794,0.5973279476165771
1761315710276984300,2.878984375,0.10954688489437103,-0.37375348806381226,0.5009499192237854
1761315710286966000,2.888966064453125,-0.01966330222785473,-0.4346482753753662,0.3719498813152313
1761315710296948200,2.8989482421875,-0.14363452792167664,-0.48207059502601624,0.20659761130809784
1761315710306931000,2.908930908203125,-0.22422711551189423,-0.5109810829162598,0.02467973902821541
1761315710316913200,2.9189130859375,-0.27065470814704895,-0.5223149061203003,-0.13040299713611603
1761315710326895400,2.928895263671875,-0.2716224789619446,-0.5108462572097778,-0.25707998871803284
1761315710336878000,2.938878173828125,-0.239083930850029,-0.43517500162124634,-0.3336600661277771
1761315710346860300,2.9488603515625,-0.1531522423028946,-0.28974056243896484,-0.34911277890205383
1761315710356842000,2.958842041015625,-0.016654934734106064,-0.10917302966117859,-0.3118869960308075
1761315710366825200,2.9688251953125,0.155912846326828,0.08288269490003586,-0.22310945391654968
1761315710376807200,2.97880712890625,0.34019970893859863,0.24731016159057617,-0.1035412847995758
1761315710386789000,2.9887890625,0.49653366208076477,0.3403596878051758,0.021154314279556274
1761315710396772000,2.998772216796875,0.6026883721351624,0.3889153003692627,0.1331777125597
1761315710406754000,3.008754150390625,0.6611253023147583,0.4039163589477539,0.21836690604686737
1761315710416736000,3.018736083984375,0.6936489343643188,0.37560102343559265,0.2774074077606201
1761315710426719200,3.02871923828125,0.696544885635376,0.32228827476501465,0.2959240972995758
1761315710436701200,3.038701171875,0.6840681433677673,0.24425598978996277,0.2813066244125366
1761315710446683100,3.04868310546875,0.6649461388587952,0.1391439437866211,0.22802554070949554
1761315710456666000,3.058666015625,0.6334046125411987,0.006452544126659632,0.1583252102136612
1761315710466648000,3.06864794921875,0.6207029223442078,-0.12073469907045364,0.08541637659072876
1761315710476630300,3.07863037109375,0.6120415329933167,-0.2176561951637268,0.021082133054733276
1761315710486613000,3.088613037109375,0.6122130155563354,-0.27215513586997986,-0.013511797413229942
1761315710496595200,3.09859521484375,0.6000180840492249,-0.3024108409881592,-0.022361665964126587
1761315710506577000,3.108576904296875,0.5777056217193604,-0.3169860541820526,-0.01696157455444336
1761315710516560100,3.11856005859375,0.5506364703178406,-0.314049631357193,-0.0029396580066531897
1761315710526542000,3.1285419921875,0.5191778540611267,-0.2983146011829376,0.019067373126745224
1761315710536524000,3.13852392578125,0.4817744791507721,-0.2689223289489746,0.042129408568143845
1761315710546507000,3.148507080078125,0.4456463158130646,-0.23560567200183868,0.0640549436211586
1761315710556489200,3.1584892578125,0.41623520851135254,-0.21162182092666626,0.0676882266998291
1761315710566471200,3.16847119140625,0.38519394397735596,-0.19409635663032532,0.053584128618240356
1761315710576454100,3.1784541015625,0.36368900537490845,-0.18004457652568817,0.03351357951760292
1761315710586436000,3.18843603515625,0.3322559595108032,-0.17112219333648682,0.009835680946707726
1761315710596418000,3.19841796875,0.29412516951560974,-0.17848515510559082,-0.018517667427659035
1761315710606401300,3.2084013671875,0.25299185514450073,-0.192668616771698,-0.0388714075088501
1761315710616383000,3.218383056640625,0.21369114518165588,-0.1899326741695404,-0.05530093237757683
1761315710626365200,3.228365234375,0.17457330226898193,-0.17437660694122314,-0.08191922307014465
1761315710636348200,3.23834814453125,0.12305910140275955,-0.1612255871295929,-0.11390718817710876
1761315710646330000,3.248330078125,0.07412058115005493,-0.15389230847358704,-0.16206327080726624
1761315710656312300,3.258312255859375,0.022736456245183945,-0.17062623798847198,-0.21990063786506653
1761315710666295000,3.268294921875,-0.04090350493788719,-0.19161354005336761,-0.28048595786094666
1761315710676277200,3.27827734375,-0.1051667332649231,-0.21341216564178467,-0.3405773937702179
1761315710686259000,3.288259033203125,-0.1848391890525818,-0.227248877286911,-0.39674827456474304
1761315710696242200,3.2982421875,-0.27221956849098206,-0.224369615316391,-0.4456373453140259
1761315710706224000,3.30822412109375,-0.3558012545108795,-0.19326762855052948,-0.4782642722129822
1761315710716206000,3.3182060546875,-0.420392245054245,-0.13800330460071564,-0.49321073293685913
1761315710726189000,3.32818896484375,-0.45066946744918823,-0.0699494257569313,-0.4823905825614929
1761315710736171300,3.338171142578125,-0.4419028162956238,0.03164347633719444,-0.437635600566864
1761315710746153200,3.3481533203125,-0.3986693024635315,0.12616759538650513,-0.3699449598789215
1761315710756136200,3.35813623046875,-0.3256640136241913,0.14972490072250366,-0.31567925214767456
1761315710766118100,3.3681181640625,-0.27062898874282837,0.0882604792714119,-0.3066018521785736
1761315710776100000,3.37810009765625,-0.2521231472492218,-0.017838377505540848,-0.3359050452709198
1761315710786083300,3.388083251953125,-0.28637006878852844,-0.1607811450958252,-0.40235385298728943
1761315710796065000,3.39806494140625,-0.3771396577358246,-0.3450857698917389,-0.5062289237976074
1761315710806047200,3.408047119140625,-0.5233674049377441,-0.5434255003929138,-0.6383073329925537
1761315710816030000,3.418030029296875,-0.7032574415206909,-0.6686654090881348,-0.7614842653274536
1761315710826012200,3.42801220703125,-0.8587543368339539,-0.6543770432472229,-0.822344958782196
1761315710835994400,3.437994384765625,-0.9480670690536499,-0.5060699582099915,-0.8089116811752319
1761315710845977000,3.44797705078125,-0.9568554759025574,-0.2714015245437622,-0.7113605737686157
1761315710855959300,3.457959228515625,-0.882611095905304,0.009496761485934258,-0.5548136234283447
1761315710865941000,3.46794091796875,-0.7449299693107605,0.23260733485221863,-0.37492799758911133
1761315710875924200,3.47792431640625,-0.5776216983795166,0.35787537693977356,-0.19684360921382904
1761315710885906200,3.48790625,-0.4154338240623474,0.41535598039627075,-0.04402077943086624
1761315710895888100,3.49788818359375,-0.2885705530643463,0.4192975163459778,0.09075523167848587
1761315710905871000,3.50787109375,-0.19205227494239807,0.3936760425567627,0.21765166521072388
1761315710915853000,3.51785302734375,-0.12678930163383484,0.38009244203567505,0.35659223794937134
1761315710925835000,3.5278349609375,-0.06874065101146698,0.3933267593383789,0.5154692530632019
1761315710935818200,3.537818359375,-0.020615320652723312,0.4082903563976288,0.6778291463851929
1761315710945800200,3.54780029296875,0.029853710904717445,0.39635831117630005,0.8349141478538513
1761315710955782100,3.5577822265625,0.0717238038778305,0.3281835913658142,0.9657206535339355
1761315710965765000,3.56776513671875,0.12345971167087555,0.1916409134864807,1.067209243774414
1761315710975747000,3.5777470703125,0.1684999018907547,0.008924297988414764,1.1245697736740112
1761315710985729300,3.587729248046875,0.19829268753528595,-0.1805601567029953,1.1634716987609863
1761315710995712000,3.5977119140625,0.20485609769821167,-0.32967978715896606,1.1775695085525513
1761315711005694200,3.607694091796875,0.1757509410381317,-0.44963201880455017,1.159595012664795
1761315711015676000,3.617676025390625,0.0912632942199707,-0.5660908818244934,1.0860675573349
1761315711025659100,3.6276591796875,-0.03782784566283226,-0.6711264848709106,0.9651137590408325
1761315711035641000,3.63764111328125,-0.2021142989397049,-0.7331933975219727,0.7937182188034058
1761315711045623000,3.647623046875,-0.37877801060676575,-0.7452505826950073,0.5860020518302917
1761315711055606000,3.65760595703125,-0.5437656044960022,-0.6903175711631775,0.37028804421424866
1761315711065588200,3.667588134765625,-0.681038498878479,-0.5519202351570129,0.1698571890592575
1761315711075570200,3.677570068359375,-0.7693155407905579,-0.3503838777542114,-0.004070984199643135
1761315711085553200,3.68755322265625,-0.7984920740127563,-0.14194093644618988,-0.14185015857219696
1761315711095535000,3.69753515625,-0.7784567475318909,0.052212733775377274,-0.24375127255916595
1761315711105517000,3.70751708984375,-0.719274640083313,0.2003404200077057,-0.3057219684123993
1761315711115500300,3.717500244140625,-0.6339648365974426,0.306140661239624,-0.3308914303779602
1761315711125482000,3.72748193359375,-0.5545030236244202,0.34695494174957275,-0.3141161799430847
1761315711135464200,3.737464111328125,-0.48887988924980164,0.3394339680671692,-0.2799193859100342
1761315711145447700,3.74744775390625,-0.4383853077888489,0.29000648856163025,-0.2436995804309845
1761315711155430000,3.757429931640625,-0.40263885259628296,0.2223699986934662,-0.2253359705209732
1761315711165411600,3.76741162109375,-0.3888130486011505,0.15669165551662445,-0.21399623155593872
1761315711175394800,3.777394775390625,-0.3845759332180023,0.07666702568531036,-0.23616760969161987
1761315711185376800,3.787376708984375,-0.38372743129730225,-0.03237370401620865,-0.28231993317604065
1761315711195359700,3.79735986328125,-0.3749363422393799,-0.14660154283046722,-0.3417711853981018
1761315711205341700,3.807341796875,-0.37975239753723145,-0.24589803814888,-0.401006817817688
1761315711215323600,3.81732373046875,-0.4000779688358307,-0.2971290051937103,-0.4500174820423126
1761315711225305900,3.827305908203125,-0.4246584177017212,-0.2966991662979126,-0.48349207639694214
1761315711235288800,3.837288818359375,-0.44542714953422546,-0.26373037695884705,-0.5042037963867188
1761315711245270800,3.847270751953125,-0.46048200130462646,-0.21430453658103943,-0.5309206247329712
1761315711255253800,3.857253662109375,-0.4621482491493225,-0.14387759566307068,-0.5456899404525757
1761315711265235700,3.867235595703125,-0.44077691435813904,-0.06208205595612526,-0.55389803647995
1761315711275217700,3.8772177734375,-0.40580105781555176,0.023506496101617813,-0.5525617003440857
1761315711285201000,3.887200927734375,-0.3754042685031891,0.08289285749197006,-0.5434539318084717
1761315711295182600,3.8971826171875,-0.34945133328437805,0.12171923369169235,-0.5272276997566223
1761315711305164800,3.907164794921875,-0.32920384407043457,0.15976513922214508,-0.5108252763748169
1761315711315147500,3.9171474609375,-0.3072616159915924,0.20001481473445892,-0.4867507219314575
1761315711325129700,3.927129638671875,-0.28605300188064575,0.22031688690185547,-0.4542281925678253
1761315711335112000,3.93711181640625,-0.26272159814834595,0.2395106703042984,-0.40184298157691956
1761315711345094700,3.9470947265625,-0.24381954967975616,0.27859678864479065,-0.34024378657341003
1761315711355076900,3.957076904296875,-0.22369255125522614,0.3254934549331665,-0.28114303946495056
1761315711365058600,3.96705859375,-0.20644618570804596,0.35501885414123535,-0.23552629351615906
1761315711375041800,3.977041748046875,-0.18680746853351593,0.3492141366004944,-0.20246785879135132
1761315711385023700,3.987023681640625,-0.16953687369823456,0.3101288080215454,-0.18798613548278809
1761315711395005700,3.997005615234375,-0.15657202899456024,0.2650585472583771,-0.18125902116298676
1761315711404988700,4.00698876953125,-0.14631618559360504,0.21158896386623383,-0.1786496490240097
1761315711414971000,4.016970947265625,-0.1410531848669052,0.1596945822238922,-0.17194047570228577
1761315711424952800,4.026952880859375,-0.1358267366886139,0.11097763478755951,-0.16166840493679047
1761315711434935800,4.036935791015625,-0.12976442277431488,0.07474371790885925,-0.14812952280044556
1761315711444917800,4.046917724609375,-0.12095201760530472,0.05926702171564102,-0.13460519909858704
1761315711454899700,4.056899658203125,-0.10236256569623947,0.06504335254430771,-0.1071547344326973
1761315711464883000,4.066883056640625,-0.07817200571298599,0.0791461244225502,-0.07721175253391266
1761315711474864600,4.07686474609375,-0.05516935884952545,0.09389226883649826,-0.04192708432674408
1761315711484846800,4.086846923828125,-0.024674031883478165,0.11533790826797485,0.007009034976363182
1761315711494829600,4.09682958984375,0.007724527735263109,0.20124809443950653,0.07353472709655762
1761315711504811800,4.106811767578125,0.049988627433776855,0.36396777629852295,0.14170685410499573
1761315711514794000,4.1167939453125,0.10898683220148087,0.5270900130271912,0.17922629415988922
1761315711524776700,4.126776611328125,0.15694795548915863,0.5853418707847595,0.15066255629062653
1761315711534759000,4.136759033203125,0.17781171202659607,0.5107258558273315,0.06873909384012222
1761315711544740600,4.14674072265625,0.16590072214603424,0.3311811089515686,-0.04113120958209038
1761315711554723800,4.156723876953125,0.1253100484609604,0.07248082756996155,-0.13691547513008118
1761315711564705800,4.166705810546875,0.04041832685470581,-0.14730346202850342,-0.17317920923233032
1761315711574687700,4.176687744140625,-0.07138571888208389,-0.24113556742668152,-0.1417929083108902
1761315711584670700,4.186670654296875,-0.15046483278274536,-0.18989981710910797,-0.05102945491671562
1761315711594652700,4.196652587890625,-0.1756628155708313,-0.013047752901911736,0.07240413874387741
1761315711604635000,4.206634765625,-0.15290530025959015,0.23900394141674042,0.2033214122056961
1761315711614617900,4.216617919921875,-0.0969400554895401,0.4678489565849304,0.30328598618507385
1761315711624599800,4.226599853515625,-0.020007995888590813,0.5910576581954956,0.35205432772636414
1761315711634581800,4.236581787109375,0.0694546103477478,0.5949001312255859,0.3695901930332184
1761315711644565000,4.24656494140625,0.17385531961917877,0.5190157294273376,0.39700981974601746
1761315711654546700,4.256546630859375,0.2756434977054596,0.42538607120513916,0.4631277024745941
1761315711664529000,4.26652880859375,0.37470749020576477,0.35029956698417664,0.5914496779441833
1761315711674511600,4.27651171875,0.46669885516166687,0.3235014081001282,0.7602858543395996
1761315711684493800,4.286493896484375,0.5478600263595581,0.3420040011405945,0.9483076930046082
1761315711694475800,4.296475830078125,0.6062689423561096,0.38769906759262085,1.117549180984497
1761315711704458800,4.306458740234375,0.6468581557273865,0.41154634952545166,1.2294628620147705
1761315711714440700,4.316440673828125,0.6742725968360901,0.3873996138572693,1.2685574293136597
1761315711724422700,4.326422607421875,0.6918150782585144,0.32499271631240845,1.2480276823043823
1761315711734405600,4.336405517578125,0.6852281093597412,0.2118646800518036,1.1625734567642212
1761315711744387800,4.346387939453125,0.6630187034606934,0.07159412652254105,1.0272467136383057
1761315711754369800,4.356369873046875,0.6319088935852051,-0.055368728935718536,0.868626058101654
1761315711764352800,4.366352783203125,0.6031491756439209,-0.12842749059200287,0.711868941783905
1761315711774334700,4.376334716796875,0.5706572532653809,-0.1676047295331955,0.5641564726829529
1761315711784316700,4.386316650390625,0.5367968082427979,-0.17523521184921265,0.43676257133483887
1761315711794300000,4.3962998046875,0.5000781416893005,-0.16531044244766235,0.3273303508758545
1761315711804281600,4.406281494140625,0.4713476896286011,-0.15036238729953766,0.22609534859657288
1761315711814263800,4.416263916015625,0.4640551209449768,-0.13168811798095703,0.14904634654521942
1761315711824246500,4.42624658203125,0.4695492088794708,-0.13559553027153015,0.09501534700393677
1761315711834228700,4.436228759765625,0.48482418060302734,-0.14773118495941162,0.06566707044839859
1761315711844211000,4.4462109375,0.4926605522632599,-0.1575971245765686,0.06376397609710693
1761315711854193700,4.456193603515625,0.5089168548583984,-0.155161052942276,0.08757586032152176
1761315711864175900,4.46617578125,0.5177764296531677,-0.15225820243358612,0.1369495391845703
1761315711874157600,4.476157470703125,0.5326154232025146,-0.12246735394001007,0.18962641060352325
1761315711884140800,4.486140869140625,0.5493616461753845,-0.059422075748443604,0.23168358206748962
1761315711894122800,4.496122802734375,0.5777454376220703,0.022171907126903534,0.2460668683052063
1761315711904104700,4.506104736328125,0.5979601740837097,0.10897418111562729,0.24131391942501068
1761315711914087700,4.516087646484375,0.6008174419403076,0.19245074689388275,0.20948778092861176
1761315711924069600,4.526069580078125,0.5813524127006531,0.23385784029960632,0.1549462378025055
1761315711934051800,4.5360517578125,0.5563499927520752,0.24315543472766876,0.07598899304866791
1761315711944034800,4.546034912109375,0.5336841344833374,0.23461627960205078,-0.007974882610142231
1761315711954016800,4.556016845703125,0.5148401856422424,0.1999439001083374,-0.0750616118311882
1761315711963998700,4.565998779296875,0.4970279037952423,0.16932500898838043,-0.12217719107866287
1761315711973982000,4.57598193359375,0.4802820682525635,0.1269751787185669,-0.1484859138727188
1761315711983963600,4.585963623046875,0.45854559540748596,0.08373662829399109,-0.16264913976192474
1761315711993945900,4.59594580078125,0.45097988843917847,0.050304874777793884,-0.1568574160337448
1761315712003928600,4.605928466796875,0.4476080536842346,0.03240736573934555,-0.1426324099302292
1761315712013910800,4.615910888671875,0.4401913583278656,0.012556582689285278,-0.13549955189228058
1761315712023892700,4.625892822265625,0.41641250252723694,-0.01210828311741352,-0.1550530195236206
1761315712033875700,4.635875732421875,0.3865826725959778,-0.039294175803661346,-0.18076255917549133
1761315712043858000,4.64585791015625,0.34561020135879517,-0.056681688874959946,-0.20445643365383148
1761315712053839600,4.655839599609375,0.29770246148109436,-0.0656479224562645,-0.22817452251911163
1761315712063822800,4.66582275390625,0.2549009323120117,-0.07998292148113251,-0.2523757219314575
1761315712073804800,4.6758046875,0.2223169356584549,-0.09049224853515625,-0.26602286100387573
1761315712083786800,4.685786865234375,0.19527199864387512,-0.10827284306287766,-0.27059924602508545
1761315712093769700,4.695769775390625,0.16941985487937927,-0.1218414381146431,-0.2688746452331543
1761315712103751700,4.705751708984375,0.14205294847488403,-0.13179020583629608,-0.2684698700904846
1761315712113734000,4.71573388671875,0.11828387528657913,-0.13955919444561005,-0.2757197916507721
1761315712123716900,4.725716796875,0.08461486548185349,-0.14832231402397156,-0.29462239146232605
1761315712133698800,4.73569873046875,0.04254555702209473,-0.17229698598384857,-0.3228420615196228
1761315712143680800,4.7456806640625,-0.015000293031334877,-0.21965837478637695,-0.35896196961402893
1761315712153663700,4.755663818359375,-0.09381455183029175,-0.2783030867576599,-0.40629494190216064
1761315712163645700,4.765645751953125,-0.1799478381872177,-0.33882981538772583,-0.4553930163383484
1761315712173627600,4.775627685546875,-0.2717530131340027,-0.3656913638114929,-0.49962469935417175
1761315712183610600,4.785610595703125,-0.3524172306060791,-0.36370810866355896,-0.5377027988433838
1761315712193592800,4.7955927734375,-0.40901944041252136,-0.34348687529563904,-0.562047004699707
1761315712203574800,4.80557470703125,-0.4310706853866577,-0.29669007658958435,-0.5558998584747314
1761315712213557800,4.815557861328125,-0.4318798780441284,-0.23291368782520294,-0.5306786298751831
1761315712223539700,4.825539794921875,-0.41824981570243835,-0.20203593373298645,-0.49446338415145874
1761315712233521700,4.835521728515625,-0.4090581238269806,-0.1854143887758255,-0.4488179385662079
1761315712243504600,4.845504638671875,-0.39960601925849915,-0.16604629158973694,-0.4025101065635681
1761315712253486600,4.855486572265625,-0.3909435272216797,-0.11106419563293457,-0.36194515228271484
1761315712263468800,4.86546875,-0.36806297302246094,0.028448691591620445,-0.32764551043510437
1761315712273451500,4.875451416015625,-0.319930762052536,0.11924867331981659,-0.3179130554199219
1761315712283433700,4.885433837890625,-0.2887699007987976,0.08322862535715103,-0.3567478060722351
1761315712293415700,4.895415771484375,-0.3063509464263916,-0.05612702667713165,-0.4313742220401764
1761315712303398700,4.905398681640625,-0.36985430121421814,-0.24763813614845276,-0.5178031325340271
1761315712313380600,4.915380615234375,-0.459615021944046,-0.45746278762817383,-0.5924970507621765
1761315712323362600,4.925362548828125,-0.5499795079231262,-0.6444209218025208,-0.6490950584411621
1761315712333345500,4.935345458984375,-0.6148973107337952,-0.7542209625244141,-0.6742821931838989
1761315712343327700,4.94532763671875,-0.6492462158203125,-0.7504251599311829,-0.6537811756134033
1761315712353309700,4.955309814453125,-0.6630168557167053,-0.6170335412025452,-0.5971832275390625
1761315712363292700,4.965292724609375,-0.6367274522781372,-0.39748838543891907,-0.4971514046192169
1761315712373274600,4.975274658203125,-0.5478730797767639,-0.1471792310476303,-0.37233439087867737
1761315712383256600,4.985256591796875,-0.41832733154296875,0.06578976660966873,-0.22893008589744568
1761315712393239800,4.99523974609375,-0.2700977027416229,0.22488225996494293,-0.07770945876836777
1761315712403221500,5.005221435546875,-0.14629320800304413,0.3116336762905121,0.0745605006814003
1761315712413203700,5.01520361328125,-0.06189697980880737,0.3424133360385895,0.2186860591173172
1761315712423186700,5.025186767578125,-0.01910477690398693,0.3213389217853546,0.3543240427970886
1761315712433168600,5.035168701171875,-0.007101703900843859,0.25989317893981934,0.4736657440662384
1761315712443150800,5.04515087890625,-0.01829683408141136,0.18223513662815094,0.5730429291725159
1761315712453133600,5.055133544921875,-0.04359569773077965,0.11215755343437195,0.643351674079895
1761315712463115800,5.06511572265625,-0.0758332684636116,0.046829141676425934,0.6903034448623657
1761315712473097500,5.075097412109375,-0.10063689947128296,-0.02208961918950081,0.6959258317947388
1761315712483080700,5.085080810546875,-0.1136174127459526,-0.10765165835618973,0.6685512065887451
1761315712493062700,5.095062744140625,-0.12052444368600845,-0.20156557857990265,0.6218663454055786
1761315712503044600,5.105044677734375,-0.12855759263038635,-0.28143244981765747,0.5726471543312073
1761315712513027600,5.115027587890625,-0.13329161703586578,-0.3377777338027954,0.5355451703071594
1761315712523009800,5.125009765625,-0.16824880242347717,-0.37329259514808655,0.5061042308807373
1761315712532991700,5.13499169921875,-0.21821275353431702,-0.3715863525867462,0.48339489102363586
1761315712542974700,5.144974609375,-0.2883146107196808,-0.35891395807266235,0.44278356432914734
1761315712552956700,5.154956787109375,-0.38462167978286743,-0.35912269353866577,0.37286657094955444
1761315712562938600,5.164938720703125,-0.5024049878120422,-0.36099568009376526,0.2704736292362213
1761315712572921900,5.174921875,-0.6215658187866211,-0.36518949270248413,0.15726026892662048
1761315712582903600,5.184903564453125,-0.7285929322242737,-0.3712436556816101,0.03934721276164055
1761315712592885800,5.1948857421875,-0.8043074011802673,-0.36105042695999146,-0.055063940584659576
1761315712602868500,5.204868408203125,-0.8347529172897339,-0.30742260813713074,-0.11037059873342514
1761315712612850700,5.2148505859375,-0.8159822225570679,-0.18808843195438385,-0.11605136096477509
1761315712622833000,5.2248330078125,-0.7488594055175781,-0.023781774565577507,-0.07192997634410858
1761315712632815600,5.234815673828125,-0.6360337734222412,0.14284586906433105,0.010763385333120823
1761315712642797800,5.2447978515625,-0.5013140439987183,0.28587523102760315,0.10994003713130951
1761315712652779500,5.254779541015625,-0.3769795298576355,0.3893498182296753,0.21983666718006134
1761315712662762800,5.2647626953125,-0.27966949343681335,0.4314994215965271,0.3109748363494873
1761315712672744700,5.27474462890625,-0.22333578765392303,0.3909093141555786,0.3674515187740326
1761315712682726700,5.2847265625,-0.19245244562625885,0.29657936096191406,0.38789448142051697
1761315712692709600,5.294709716796875,-0.19044961035251617,0.17642320692539215,0.3616964519023895
1761315712702691600,5.304691650390625,-0.20856229960918427,0.021155323833227158,0.30743053555488586
1761315712712673800,5.314673828125,-0.2419811487197876,-0.12843523919582367,0.22570106387138367
1761315712722656800,5.32465673828125,-0.2749153971672058,-0.21670225262641907,0.13813526928424835
1761315712732638700,5.334638671875,-0.3098227083683014,-0.23904463648796082,0.045414578169584274
1761315712742620700,5.34462060546875,-0.3423905074596405,-0.22361719608306885,-0.046646904200315475
1761315712752603600,5.354603759765625,-0.3919620215892792,-0.2018367052078247,-0.14209537208080292
1761315712762585600,5.364585693359375,-0.43377551436424255,-0.17315632104873657,-0.2245582938194275
1761315712772567800,5.37456787109375,-0.4747064411640167,-0.13767707347869873,-0.29616639018058777
1761315712782550500,5.384550537109375,-0.5073559880256653,-0.09297165274620056,-0.34654781222343445
1761315712792532700,5.39453271484375,-0.5252800583839417,-0.04850660264492035,-0.3801428973674774
1761315712802514700,5.4045146484375,-0.5363295078277588,-0.010384514927864075,-0.40471482276916504
1761315712812497700,5.41449755859375,-0.5424618124961853,0.05596591904759407,-0.41747725009918213
1761315712822479600,5.424479736328125,-0.5337042808532715,0.12784597277641296,-0.42890673875808716
1761315712832461600,5.434461669921875,-0.5218096971511841,0.19338026642799377,-0.4363890290260315
1761315712842444500,5.444444580078125,-0.5000852346420288,0.24137228727340698,-0.43703457713127136
1761315712852426800,5.4544267578125,-0.4725678861141205,0.27296456694602966,-0.4365721046924591
1761315712862408700,5.46440869140625,-0.4469139277935028,0.2643633484840393,-0.43158718943595886
1761315712872391700,5.4743916015625,-0.4267113506793976,0.22046302258968353,-0.4274226129055023
1761315712882373600,5.48437353515625,-0.40766441822052,0.1718406230211258,-0.40968117117881775
1761315712892355600,5.49435546875,-0.39165356755256653,0.13201962411403656,-0.372187077999115
1761315712902338800,5.5043388671875,-0.3730527460575104,0.10534379631280899,-0.33095070719718933
1761315712912320500,5.514320556640625,-0.3515903055667877,0.10095036029815674,-0.2796538174152374
1761315712922302700,5.524302734375,-0.34097549319267273,0.10446812957525253,-0.23812367022037506
1761315712932285700,5.53428564453125,-0.3295464813709259,0.11185889691114426,-0.20645171403884888
1761315712942267600,5.544267578125,-0.3095272183418274,0.11997567862272263,-0.18466146290302277
1761315712952249900,5.554249755859375,-0.2875083088874817,0.1316259205341339,-0.1910550445318222
1761315712962232600,5.564232666015625,-0.2666611075401306,0.1391187161207199,-0.2098953127861023
1761315712972214800,5.57421484375,-0.251146525144577,0.1388207972049713,-0.24954292178153992
1761315712982196500,5.584196533203125,-0.23782379925251007,0.10956171154975891,-0.2986185848712921
1761315712992179700,5.5941796875,-0.22207453846931458,0.08479475229978561,-0.35778847336769104
1761315713002161700,5.60416162109375,-0.20965462923049927,0.06621813774108887,-0.4181665778160095
1761315713012143600,5.6141435546875,-0.2010507732629776,0.0407637394964695,-0.47516700625419617
1761315713022126600,5.624126708984375,-0.20721466839313507,-0.001809553476050496,-0.5111401677131653
1761315713032108800,5.63410888671875,-0.21359676122665405,-0.05963319167494774,-0.5226661562919617
1761315713042090800,5.6440908203125,-0.21634088456630707,-0.08774711936712265,-0.49752727150917053
1761315713052073700,5.65407373046875,-0.20037978887557983,-0.0420926995575428,-0.43681398034095764
1761315713062055700,5.6640556640625,-0.1553366780281067,0.15432101488113403,-0.34276098012924194
1761315713072037600,5.67403759765625,-0.05929122120141983,0.39364129304885864,-0.22276850044727325
1761315713082020900,5.684020751953125,0.05348699539899826,0.5441991090774536,-0.10456302762031555
1761315713092002600,5.69400244140625,0.13869334757328033,0.5959355235099792,-0.012996719218790531
1761315713101984800,5.70398486328125,0.20158709585666656,0.5599311590194702,0.052427027374506
1761315713111967500,5.713967529296875,0.24774238467216492,0.40768757462501526,0.08435137569904327
1761315713121949700,5.72394970703125,0.27691972255706787,0.1444985568523407,0.08424273133277893
1761315713131932000,5.733931884765625,0.2757147252559662,-0.11287491768598557,0.07328462600708008
1761315713141914600,5.74391455078125,0.2528133988380432,-0.2607235014438629,0.07422897964715958
1761315713151896300,5.753896240234375,0.23145446181297302,-0.30705922842025757,0.11994260549545288
1761315713161878300,5.763878173828125,0.2403443604707718,-0.259101539850235,0.21339131891727448
1761315713171861200,5.773861328125,0.27044153213500977,-0.15356436371803284,0.33159321546554565
1761315713181843200,5.78384326171875,0.3233947455883026,-0.002881382592022419,0.45214971899986267
1761315713191825200,5.7938251953125,0.3974059224128723,0.16833996772766113,0.5758355259895325
1761315713201808100,5.80380810546875,0.4975373148918152,0.33759501576423645,0.6765410900115967
1761315713211790300,5.813790283203125,0.6120716333389282,0.4850035607814789,0.7605282068252563
1761315713221772300,5.823772216796875,0.7374066710472107,0.6130622029304504,0.8158194422721863
1761315713231755300,5.83375537109375,0.8676803708076477,0.6984022855758667,0.8621921539306641
1761315713241737500,5.843737548828125,0.9814873337745667,0.7241547703742981,0.8869563341140747
1761315713251719200,5.85371923828125,1.057044267654419,0.6732742786407471,0.8867852687835693
1761315713261702400,5.863702392578125,1.10739266872406,0.5618966221809387,0.8644192218780518
1761315713271684000,5.87368408203125,1.1292085647583008,0.4071161448955536,0.8319729566574097
1761315713281666300,5.883666259765625,1.128962516784668,0.22096388041973114,0.7744737267494202
1761315713291649300,5.893649169921875,1.1218730211257935,0.04574005678296089,0.705430269241333
1761315713301631200,5.90363134765625,1.115097999572754,-0.1160307303071022,0.6341915130615234
1761315713311613400,5.913613525390625,1.1000654697418213,-0.23399293422698975,0.5604714155197144
1761315713321596200,5.92359619140625,1.0659857988357544,-0.3020683825016022,0.4896036684513092
1761315713331578400,5.933578369140625,1.0189882516860962,-0.3073637783527374,0.4108777642250061
1761315713341560300,5.943560302734375,0.965562105178833,-0.27794116735458374,0.32204002141952515
1761315713351543300,5.953543212890625,0.9203277826309204,-0.1958327442407608,0.23997317254543304
1761315713361525200,5.963525146484375,0.8931768536567688,-0.08384150266647339,0.17146947979927063
1761315713371507200,5.973507080078125,0.8696082830429077,0.027557844296097755,0.11771399527788162
1761315713381490200,5.983490234375,0.8946044445037842,0.13613730669021606,0.08844239264726639
1761315713391472400,5.993472412109375,0.9399225115776062,0.2378755658864975,0.08809322118759155
1761315713401454300,6.003454345703125,1.0242749452590942,0.32864996790885925,0.11805351823568344
1761315713411437300,6.013437255859375,1.1115163564682007,0.3746437728404999,0.1708669513463974
1761315713421419300,6.023419189453125,1.1981562376022339,0.3625892400741577,0.23000910878181458
1761315713431401200,6.033401123046875,1.2760776281356812,0.3033336400985718,0.28807389736175537
1761315713441384200,6.04338427734375,1.327566385269165,0.23411433398723602,0.35384517908096313
1761315713451366100,6.0533662109375,1.3662667274475098,0.1880326122045517,0.42193636298179626
1761315713461348400,6.063348388671875,1.3838742971420288,0.1472308486700058,0.48050782084465027
1761315713471331300,6.073331298828125,1.3750802278518677,0.1126643493771553,0.5207607746124268
1761315713481313300,6.083313232421875,1.34873366355896,0.09226001054048538,0.5313342809677124
1761315713491295200,6.093295166015625,1.3042516708374023,0.0745733380317688,0.5084633827209473
1761315713501278200,6.1032783203125,1.2544292211532593,0.07714702188968658,0.45037341117858887
1761315713511260200,6.11326025390625,1.2271918058395386,0.11144722998142242,0.37377309799194336
1761315713521242000,6.1232421875,1.2070505619049072,0.14941085875034332,0.2943837344646454
1761315713531225000,6.13322509765625,1.1834871768951416,0.1718924641609192,0.22771470248699188
1761315713541207300,6.143207275390625,1.1505094766616821,0.18847784399986267,0.1693589836359024
1761315713551190000,6.15318994140625,1.0985749959945679,0.19198989868164062,0.1292223483324051
1761315713561172200,6.163172119140625,1.047756314277649,0.18819862604141235,0.09055857360363007
1761315713571154400,6.173154541015625,0.9947298169136047,0.15901105105876923,0.06085725873708725
1761315713581137200,6.18313720703125,0.9401571154594421,0.1250656098127365,0.04285215958952904
1761315713591119400,6.193119384765625,0.8910205364227295,0.106577068567276,0.049998555332422256
1761315713601101000,6.20310107421875,0.8601846098899841,0.09142448008060455,0.06591174751520157
1761315713611084300,6.213084228515625,0.8144632577896118,0.07238686084747314,0.09230806678533554
1761315713621066200,6.223066162109375,0.753635585308075,0.07759600132703781,0.11524800956249237
1761315713631048200,6.233048095703125,0.6879814863204956,0.077737957239151,0.12215626984834671
1761315713641031200,6.24303125,0.6167432069778442,0.07372696697711945,0.10462121665477753
1761315713651013400,6.253013427734375,0.5414412617683411,0.056591495871543884,0.05585408955812454
1761315713660995300,6.262995361328125,0.45702090859413147,0.04545096307992935,-0.01606217585504055
1761315713670978300,6.272978271484375,0.36050209403038025,0.03491992875933647,-0.0915689542889595
1761315713680960300,6.282960205078125,0.27112773060798645,0.04309609904885292,-0.16812124848365784
1761315713690942200,6.292942138671875,0.19762775301933289,0.06226149573922157,-0.2450847178697586
1761315713700925400,6.302925537109375,0.12518179416656494,0.07230720669031143,-0.31031882762908936
1761315713710907100,6.3129072265625,0.05743591859936714,0.07871484756469727,-0.3644392490386963
1761315713720889300,6.322889404296875,-0.009494380094110966,0.06869283318519592,-0.39961615204811096
1761315713730871300,6.332871337890625,-0.058595482259988785,0.06557384133338928,-0.4088097810745239
1761315713740854300,6.342854248046875,-0.09442591667175293,0.06670648604631424,-0.3972436785697937
1761315713750836500,6.35283642578125,-0.12021826207637787,0.0779825896024704,-0.3608400225639343
1761315713760819200,6.362819091796875,-0.1402747929096222,0.0895572230219841,-0.31315237283706665
1761315713770801400,6.372801513671875,-0.13171178102493286,0.10013661533594131,-0.24549780786037445
1761315713780783000,6.382783203125,-0.09329274296760559,0.12916266918182373,-0.1635129302740097
1761315713790766300,6.392766357421875,-0.017992660403251648,0.22433260083198547,-0.057915665209293365
1761315713800748300,6.402748291015625,0.07916371524333954,0.29146608710289,0.03405686840415001
1761315713810730200,6.412730224609375,0.15659673511981964,0.2102331668138504,0.06146331503987312
1761315713820712400,6.42271240234375,0.17016127705574036,-0.021871430799365044,0.013882213272154331
1761315713830695200,6.432695068359375,0.13065777719020844,-0.27476951479911804,-0.10536835342645645
1761315713840677400,6.442677490234375,0.053755007684230804,-0.5011699199676514,-0.2732050120830536
1761315713850660400,6.452660400390625,-0.03974710404872894,-0.6436039209365845,-0.47178396582603455
1761315713860642300,6.462642333984375,-0.12373281270265579,-0.6632484793663025,-0.6484889388084412
1761315713870624300,6.472624267578125,-0.1928950846195221,-0.5361372232437134,-0.753162145614624
1761315713880607500,6.482607421875,-0.23846229910850525,-0.302405446767807,-0.7847301959991455
1761315713890589200,6.492589111328125,-0.23696257174015045,-0.02740137279033661,-0.7449273467063904
1761315713900571400,6.5025712890625,-0.15891729295253754,0.18836314976215363,-0.6518495678901672
1761315713910554000,6.51255419921875,-0.03307846188545227,0.31272798776626587,-0.5211449861526489
1761315713920536300,6.522536376953125,0.09882071614265442,0.3574179708957672,-0.3700191080570221
1761315713930518300,6.532518310546875,0.20952698588371277,0.35867631435394287,-0.21541567146778107
1761315713940501200,6.542501220703125,0.27534568309783936,0.31840452551841736,-0.08273087441921234
1761315713950483200,6.552483154296875,0.2976316809654236,0.24423114955425262,0.014934772625565529
1761315713960465200,6.562465087890625,0.2865244150161743,0.14843164384365082,0.07211390137672424
1761315713970448100,6.5724482421875,0.2693973183631897,0.052525587379932404,0.09646640717983246
1761315713980430300,6.582430419921875,0.26609712839126587,0.012043410912156105,0.11162485182285309
1761315713990412300,6.592412353515625,0.289529949426651,0.023575549945235252,0.13135479390621185
1761315714000395300,6.602395263671875,0.3209536373615265,0.031725089997053146,0.15284304320812225
1761315714010377200,6.612377197265625,0.35249099135398865,0.018957413733005524,0.1781439334154129
1761315714020359200,6.622359130859375,0.385669469833374,-0.0033582779578864574,0.21182680130004883
1761315714030342400,6.63234228515625,0.4099127948284149,-0.03555893525481224,0.24736014008522034
1761315714040324000,6.642323974609375,0.4201606214046478,-0.07404081523418427,0.2725059688091278
1761315714050306300,6.652306396484375,0.40951791405677795,-0.11108576506376266,0.28989946842193604
1761315714060289000,6.6622890625,0.3810034394264221,-0.15275225043296814,0.2971736192703247
1761315714070271200,6.672271240234375,0.327006459236145,-0.19617216289043427,0.27238893508911133
1761315714080253400,6.68225341796875,0.24713507294654846,-0.24261368811130524,0.21875764429569244
1761315714090236200,6.692236083984375,0.1289081573486328,-0.30650708079338074,0.11474019289016724
1761315714100218400,6.70221826171875,-0.009449177421629429,-0.35394251346588135,-0.012388460338115692
1761315714110200000,6.712199951171875,-0.1373608410358429,-0.353507936000824,-0.1403069943189621
1761315714120183300,6.722183349609375,-0.2225407212972641,-0.29214179515838623,-0.2378561794757843
1761315714130165200,6.732165283203125,-0.25970175862312317,-0.17371201515197754,-0.2914717495441437
1761315714140147200,6.742147216796875,-0.2537749111652374,-0.021562961861491203,-0.2966228425502777
1761315714150130700,6.752130615234375,-0.20076248049736023,0.15896886587142944,-0.25949543714523315
1761315714160112600,6.762112548828125,-0.10349159687757492,0.3258987069129944,-0.1868516057729721
1761315714170094800,6.7720947265625,0.03115096315741539,0.4461611807346344,-0.10242696106433868
1761315714180077600,6.78207763671875,0.15309391915798187,0.4856595993041992,-0.007472488563507795
1761315714190059800,6.792059814453125,0.2574320137500763,0.45732149481773376,0.08184625208377838
1761315714200041500,6.80204150390625,0.32183924317359924,0.39049747586250305,0.16213922202587128
1761315714210024700,6.812024658203125,0.3511117696762085,0.3025137484073639,0.22261586785316467
1761315714220006700,6.822006591796875,0.344946026802063,0.20763783156871796,0.2516339123249054
1761315714229988600,6.831988525390625,0.3287426233291626,0.12492834776639938,0.2522459626197815
1761315714239971600,6.8419716796875,0.31760287284851074,0.07275088876485825,0.21733485162258148
1761315714249953800,6.851953857421875,0.30445700883865356,0.024366600438952446,0.14716438949108124
1761315714259935700,6.861935791015625,0.27457448840141296,-0.014756834134459496,0.06486526131629944
1761315714269918700,6.871918701171875,0.24173380434513092,-0.02374686859548092,-0.02542254701256752
1761315714279900700,6.881900634765625,0.20078051090240479,-0.0254366435110569,-0.1064462959766388
1761315714289882600,6.891882568359375,0.16951018571853638,-0.031310681253671646,-0.18413464725017548
1761315714299865600,6.901865478515625,0.13800498843193054,-0.017637744545936584,-0.24741987884044647
1761315714309847600,6.91184765625,0.11205201596021652,-0.00995190255343914,-0.29507577419281006
1761315714319829800,6.921829833984375,0.09584668278694153,0.0023210090585052967,-0.32390928268432617
1761315714329812500,6.9318125,0.08031130582094193,0.02406921051442623,-0.34632608294487
1761315714339794700,6.941794677734375,0.07042991369962692,0.04312439635396004,-0.3542572557926178
1761315714349776600,6.951776611328125,0.06762583553791046,0.07111268490552902,-0.35437503457069397
1761315714359759600,6.961759521484375,0.07362940162420273,0.09616344422101974,-0.33979690074920654
1761315714369741600,6.971741455078125,0.0820050910115242,0.11999371647834778,-0.31095513701438904
1761315714379723500,6.9817236328125,0.1058286651968956,0.17565485835075378,-0.2637743055820465
1761315714389706500,6.99170654296875,0.14259274303913116,0.2543521225452423,-0.2087719887495041
1761315714399688700,7.001688720703125,0.19122977554798126,0.34076371788978577,-0.1510746031999588
1761315714409670700,7.011670654296875,0.23226512968540192,0.4107135534286499,-0.10505429655313492
1761315714419653600,7.021653564453125,0.2642073631286621,0.4398442804813385,-0.07918008416891098
1761315714429635600,7.031635498046875,0.2882101237773895,0.4352991580963135,-0.061945561319589615
1761315714439617500,7.041617431640625,0.29939061403274536,0.41349026560783386,-0.05082446709275246
1761315714449600800,7.051600830078125,0.3144209384918213,0.3780122697353363,-0.046618495136499405
1761315714459582500,7.06158251953125,0.3274911940097809,0.33750027418136597,-0.03674136474728584
1761315714469564700,7.071564697265625,0.32881999015808105,0.3029238283634186,-0.024430129677057266
1761315714479547600,7.081547607421875,0.31120821833610535,0.2758892774581909,-0.010325230658054352
1761315714489529600,7.091529541015625,0.28049707412719727,0.301554411649704,0.014053866267204285
1761315714499511800,7.10151171875,0.25404098629951477,0.3508164882659912,0.03214418888092041
1761315714509494500,7.11149462890625,0.23001287877559662,0.3878853917121887,0.03584485501050949
1761315714519476700,7.121476806640625,0.21016272902488708,0.4024566113948822,0.021593747660517693
1761315714529458400,7.13145849609375,0.1898181140422821,0.3891705870628357,-0.005080437287688255
1761315714539441700,7.141441650390625,0.1702079176902771,0.3599080443382263,-0.04465287923812866
1761315714549423600,7.151423583984375,0.1538849025964737,0.2748579680919647,-0.07575911283493042
1761315714559405600,7.161405517578125,0.1338065266609192,0.18232083320617676,-0.1005808413028717
1761315714569388500,7.171388427734375,0.11015240103006363,0.10331781953573227,-0.10310595482587814
1761315714579370800,7.181370849609375,0.08460629731416702,0.08923369646072388,-0.08626891672611237
1761315714589352700,7.191352783203125,0.056272901594638824,0.17017827928066254,-0.04485534131526947
1761315714599335700,7.201335693359375,0.053329840302467346,0.38235417008399963,0.009922151453793049
1761315714609317600,7.211317626953125,0.09445791691541672,0.6658477187156677,0.071395143866539
1761315714619299600,7.221299560546875,0.18446211516857147,0.8592307567596436,0.11623772233724594
1761315714629282800,7.23128271484375,0.2557486593723297,0.9017919898033142,0.12713028490543365
1761315714639264500,7.241264404296875,0.2755673825740814,0.841499388217926,0.10251202434301376
1761315714649246700,7.251246826171875,0.2681025564670563,0.6993090510368347,0.0641651302576065
1761315714659229400,7.2612294921875,0.2531678080558777,0.4702516496181488,0.011245187371969223
1761315714669211600,7.271211669921875,0.22219517827033997,0.19819536805152893,-0.03629814460873604
1761315714679193900,7.28119384765625,0.1636389195919037,-0.0016908624675124884,-0.04504236578941345
1761315714689176600,7.291176513671875,0.08706140518188477,-0.11085834354162216,-0.005712858401238918
1761315714699158800,7.30115869140625,-0.0109836645424366,-0.138299822807312,0.05507459118962288
1761315714709140500,7.311140380859375,-0.0799306258559227,-0.0668117105960846,0.12653911113739014
1761315714719123700,7.321123779296875,-0.09803052991628647,0.08529020845890045,0.19074766337871552
1761315714729105700,7.331105712890625,-0.06313475966453552,0.26232296228408813,0.2222016304731369
1761315714739087600,7.341087646484375,0.0062746768817305565,0.430147647857666,0.225668802857399
1761315714749070600,7.351070556640625,0.096239373087883,0.5662608742713928,0.21590816974639893
1761315714759052500,7.361052490234375,0.20133036375045776,0.674586832523346,0.2129741609096527
1761315714769034800,7.37103466796875,0.319687157869339,0.7581233978271484,0.23462247848510742
1761315714779017700,7.381017822265625,0.42996731400489807,0.7782880663871765,0.26462802290916443
1761315714788999700,7.390999755859375,0.5164265632629395,0.7457013726234436,0.2836451232433319
1761315714798981600,7.400981689453125,0.5847326517105103,0.6795713305473328,0.3121311068534851
1761315714808964600,7.410964599609375,0.6387509703636169,0.5859901905059814,0.33245164155960083
1761315714818946600,7.420946533203125,0.6635481715202332,0.49444830417633057,0.34901249408721924
1761315714828928800,7.4309287109375,0.6755548715591431,0.4084373116493225,0.3510746955871582
1761315714838911500,7.440911376953125,0.6781522631645203,0.33148449659347534,0.33062881231307983
1761315714848893700,7.450893798828125,0.6770487427711487,0.28370803594589233,0.3075297474861145
1761315714858875400,7.46087548828125,0.6738928556442261,0.2581145167350769,0.2820531725883484
1761315714868858600,7.470858642578125,0.6784818768501282,0.23134422302246094,0.24442563951015472
1761315714878840600,7.480840576171875,0.686493456363678,0.1918705850839615,0.19147880375385284
1761315714888822500,7.490822509765625,0.6925622820854187,0.1343647986650467,0.1248708963394165
1761315714898805500,7.500805419921875,0.6927511096000671,0.04136588051915169,0.03933335840702057
1761315714908787700,7.51078759765625,0.6859650015830994,-0.04828802868723869,-0.046319399029016495
1761315714918769700,7.520769775390625,0.6887636780738831,-0.11371684074401855,-0.12335798889398575
1761315714928752600,7.530752685546875,0.7051771879196167,-0.15888363122940063,-0.17418953776359558
1761315714938734600,7.540734619140625,0.7342767715454102,-0.1837650090456009,-0.19844160974025726
1761315714948716500,7.550716552734375,0.7659088373184204,-0.19815894961357117,-0.20456132292747498
1761315714958699800,7.56069970703125,0.792299211025238,-0.1712285280227661,-0.19182981550693512
1761315714968681500,7.570681396484375,0.8313689231872559,-0.08806794881820679,-0.15372417867183685
1761315714978663700,7.58066357421875,0.8808161020278931,0.034872885793447495,-0.10724694281816483
1761315714988646700,7.590646728515625,0.9145725965499878,0.1749943345785141,-0.05236867070198059
1761315714998628600,7.600628662109375,0.9321992993354797,0.2813253104686737,0.004044272471219301
1761315715008610800,7.61061083984375,0.9174618721008301,0.3325025737285614,0.05467495322227478
1761315715018593500,7.620593505859375,0.8887469172477722,0.32597118616104126,0.08788669854402542
1761315715028575700,7.63057568359375,0.8600371479988098,0.2764638066291809,0.0970073863863945
1761315715038557400,7.640557373046875,0.8266890645027161,0.19667309522628784,0.07972186803817749
1761315715048540700,7.650540771484375,0.7912923097610474,0.11171167343854904,0.04326701536774635
1761315715058522600,7.660522705078125,0.7504943013191223,0.02849428355693817,-0.0017744966316968203
1761315715068504600,7.670504638671875,0.7153335809707642,-0.027394235134124756,-0.03487672284245491
1761315715078487600,7.680487548828125,0.6859772801399231,-0.0347064770758152,-0.06962272524833679
1761315715088469800,7.6904697265625,0.6559067964553833,-0.021429702639579773,-0.09807737171649933
1761315715098451700,7.70045166015625,0.6183527708053589,-0.005250465124845505,-0.12792208790779114
1761315715108434700,7.7104345703125,0.5783858299255371,0.006899723783135414,-0.14982731640338898
1761315715118416600,7.720416748046875,0.5480108857154846,0.030813047662377357,-0.1678563952445984
1761315715128398600,7.730398681640625,0.5240697860717773,0.05458226054906845,-0.18708568811416626
1761315715138381800,7.7403818359375,0.5103933811187744,0.07750248908996582,-0.20295919477939606
1761315715148363500,7.750363525390625,0.4932480454444885,0.09138418734073639,-0.19677679240703583
1761315715158345700,7.760345703125,0.47668930888175964,0.08212438225746155,-0.18169398605823517
1761315715168328700,7.77032861328125,0.4576171040534973,0.06528222560882568,-0.15987104177474976
1761315715178310700,7.780310546875,0.43301960825920105,0.03758642077445984,-0.13853086531162262
1761315715188292900,7.79029296875,0.41322070360183716,0.004930860362946987,-0.1156269982457161
1761315715198275600,7.800275634765625,0.38583409786224365,-0.04460792988538742,-0.08407413214445114
1761315715208257800,7.8102578125,0.3551093339920044,-0.08971697837114334,-0.05038820579648018
1761315715218239700,7.82023974609375,0.31906744837760925,-0.13145510852336884,-0.01254361867904663
1761315715228222700,7.83022265625,0.27794450521469116,-0.175916388630867,0.012320967391133308
1761315715238204700,7.84020458984375,0.21678179502487183,-0.22153900563716888,0.0190648902207613
1761315715248186600,7.8501865234375,0.14734746515750885,-0.2606285512447357,0.014941712841391563
1761315715258169600,7.860169677734375,0.06913922727108002,-0.29345786571502686,0.00011083483695983887
1761315715268151800,7.87015185546875,-0.01033705659210682,-0.30985239148139954,-0.024421997368335724
1761315715278133500,7.880133544921875,-0.0797283872961998,-0.31717821955680847,-0.05798342078924179
1761315715288116700,7.89011669921875,-0.12888622283935547,-0.30392417311668396,-0.09105640649795532
1761315715298098700,7.9000986328125,-0.15617670118808746,-0.26985037326812744,-0.1217498704791069
1761315715308080600,7.91008056640625,-0.17147938907146454,-0.2322966754436493,-0.1404738426208496
1761315715318063600,7.920063720703125,-0.18525564670562744,-0.1892261654138565,-0.13918115198612213
1761315715328045600,7.930045654296875,-0.18949101865291595,-0.1280866414308548,-0.12150546908378601
1761315715338027800,7.94002783203125,-0.19065509736537933,-0.06220083311200142,-0.08331174403429031
1761315715348010800,7.9500107421875,-0.18385463953018188,0.012668469920754433,-0.02194835990667343
1761315715357992700,7.95999267578125,-0.16444045305252075,0.09440834075212479,0.052224140614271164
1761315715367974700,7.969974609375,-0.127402663230896,0.0981290265917778,0.11125654727220535
1761315715377957600,7.97995751953125,-0.10086771100759506,-0.05081890895962715,0.13587000966072083
1761315715387939600,7.989939697265625,-0.12825807929039001,-0.28030142188072205,0.13037866353988647
1761315715397921500,7.999921630859375,-0.19573912024497986,-0.4844236671924591,0.11512594670057297
1761315715407904500,8.009904541015626,-0.2682930827140808,-0.6058437824249268,0.08663830906152725
1761315715417886700,8.01988671875,-0.3155900239944458,-0.6296811699867249,0.041041526943445206
1761315715427868700,8.02986865234375,-0.34186047315597534,-0.575883150100708,-0.0023195145186036825
1761315715437851600,8.0398515625,-0.343153178691864,-0.4379732012748718,-0.03585616871714592
1761315715447833900,8.049833740234375,-0.32110175490379333,-0.25188493728637695,-0.0534314289689064
1761315715457815600,8.059815673828124,-0.28859707713127136,-0.08724673092365265,-0.0643724873661995
1761315715467798800,8.069798828125,-0.24975191056728363,0.010517805814743042,-0.07119512557983398
1761315715477780500,8.079780517578126,-0.22397944331169128,0.03126063570380211,-0.07756567001342773
1761315715487762700,8.0897626953125,-0.2099582552909851,0.0019329870119690895,-0.0738358125090599
1761315715497745700,8.09974560546875,-0.22503866255283356,-0.06793291121721268,-0.062440935522317886
1761315715507727600,8.1097275390625,-0.2574741542339325,-0.16368256509304047,-0.036842670291662216
1761315715517709800,8.119709716796875,-0.3105384409427643,-0.26983562111854553,-0.00924593023955822
1761315715527692500,8.129692626953124,-0.3599267601966858,-0.3502575159072876,0.007667439058423042
1761315715537674800,8.1396748046875,-0.3827979862689972,-0.40767180919647217,0.019308382645249367
1761315715547656700,8.14965673828125,-0.3845471441745758,-0.4110086262226105,0.027003630995750427
1761315715557639700,8.1596396484375,-0.3552483916282654,-0.35989752411842346,0.04777389019727707
1761315715567621600,8.16962158203125,-0.29646745324134827,-0.2697707712650299,0.09551174938678741
1761315715577603600,8.179603515625,-0.20613622665405273,-0.17284317314624786,0.15569838881492615
1761315715587585800,8.189585693359374,-0.10280874371528625,-0.10004092752933502,0.235395148396492
1761315715597568800,8.19956884765625,-0.021988196298480034,-0.061792876571416855,0.3284449279308319
1761315715607550700,8.20955078125,0.0005253340350463986,-0.09675469249486923,0.4228501319885254
1761315715617533700,8.21953369140625,-0.03608167916536331,-0.17112773656845093,0.5023447275161743
1761315715627515600,8.229515625,-0.11978447437286377,-0.27599310874938965,0.5656833648681641
1761315715637497600,8.23949755859375,-0.21200628578662872,-0.37877488136291504,0.6102647185325623
1761315715647479800,8.249479736328125,-0.2862238585948944,-0.4487006366252899,0.6402854323387146
1761315715657462500,8.259462646484375,-0.3452512323856354,-0.46681147813796997,0.6423674821853638
1761315715667444700,8.26944482421875,-0.4108941853046417,-0.45753028988838196,0.6047369241714478
1761315715677426700,8.2794267578125,-0.47761300206184387,-0.43111997842788696,0.5231541991233826
1761315715687409700,8.28940966796875,-0.5368488430976868,-0.37450113892555237,0.39591947197914124
1761315715697391900,8.299391845703125,-0.5771363973617554,-0.3178333342075348,0.24352116882801056
1761315715707373600,8.30937353515625,-0.5922164916992188,-0.2602301239967346,0.08604330569505692
1761315715717356800,8.319356689453125,-0.5870358347892761,-0.2119278609752655,-0.05010734125971794
1761315715727338800,8.3293388671875,-0.5715005993843079,-0.16648679971694946,-0.15578441321849823
1761315715737320700,8.33932080078125,-0.5432543158531189,-0.11499191075563431,-0.21406422555446625
1761315715747303700,8.3493037109375,-0.514419436454773,-0.051137346774339676,-0.2412651777267456
1761315715757285600,8.35928564453125,-0.4894491136074066,0.01749524474143982,-0.24419225752353668
1761315715767267600,8.369267578125,-0.4618169665336609,0.0842905268073082,-0.2293759435415268
1761315715777250800,8.379250732421875,-0.4328433871269226,0.134171262383461,-0.2058999091386795
1761315715787232500,8.389232421875,-0.4085594415664673,0.1646343469619751,-0.19317065179347992
1761315715797214700,8.399214599609374,-0.3871960937976837,0.16350382566452026,-0.19036634266376495
1761315715807197700,8.40919775390625,-0.36356523633003235,0.15478092432022095,-0.18603788316249847
1761315715817179600,8.4191796875,-0.33669793605804443,0.13536781072616577,-0.17411836981773376
1761315715827161900,8.429161865234375,-0.30714911222457886,0.10358159989118576,-0.16549034416675568
1761315715837144600,8.43914453125,-0.28257718682289124,0.04678169637918472,-0.17066434025764465
1761315715847126800,8.449126708984375,-0.2740943729877472,-0.007375360932201147,-0.20181819796562195
1761315715857108500,8.4591083984375,-0.26563218235969543,-0.06388204544782639,-0.25704920291900635
1761315715867091700,8.469091796875,-0.2647296190261841,-0.11582081019878387,-0.3267735242843628
1761315715877073700,8.47907373046875,-0.2680433988571167,-0.13173185288906097,-0.3916025757789612
1761315715887055600,8.4890556640625,-0.27839258313179016,-0.11771882325410843,-0.44248828291893005
1761315715897038600,8.49903857421875,-0.2962149977684021,-0.09748732298612595,-0.4814165234565735
1761315715907020500,8.5090205078125,-0.31610575318336487,-0.06016719341278076,-0.509868860244751
1761315715917002800,8.519002685546875,-0.33010387420654297,-0.00855566468089819,-0.5276854038238525
1761315715926985700,8.52898583984375,-0.3356534242630005,0.04252222180366516,-0.5302850604057312
1761315715936967700,8.5389677734375,-0.3298613131046295,0.10821308195590973,-0.5214473605155945
1761315715946949600,8.54894970703125,-0.31213584542274475,0.18139159679412842,-0.5172852873802185
1761315715956932900,8.558932861328126,-0.28069937229156494,0.24347975850105286,-0.5044618844985962
1761315715966914600,8.56891455078125,-0.25249648094177246,0.27857059240341187,-0.49362483620643616
1761315715976896800,8.578896728515625,-0.22481103241443634,0.27077603340148926,-0.47048142552375793
1761315715986879500,8.58887939453125,-0.20251348614692688,0.238336980342865,-0.43931469321250916
1761315715996861700,8.59886181640625,-0.18645702302455902,0.195076584815979,-0.39747774600982666
1761315716006843600,8.60884375,-0.17785577476024628,0.15435542166233063,-0.34469377994537354
1761315716016826600,8.61882666015625,-0.1807519644498825,0.11814441531896591,-0.2806391417980194
1761315716026808800,8.628808837890626,-0.1970195472240448,0.09161077439785004,-0.20297707617282867
1761315716036790500,8.63879052734375,-0.21767929196357727,0.09091196209192276,-0.10990970581769943
1761315716046773800,8.648773681640625,-0.24185246229171753,0.10978324711322784,-0.022455936297774315
1761315716056755700,8.658755615234375,-0.26126453280448914,0.1345546394586563,0.035074200481176376
1761315716066737700,8.668737548828124,-0.29295748472213745,0.13626611232757568,0.05115184932947159
1761315716076720600,8.678720703125,-0.3161701261997223,0.15304535627365112,0.03427406772971153
1761315716086702600,8.68870263671875,-0.3387078046798706,0.17433863878250122,-0.006313659250736237
1761315716096684800,8.698684814453125,-0.3722034692764282,0.18866831064224243,-0.0677085816860199
1761315716106667800,8.708667724609375,-0.4181123971939087,0.2038966566324234,-0.14043207466602325
1761315716116649700,8.718649658203125,-0.46598565578460693,0.23811347782611847,-0.2112567126750946
1761315716126631700,8.728631591796875,-0.5199019312858582,0.2789967656135559,-0.2897455096244812
1761315716136614700,8.73861474609375,-0.5729805827140808,0.30906546115875244,-0.3614308834075928
1761315716146596600,8.7485966796875,-0.6257171034812927,0.329135000705719,-0.4198130965232849
1761315716156578600,8.75857861328125,-0.6764631271362305,0.33626455068588257,-0.45455801486968994
1761315716166561300,8.768561279296875,-0.7090770602226257,0.36026617884635925,-0.47147655487060547
1761315716176543500,8.77854345703125,-0.7193979024887085,0.3640771806240082,-0.4646740257740021
1761315716186525400,8.788525390625,-0.7046205401420593,0.35617876052856445,-0.43546485900878906
1761315716196508400,8.79850830078125,-0.6735861897468567,0.366712361574173,-0.38634204864501953
1761315716206490600,8.80849072265625,-0.6376155614852905,0.38339877128601074,-0.32369330525398254
1761315716216472300,8.818472412109376,-0.6045318841934204,0.46569231152534485,-0.2556394040584564
1761315716226455600,8.82845556640625,-0.5520530343055725,0.6617240905761719,-0.1797962784767151
1761315716236437200,8.838437255859375,-0.4553390145301819,0.8417779803276062,-0.09675492346286774
1761315716246419500,8.84841943359375,-0.36112695932388306,0.9125795364379883,-0.03220381960272789
1761315716256402400,8.85840234375,-0.31033143401145935,0.9126332998275757,-0.0009995601139962673
1761315716266384400,8.86838427734375,-0.29941385984420776,0.8386053442955017,0.006060666870325804
1761315716276366600,8.87836669921875,-0.31238558888435364,0.6205974221229553,-0.016543710604310036
1761315716286349600,8.888349609375,-0.37282243371009827,0.1792202591896057,-0.04353420063853264
1761315716296331500,8.89833154296875,-0.5400844216346741,-0.31909605860710144,-0.07021055370569229
1761315716306313500,8.9083134765625,-0.7754534482955933,-0.6609371900558472,-0.06310241669416428
1761315716316296400,8.91829638671875,-0.960847795009613,-0.7045698761940002,-0.015674181282520294
1761315716326278400,8.9282783203125,-1.0301233530044556,-0.5592619776725769,0.05215606838464737
1761315716336260400,8.93826025390625,-1.0047037601470947,-0.35401883721351624,0.09731528908014297
1761315716346243300,8.948243408203124,-0.9305683970451355,-0.14867262542247772,0.1087859496474266
1761315716356225500,8.9582255859375,-0.8249993920326233,0.03594914823770523,0.10338079184293747
1761315716366207500,8.96820751953125,-0.7173635959625244,0.1768886148929596,0.10043514519929886
1761315716376190500,8.9781904296875,-0.6138840913772583,0.2829556465148926,0.11359196156263351
1761315716386172400,8.98817236328125,-0.502540111541748,0.34920230507850647,0.1555424928665161
1761315716396154400,8.998154296875,-0.39222559332847595,0.3820175230503082,0.2310018241405487
1761315716406137300,9.008137451171875,-0.2851286828517914,0.39486515522003174,0.3371317386627197
1761315716416119300,9.018119384765624,-0.19315722584724426,0.4200277626514435,0.4576624035835266
1761315716426101500,9.0281015625,-0.11996930092573166,0.4375486969947815,0.5742233395576477
1761315716436084500,9.03808447265625,-0.055007606744766235,0.41072186827659607,0.661608874797821
1761315716446066400,9.04806640625,-0.010568032041192055,0.3424997925758362,0.717677891254425
1761315716456048400,9.05804833984375,0.02038482390344143,0.252699613571167,0.7442474365234375
1761315716466031400,9.06803125,0.032458771020174026,0.14170944690704346,0.7362003922462463
1761315716476013300,9.078013427734374,0.014837701804935932,0.021245621144771576,0.6863279342651367
1761315716485995500,9.08799560546875,-0.02322034165263176,-0.08944316953420639,0.6187824010848999
1761315716495978200,9.097978271484376,-0.08884622156620026,-0.1228349506855011,0.6399204134941101
1761315716505960400,9.10796044921875,-0.206046462059021,-0.29182949662208557,0.6330068111419678
1761315716515942400,9.1179423828125,-0.2827995717525482,-0.5901408195495605,0.44038888812065125
1761315716525925400,9.12792529296875,-0.3228018581867218,-0.7326680421829224,0.20664672553539276
1761315716535907600,9.137907470703125,-0.35600587725639343,-0.835965633392334,-0.010870940051972866
1761315716545889300,9.14788916015625,-0.4051373302936554,-0.8930291533470154,-0.1743595451116562
1761315716555872500,9.15787255859375,-0.4503468871116638,-0.9034298658370972,-0.2848074734210968
1761315716565854200,9.167854248046876,-0.4758184850215912,-0.8883886337280273,-0.3310772478580475
