time,seconds_elapsed,z,y,x
1761315236096033000,0.071032958984375,0.09175369143486023,-0.17529234290122986,-0.0329856351017952
1761315236106015200,0.08101513671875,0.10776785761117935,-0.1666557341814041,0.0020842282101511955
1761315236115996200,0.09099609375,0.10922247171401978,-0.133188858628273,0.03354894369840622
1761315236125978000,0.10097802734375,0.10567931830883026,-0.0882115364074707,0.0532197579741478
1761315236135960000,0.1109599609375,0.09622536599636078,-0.05899612605571747,0.04133060947060585
1761315236145941200,0.120941162109375,0.09257237613201141,-0.04043173789978027,0.008675806224346161
1761315236155923200,0.130923095703125,0.0931478813290596,-0.024139851331710815,-0.032701194286346436
1761315236165905200,0.1409052734375,0.08929598331451416,-0.013985777273774147,-0.0646185651421547
1761315236175886000,0.150885986328125,0.08176269382238388,-0.014979135245084763,-0.07009296119213104
1761315236185868300,0.160868408203125,0.06380634009838104,-0.005585871171206236,-0.04941961541771889
1761315236195850200,0.170850341796875,0.045273665338754654,0.008955521509051323,-0.015835024416446686
1761315236205831200,0.1808310546875,0.03214921057224274,0.00043148500844836235,0.010997757315635681
1761315236215813000,0.190813232421875,0.02026192471385002,-0.0172596275806427,0.023735390976071358
1761315236225795300,0.20079541015625,0.012200852856040001,-0.030578583478927612,0.011742713861167431
1761315236235776300,0.2107763671875,0.009114515967667103,-0.046317603439092636,-0.01296529546380043
1761315236245758000,0.220758056640625,0.003177154343575239,-0.053441859781742096,-0.03387470170855522
1761315236255739100,0.2307392578125,-0.0015382387209683657,-0.0463637113571167,-0.03958771377801895
1761315236265721000,0.24072119140625,-0.004892137832939625,-0.03134160116314888,-0.03074059821665287
1761315236275703300,0.250703369140625,-0.008051179349422455,-0.03434031829237938,-0.01822800189256668
1761315236285684200,0.260684326171875,-0.010328036732971668,-0.03486282005906105,-0.006789041683077812
1761315236295666200,0.270666259765625,-0.007190832868218422,-0.03608547896146774,-0.0013948092237114906
1761315236305648000,0.280648193359375,-0.009447840042412281,-0.041104987263679504,-0.007125099189579487
1761315236315629300,0.29062939453125,-0.01158156432211399,-0.05084310099482536,-0.00578792579472065
1761315236325611000,0.300611083984375,-0.017117047682404518,-0.05264047160744667,-0.0026929043233394623
1761315236335593200,0.31059326171875,-0.020665708929300308,-0.04215134680271149,0.004763946868479252
1761315236345574100,0.32057421875,-0.0203399658203125,-0.043221957981586456,0.017012381926178932
1761315236355556400,0.330556396484375,-0.014957718551158905,-0.02880706638097763,0.028340402990579605
1761315236365538000,0.3405380859375,-0.005140586756169796,-0.021257519721984863,0.04397175461053848
1761315236375519200,0.350519287109375,0.009573911316692829,-0.018627116456627846,0.060595206916332245
1761315236385501200,0.360501220703125,0.02598930336534977,-0.017364606261253357,0.07475726306438446
1761315236395483100,0.370483154296875,0.0334663949906826,-0.01350355427712202,0.06783490628004074
1761315236405464000,0.380464111328125,0.036055341362953186,-0.004989852663129568,0.04915936291217804
1761315236415446300,0.3904462890625,0.039646346122026443,0.006460941396653652,0.02527453564107418
1761315236425428200,0.40042822265625,0.04222671315073967,0.014370206743478775,0.002403308404609561
1761315236435409200,0.4104091796875,0.047076862305402756,0.005902952514588833,-0.007435740437358618
1761315236445391000,0.42039111328125,0.04674118757247925,-0.0025576308835297823,-0.00434552226215601
1761315236455372000,0.4303720703125,0.04255443066358566,-0.005126516334712505,0.01295463740825653
1761315236465354200,0.440354248046875,0.04374757036566734,-0.0031586980912834406,0.026702454313635826
1761315236475336200,0.450336181640625,0.04637956991791725,0.0035676476545631886,0.03220934048295021
1761315236485317000,0.460317138671875,0.04983203113079071,0.0016424539498984814,0.02682596817612648
1761315236495299000,0.470299072265625,0.05212368071079254,-0.005736100021749735,0.015370113775134087
1761315236505281300,0.48028125,0.05099755898118019,-0.011044025421142578,-0.0015719798393547535
1761315236515262200,0.49026220703125,0.0501038022339344,-0.011588642373681068,-0.01862579770386219
1761315236525244200,0.500244140625,0.041384175419807434,-0.011014759540557861,-0.03424835205078125
1761315236535226000,0.51022607421875,0.03292384743690491,0.00138838030397892,-0.040404777973890305
1761315236545207300,0.520207275390625,0.024828610941767693,0.0014429506845772266,-0.04848165437579155
1761315236555189200,0.530189208984375,0.01638931967318058,-0.02257237210869789,-0.04529917612671852
1761315236565171200,0.540171142578125,0.00911539327353239,-0.03576963394880295,-0.03440446779131889
1761315236575152000,0.550152099609375,0.0013823729241266847,-0.03969007357954979,-0.012315680272877216
1761315236585134300,0.56013427734375,0.0022649066522717476,-0.04164561256766319,0.01122131384909153
1761315236595116000,0.570115966796875,0.0057448591105639935,-0.04211858659982681,0.02819523587822914
1761315236605097000,0.580096923828125,0.006402004510164261,-0.029741007834672928,0.03777477890253067
1761315236615079200,0.5900791015625,0.004485593643039465,-0.02945791371166706,0.03429668769240379
1761315236625060000,0.60006005859375,0.0019300447311252356,-0.02165352925658226,0.020560916513204575
1761315236635042300,0.610042236328125,-0.003420245833694935,0.005005512852221727,0.010823599994182587
1761315236645024000,0.62002392578125,-0.004719335585832596,0.03312529996037483,0.008902395144104958
1761315236655005200,0.630005126953125,-0.011491487734019756,0.04958682879805565,0.005329498089849949
1761315236664987100,0.639987060546875,-0.019174236804246902,0.05749695748090744,0.015963707119226456
1761315236674969000,0.649968994140625,-0.027625512331724167,0.0677325502038002,0.02440539561212063
1761315236684950300,0.6599501953125,-0.029246270656585693,0.055905986577272415,0.03511907532811165
1761315236694932500,0.669932373046875,-0.0313352569937706,0.022675063461065292,0.044590339064598083
1761315236704914400,0.67991455078125,-0.02832387574017048,-0.008772626519203186,0.056000515818595886
1761315236714895400,0.689895263671875,-0.01899668574333191,-0.0388178788125515,0.0704263225197792
1761315236724877300,0.699877197265625,-0.009517471306025982,-0.06240653991699219,0.0799521654844284
1761315236734859500,0.709859619140625,-0.003681153990328312,-0.07064582407474518,0.08251731842756271
1761315236744840400,0.71984033203125,-0.0008437632932327688,-0.05694522708654404,0.07020289450883865
1761315236754822400,0.729822509765625,0.001696093357168138,-0.031966909766197205,0.03643641248345375
1761315236764803300,0.73980322265625,0.012065806426107883,0.006721629295498133,0.006042449735105038
1761315236774785500,0.74978564453125,0.017048047855496407,0.03657886013388634,-0.02671443112194538
1761315236784767500,0.759767578125,0.012933979742228985,0.040794387459754944,-0.049262359738349915
1761315236794748400,0.76974853515625,0.010031666606664658,0.03489416092634201,-0.05093669146299362
1761315236804730400,0.77973046875,0.0019185510464012623,0.030950043350458145,-0.04068462550640106
1761315236814712600,0.789712646484375,0.005225132219493389,0.018743978813290596,-0.017226969823241234
1761315236824693500,0.799693603515625,0.010306403040885925,-0.0016630298923701048,0.008836010470986366
1761315236834675200,0.80967529296875,0.015720076858997345,-0.01993710920214653,0.02895432896912098
1761315236844657400,0.819657470703125,0.021247651427984238,-0.02743471786379814,0.030029088258743286
1761315236854638300,0.829638427734375,0.026872780174016953,-0.023860754445195198,0.01940387487411499
1761315236864620500,0.83962060546875,0.036010097712278366,-0.011396409012377262,0.0030179661698639393
1761315236874602200,0.849602294921875,0.04202670976519585,-0.0018673520535230637,-0.015930689871311188
1761315236884583400,0.85958349609375,0.037000250071287155,0.009486548602581024,-0.0249398872256279
1761315236894565400,0.8695654296875,0.030321842059493065,0.019896846264600754,-0.02350151352584362
1761315236904547300,0.87954736328125,0.018679402768611908,0.024491332471370697,-0.019736764952540398
1761315236914528300,0.8895283203125,0.008352462202310562,0.02343539148569107,-0.01717533729970455
1761315236924510500,0.899510498046875,-0.0007624340942129493,0.01730317249894142,-0.020198799669742584
1761315236934491400,0.909491455078125,-0.0009762858971953392,0.008852163329720497,-0.019847262650728226
1761315236944473600,0.9194736328125,-0.0006271712481975555,-0.004978187382221222,-0.013891937211155891
1761315236954455300,0.929455322265625,-0.0007864282815717161,-0.018299851566553116,-0.004669676534831524
1761315236964436500,0.9394365234375,-0.00683556729927659,-0.03689374774694443,-0.0011189058423042297
1761315236974418400,0.94941845703125,-0.013845274224877357,-0.039099644869565964,0.004946443252265453
1761315236984400400,0.959400390625,-0.01811504177749157,-0.019002649933099747,0.0010167520958930254
1761315236994381300,0.96938134765625,-0.017558973282575607,0.015729764476418495,-0.005265112034976482
1761315237004363300,0.97936328125,-0.012932530604302883,0.04053950682282448,-0.013321440666913986
1761315237014345500,0.989345458984375,-0.023372387513518333,0.03974615037441254,-0.02099267579615116
1761315237024326400,0.999326416015625,-0.02334188111126423,0.05045153573155403,-0.023359809070825577
1761315237034308400,1.009308349609375,-0.023447874933481216,0.055345628410577774,-0.017808450385928154
1761315237044290300,1.019290283203125,-0.026454972103238106,0.04064392298460007,-0.014407709240913391
1761315237054271500,1.029271484375,-0.03170033544301987,0.024991992861032486,-0.008258203975856304
1761315237064253400,1.03925341796875,-0.050129227340221405,0.010371489450335503,0.00829937495291233
1761315237074235400,1.0492353515625,-0.06445543467998505,-0.005425583571195602,0.011406217701733112
1761315237084216300,1.05921630859375,-0.08233524858951569,0.002032054588198662,0.010847868397831917
1761315237094198500,1.069198486328125,-0.0861145406961441,0.025470536202192307,0.008615607395768166
1761315237104179500,1.079179443359375,-0.07800125330686569,0.04602111130952835,0.0012109318049624562
1761315237114161400,1.089161376953125,-0.057441651821136475,0.05447717756032944,-0.005864022299647331
1761315237124143400,1.099143310546875,-0.02753267250955105,0.05570242181420326,-0.0039369091391563416
1761315237134124500,1.10912451171875,0.002408714033663273,0.044160544872283936,0.006432108581066132
1761315237144106500,1.1191064453125,0.032768867909908295,0.023644402623176575,0.020628489553928375
1761315237154088400,1.12908837890625,0.05306561663746834,0.01458645984530449,0.047883544117212296
1761315237164069400,1.1390693359375,0.06650377810001373,0.012016761116683483,0.06626426428556442
1761315237174051600,1.149051513671875,0.06600790470838547,0.004258707165718079,0.07223933190107346
1761315237184033300,1.159033203125,0.060728173702955246,-0.002094479277729988,0.06428075581789017
1761315237194014200,1.16901416015625,0.05510704219341278,0.007513407152146101,0.045922521501779556
1761315237203996400,1.178996337890625,0.055453862994909286,0.023651348426938057,0.025444747880101204
1761315237213978600,1.188978515625,0.05234409123659134,0.020139170810580254,-0.003937642090022564
1761315237223959600,1.19895947265625,0.04856985807418823,0.016962019726634026,-0.02337152697145939
1761315237233941200,1.208941162109375,0.047627367079257965,0.022208180278539658,-0.025326553732156754
1761315237243923500,1.21892333984375,0.05141893029212952,0.018913868814706802,-0.01721932366490364
1761315237253904400,1.228904296875,0.05618013069033623,0.011891379952430725,-0.0038627726025879383
1761315237263886300,1.23888623046875,0.055169153958559036,0.009820233099162579,0.019456353038549423
1761315237273867300,1.2488671875,0.05280373618006706,0.019322656095027924,0.03863510489463806
1761315237283849500,1.258849365234375,0.05602090805768967,0.027544351294636726,0.04947637394070625
1761315237293831400,1.26883154296875,0.054870691150426865,0.012359805405139923,0.050450026988983154
1761315237303812600,1.2788125,0.0504506416618824,-0.017109403386712074,0.037996552884578705
1761315237313794300,1.288794189453125,0.043805789202451706,-0.036912404000759125,0.0241094958037138
1761315237323776500,1.298776611328125,0.029245411977171898,-0.03872466832399368,0.0067509436048567295
1761315237333757400,1.30875732421875,0.013130622915923595,-0.027793720364570618,-0.00896649993956089
1761315237343739400,1.318739501953125,-0.00393333425745368,0.003310945350676775,-0.024009378626942635
1761315237353721300,1.328721435546875,-0.014623262919485569,0.024411169812083244,-0.030406825244426727
1761315237363702500,1.33870263671875,-0.03146420791745186,0.017679693177342415,-0.03388938307762146
1761315237373684500,1.3486845703125,-0.04538588225841522,0.004961500875651836,-0.03010423481464386
1761315237383666400,1.35866650390625,-0.0526086762547493,-0.0014170021750032902,-0.02486075647175312
1761315237393647400,1.3686474609375,-0.05190107226371765,-0.006965964566916227,-0.02466661110520363
1761315237403629300,1.37862939453125,-0.04504631832242012,-0.009326848201453686,-0.029751339927315712
1761315237413610500,1.388610595703125,-0.03245462849736214,-0.0013291090726852417,-0.033506128937006
1761315237423592400,1.398592529296875,-0.019316568970680237,0.0033508175984025,-0.03281863033771515
1761315237433574400,1.408574462890625,-0.007791473064571619,0.0012634322047233582,-0.03072751872241497
1761315237443555300,1.418555419921875,-0.0070071169175207615,0.0005934322252869606,-0.026427239179611206
1761315237453537500,1.42853759765625,-0.004478711634874344,-0.004316105041652918,-0.02639448083937168
1761315237463519200,1.438519287109375,-0.003852990223094821,-0.013963396660983562,-0.01789458654820919
1761315237473500400,1.44850048828125,0.0034533918369561434,-0.014822532422840595,0.001930784317664802
1761315237483482400,1.458482421875,0.011864504776895046,-0.01378234475851059,0.026583965867757797
1761315237493464600,1.468464599609375,0.01727205328643322,-0.01956939324736595,0.0443941205739975
1761315237503445500,1.478445556640625,0.01851397380232811,-0.023825371637940407,0.046177200973033905
1761315237513427500,1.488427490234375,0.01964581571519375,-0.029173266142606735,0.03626358509063721
1761315237523409400,1.498409423828125,0.023053064942359924,-0.02638333849608898,0.021192222833633423
1761315237533390600,1.508390625,0.025036586448550224,-0.0069696931168437,0.004442271776497364
1761315237543372300,1.518372314453125,0.02284165285527706,0.01570212095975876,-0.012417580932378769
1761315237553354500,1.5283544921875,0.019428279250860214,0.028327103704214096,-0.01735481433570385
1761315237563335400,1.53833544921875,0.019682593643665314,0.04157339036464691,-0.01406957022845745
1761315237573317600,1.548317626953125,0.016976822167634964,0.02249556966125965,-0.0019521880894899368
1761315237583298600,1.558298583984375,0.005184509325772524,-0.007794694043695927,0.004889102187007666
1761315237593280300,1.5682802734375,0.0032326788641512394,-0.026868786662817,0.011074027046561241
1761315237603262500,1.578262451171875,0.0006564126815646887,-0.0351179763674736,0.009474847465753555
1761315237613243400,1.588243408203125,-0.0053372979164123535,-0.037953708320856094,0.0006517944857478142
1761315237623225300,1.598225341796875,-0.008092306554317474,-0.01862611621618271,-0.004309655167162418
1761315237633207300,1.608207275390625,-0.008201762102544308,0.016045311465859413,-0.009035700932145119
1761315237643188500,1.6181884765625,-0.010617174208164215,0.03666545823216438,-0.014228738844394684
1761315237653170400,1.62817041015625,-0.010851532220840454,0.037510745227336884,-0.013776266947388649
1761315237663152400,1.63815234375,-0.0049590617418289185,0.03290611505508423,0.002034856006503105
1761315237673133300,1.64813330078125,0.00787258055061102,0.03350905328989029,0.020752085372805595
1761315237683115500,1.658115478515625,0.011771158315241337,0.022536808624863625,0.03773609548807144
1761315237693097500,1.668097412109375,0.012307252734899521,0.021517084911465645,0.03617654740810394
1761315237703078100,1.678078125,0.015856316313147545,0.022389240562915802,0.030298009514808655
1761315237713060400,1.688060302734375,0.017174847424030304,0.02238631248474121,0.021950330585241318
1761315237723041300,1.698041259765625,0.01071896031498909,0.020994024351239204,0.004625821020454168
1761315237733023500,1.7080234375,0.0027915285900235176,0.010389052331447601,-0.002657125471159816
1761315237743005200,1.718005126953125,-0.011754301376640797,-0.0009825993329286575,-0.00003885594196617603
1761315237752986000,1.727986083984375,-0.0279974527657032,-0.0006622211076319218,-0.0003762785345315933
1761315237762968300,1.73796826171875,-0.03915729746222496,0.015738531947135925,-0.004126172512769699
1761315237772950300,1.7479501953125,-0.043266553431749344,0.03176543861627579,-0.01760869100689888
1761315237782931200,1.75793115234375,-0.043623119592666626,0.04446468502283096,-0.040353935211896896
1761315237792913200,1.7679130859375,-0.04210884869098663,0.051686644554138184,-0.055687882006168365
1761315237802895400,1.777895263671875,-0.03599162772297859,0.05011334642767906,-0.06903832405805588
1761315237812876300,1.787876220703125,-0.029820816591382027,0.035754114389419556,-0.07265783101320267
1761315237822858200,1.797858154296875,-0.022402482107281685,0.0285321231931448,-0.057088106870651245
1761315237832840200,1.807840087890625,-0.006888770032674074,0.013694589957594872,-0.02980508841574192
1761315237842821400,1.8178212890625,-0.0020728381350636482,-0.007929239422082901,-0.00047050858847796917
1761315237852803300,1.82780322265625,-0.0006344649591483176,-0.020162735134363174,0.02088058739900589
1761315237862785300,1.837785400390625,0.005796626675873995,-0.016735197976231575,0.029979659244418144
1761315237872766200,1.84776611328125,0.010735991410911083,-0.012867756187915802,0.021424520760774612
1761315237882748400,1.85774853515625,0.0118343411013484,-0.017787683755159378,0.004873299039900303
1761315237892729300,1.867729248046875,0.012118766084313393,-0.018082762137055397,-0.011074508540332317
1761315237902711300,1.877711181640625,0.012743133120238781,-0.02046763151884079,-0.018515530973672867
1761315237912693200,1.887693359375,0.0019469446269795299,-0.026616070419549942,-0.02274516224861145
1761315237922674200,1.897674072265625,-0.010232695378363132,-0.01994752138853073,-0.02097836509346962
1761315237932656400,1.907656494140625,-0.020011290907859802,0.007572520058602095,-0.009245808236300945
1761315237942638300,1.917638427734375,-0.022927245125174522,0.023802094161510468,0.0008110293420031667
1761315237952619300,1.927619384765625,-0.02074664831161499,0.018561791628599167,-0.0020279004238545895
1761315237962601200,1.937601318359375,-0.01563180238008499,0.018572188913822174,-0.007487127091735601
1761315237972583200,1.947583251953125,-0.0004328755894675851,0.018829716369509697,-0.014214271679520607
1761315237982564000,1.957564208984375,0.01345902681350708,0.008894224651157856,-0.0186606515198946
1761315237992546300,1.96754638671875,0.02278807945549488,-0.01879253052175045,-0.0184199009090662
1761315238002528300,1.9775283203125,0.021231064572930336,-0.0484926663339138,-0.018850674852728844
1761315238012509400,1.987509521484375,0.017366550862789154,-0.06836944073438644,-0.019152145832777023
1761315238022491100,1.9974912109375,0.011497119441628456,-0.06278368085622787,-0.019611086696386337
1761315238032472300,2.007472412109375,0.008521835319697857,-0.04687422513961792,-0.014642693102359772
1761315238042454300,2.017454345703125,-0.0027486621402204037,-0.038843728601932526,-0.02322792448103428
1761315238052436200,2.027436279296875,-0.01675449311733246,-0.016194341704249382,-0.027482058852910995
1761315238062417200,2.037417236328125,-0.017896782606840134,0.03113935887813568,-0.026288220658898354
1761315238072399400,2.0473994140625,-0.012353412806987762,0.06362432986497879,-0.031153550371527672
1761315238082381300,2.05738134765625,-0.001399336731992662,0.06635169684886932,-0.03901362791657448
1761315238092362500,2.067362548828125,0.004971477203071117,0.05951962247490883,-0.03409876301884651
1761315238102344200,2.07734423828125,0.019781045615673065,0.0397871658205986,-0.02680332399904728
1761315238112326400,2.087326416015625,0.024772342294454575,0.01281386986374855,-0.00530735170468688
1761315238122307300,2.097307373046875,0.03130083158612251,0.00012921961024403572,0.021644381806254387
1761315238132289500,2.10728955078125,0.034567464143037796,-0.005480196326971054,0.048643771559000015
1761315238142271200,2.117271240234375,0.031878262758255005,-0.010325824841856956,0.061367616057395935
1761315238152252200,2.127252197265625,0.020068209618330002,-0.014496068470180035,0.052929122000932693
1761315238162234400,2.137234375,0.008393900468945503,0.009014073759317398,0.025806358084082603
1761315238172216000,2.147216064453125,-0.006835119798779488,0.041847389191389084,-0.011257119476795197
1761315238182197200,2.157197265625,-0.017917701974511147,0.06167035549879074,-0.04614223539829254
1761315238192179200,2.16717919921875,-0.027111200615763664,0.07044494152069092,-0.07268650084733963
1761315238202160400,2.177160400390625,-0.0354173444211483,0.06099306792020798,-0.07553397864103317
1761315238212142300,2.187142333984375,-0.03385833278298378,0.04099006950855255,-0.056218866258859634
1761315238222124300,2.197124267578125,-0.027242271229624748,0.0160333551466465,-0.019693100824952126
1761315238232105200,2.207105224609375,-0.015488941222429276,-0.006314028985798359,0.027014482766389847
1761315238242087400,2.21708740234375,-0.0017542558489367366,-0.02692899852991104,0.067100889980793
1761315238252069000,2.227069091796875,0.004648782312870026,-0.05139545723795891,0.08770763128995895
1761315238262050300,2.23705029296875,0.009890803135931492,-0.05851862579584122,0.08028871566057205
1761315238272032300,2.2470322265625,0.0179657731205225,-0.04415646567940712,0.05771097168326378
1761315238282014500,2.257014404296875,0.024363528937101364,-0.019255634397268295,0.02647426724433899
1761315238291995400,2.266995361328125,0.021611150354146957,-0.003900380339473486,0.0032264702022075653
1761315238301977300,2.276977294921875,0.009779894724488258,0.008378392085433006,-0.00939627643674612
1761315238311959300,2.286959228515625,0.004822686780244112,0.028245840221643448,-0.009417049586772919
1761315238321940200,2.296940185546875,0.004673325456678867,0.04735802486538887,0.003822103375568986
1761315238331922200,2.306922119140625,0.008860613219439983,0.04482002928853035,0.00925655011087656
1761315238341904400,2.316904296875,0.01663949340581894,0.02985222451388836,0.010173242539167404
1761315238351885300,2.32688525390625,0.03491703420877457,0.013202672824263573,0.012535465881228447
1761315238361867300,2.3368671875,0.04812324792146683,-0.006972874514758587,0.018399355933070183
1761315238371848400,2.346848388671875,0.05121331289410591,-0.026605963706970215,0.03095429576933384
1761315238381830100,2.356830078125,0.04561948776245117,-0.04853761941194534,0.03857322037220001
1761315238391812400,2.366812255859375,0.0389874167740345,-0.05833592265844345,0.05303870886564255
1761315238401793300,2.376793212890625,0.030705390498042107,-0.060871805995702744,0.058166489005088806
1761315238411775200,2.386775146484375,0.021606702357530594,-0.04959172010421753,0.05958488583564758
1761315238421757200,2.396757080078125,0.012469807639718056,-0.01954539492726326,0.05857756361365318
1761315238431738400,2.40673828125,0.0012341979891061783,0.008121918886899948,0.04871614649891853
1761315238441720300,2.41672021484375,-0.0049796630628407,0.024441201239824295,0.028317740187048912
1761315238451702300,2.426702392578125,-0.007769857067614794,0.03919937461614609,0.006330681964755058
1761315238461683200,2.43668310546875,-0.00681270333006978,0.04057656601071358,-0.009071927517652512
1761315238471665400,2.44666552734375,-0.007373298518359661,0.03185311332345009,-0.013910092413425446
1761315238481647400,2.4566474609375,-0.004959378857165575,0.00719351414591074,-0.0035602510906755924
1761315238491628300,2.466628173828125,-0.004816367290914059,-0.015320316888391972,0.015806257724761963
1761315238501610200,2.4766103515625,-0.003219690639525652,-0.027051234617829323,0.039855532348155975
1761315238511592400,2.486592529296875,0.002224875846877694,-0.02997591905295849,0.05396522581577301
1761315238521573400,2.496573486328125,0.008458691649138927,-0.03373474255204201,0.05910659208893776
1761315238531555000,2.50655517578125,0.011929322965443134,-0.034443143755197525,0.05080685019493103
1761315238541536300,2.516536376953125,0.007769044488668442,-0.029663795605301857,0.03307405859231949
1761315238551518200,2.526518310546875,0.006506706587970257,-0.01304274145513773,0.019006973132491112
1761315238561500400,2.53650048828125,0.003222579136490822,-0.003989045508205891,0.0003950311802327633
1761315238571481300,2.5464814453125,-0.009069773368537426,-0.001551454421132803,-0.01807665452361107
1761315238581463300,2.55646337890625,-0.018761184066534042,0.005069135222584009,-0.020543990656733513
1761315238591445200,2.5664453125,-0.017873819917440414,0.018795067444443703,-0.008596251718699932
1761315238601426400,2.576426513671875,-0.012892153114080429,0.012297477573156357,-0.0016172188334167004
1761315238611408100,2.586408203125,-0.012500135228037834,-0.012104533612728119,0.010265540331602097
1761315238621390300,2.596390380859375,-0.007141958922147751,-0.013636120595037937,0.015789363533258438
1761315238631371300,2.606371337890625,0.00032767513766884804,-0.010691463947296143,0.016548098996281624
1761315238641353500,2.616353515625,0.005718206986784935,-0.026639221236109734,0.012323848903179169
1761315238651335200,2.626335205078125,0.008327572606503963,-0.04244960844516754,0.0041330307722091675
1761315238661316400,2.63631640625,0.009170030243694782,-0.050419144332408905,-0.0049586514942348
1761315238671298300,2.64629833984375,0.017336081713438034,-0.041803549975156784,-0.010185104794800282
1761315238681279200,2.656279296875,0.020478973165154457,-0.01610860973596573,-0.006112520582973957
1761315238691261000,2.666260986328125,0.020575378090143204,0.013888703659176826,0.009869908913969994
1761315238701243000,2.676242919921875,0.0158731397241354,0.02548331208527088,0.01516118086874485
1761315238711224000,2.68622412109375,0.0072447629645466805,0.025667868554592133,0.01462162472307682
1761315238721206000,2.6962060546875,0.001933947205543518,0.02798587828874588,0.01328770536929369
1761315238731188000,2.70618798828125,0.004917752929031849,0.033017922192811966,0.018518686294555664
1761315238741169000,2.7161689453125,0.0151534928008914,0.023769840598106384,0.018772637471556664
1761315238751151000,2.726151123046875,0.023323271423578262,0.005680851638317108,0.01285136491060257
1761315238761133000,2.736133056640625,0.031903013586997986,-0.007817910052835941,0.013056798838078976
1761315238771114000,2.746114013671875,0.04069224372506142,-0.014021744020283222,0.01690826192498207
1761315238781096000,2.756095947265625,0.04167088121175766,-0.01927291788160801,0.02665458433330059
1761315238791078100,2.766078125,0.03180253878235817,-0.03578078746795654,0.03382168710231781
1761315238801059000,2.77605908203125,0.018311409279704094,-0.04115721955895424,0.0335824191570282
1761315238811041000,2.786041015625,0.002566002309322357,-0.028002535924315453,0.022006189450621605
1761315238821023000,2.79602294921875,-0.006752931047230959,-0.009807288646697998,0.006322834175080061
1761315238831004200,2.806004150390625,-0.011615864001214504,0.0056598191149532795,-0.0107570830732584
1761315238840986000,2.815986083984375,-0.01393776573240757,0.0026142620481550694,-0.022434918209910393
1761315238850967000,2.825967041015625,-0.012567569501698017,-0.002395676216110587,-0.030573539435863495
1761315238860949000,2.835948974609375,-0.00764917116612196,-0.009250439703464508,-0.030896268784999847
1761315238870931200,2.84593115234375,-0.00705209095031023,-0.015480905771255493,-0.023833565413951874
1761315238880912100,2.855912109375,-0.005325282458215952,-0.014768527820706367,-0.02077411487698555
1761315238890893800,2.865893798828125,-0.011625255458056927,-0.0018314237240701914,-0.014237386174499989
1761315238900876000,2.8758759765625,-0.0166153684258461,-0.003983805887401104,-0.008258743211627007
1761315238910857000,2.88585693359375,-0.017538154497742653,-0.0062072789296507835,0.005277039483189583
1761315238920839200,2.895839111328125,-0.014838941395282745,-0.0026486997958272696,0.02506604604423046
1761315238930820900,2.90582080078125,-0.010580014437437057,-0.0033030386548489332,0.030383845791220665
1761315238940802000,2.915802001953125,-0.003626233898103237,-0.004794941283762455,0.021463587880134583
1761315238950784000,2.925783935546875,0.005596292670816183,-0.007856777869164944,0.0074140820652246475
1761315238960766000,2.935765869140625,0.021760916337370872,-0.003010121174156666,-0.0016723359003663063
1761315238970747000,2.945746826171875,0.028617756441235542,-0.0006425711326301098,-0.010805114172399044
1761315238980729000,2.95572900390625,0.03404247760772705,0.005276598501950502,-0.012271576561033726
1761315238990711000,2.9657109375,0.03751390799880028,0.020730389282107353,-0.006628604605793953
1761315239000692200,2.975692138671875,0.03456191346049309,0.018903981894254684,0.004661450162529945
1761315239010674000,2.985673828125,0.02905210107564926,0.007446263916790485,0.00851371232420206
1761315239020655000,2.995655029296875,0.02161460369825363,-0.004468738101422787,0.01116825733333826
1761315239030637000,3.005636962890625,0.020245738327503204,-0.022776372730731964,0.01074108574539423
1761315239040619000,3.015618896484375,0.01917886734008789,-0.031595379114151,0.004615296609699726
1761315239050600000,3.025599853515625,0.016786018386483192,-0.03537813574075699,-0.00005881744436919689
1761315239060582000,3.035581787109375,0.024058125913143158,-0.017343223094940186,0.0022049392573535442
1761315239070564000,3.045564208984375,0.03015996143221855,-0.0028939771000295877,0.005944017320871353
1761315239080545000,3.055544921875,0.03287425637245178,0.005887292791157961,0.0017500931862741709
1761315239090527000,3.06552685546875,0.027048591524362564,0.014159336686134338,-0.005756825674325228
1761315239100509000,3.075509033203125,0.024377366527915,0.020909857004880905,-0.010822528973221779
1761315239110490000,3.085489990234375,0.01793917454779148,0.0226861834526062,-0.014465999789536
1761315239120472000,3.09547216796875,0.006903818808495998,0.023939218372106552,-0.014439111575484276
1761315239130454000,3.1054541015625,0.002112525748088956,0.023122161626815796,-0.0062536196783185005
1761315239140435000,3.11543505859375,-0.002837730571627617,0.02175094746053219,0.002923955675214529
1761315239150417200,3.125417236328125,-0.0037389444187283516,0.023838866502046585,0.005355687811970711
1761315239160398800,3.13539892578125,0.006565554067492485,0.024455061182379723,0.00843632873147726
1761315239170380000,3.145380126953125,0.015715375542640686,0.019246451556682587,0.0015525902854278684
1761315239180362000,3.155362060546875,0.015409670770168304,0.017445113509893417,0.0016540931537747383
1761315239190344200,3.16534423828125,0.015226712450385094,0.006636142265051603,0.006005431991070509
1761315239200325000,3.1753251953125,0.005962211173027754,-0.0016196544747799635,0.012522025033831596
1761315239210307000,3.18530712890625,-0.003637419082224369,0.010036734864115715,0.016891207545995712
1761315239220288000,3.1952880859375,-0.0063086305744946,0.02061454951763153,0.01720540225505829
1761315239230270200,3.205270263671875,-0.0023810004349797964,0.020400963723659515,0.010702762752771378
1761315239240252000,3.215251953125,-0.001341241761110723,0.024544039741158485,0.006864406168460846
1761315239250232800,3.22523291015625,-0.0009044833714142442,0.03252153843641281,0.0006043794564902782
1761315239260215000,3.235215087890625,0.0008553977822884917,0.03095083311200142,-0.014893272891640663
1761315239270197200,3.245197265625,0.002362214494496584,0.015012078918516636,-0.02792332135140896
1761315239280178200,3.25517822265625,0.000984468380920589,-0.012707285583019257,-0.03760724514722824
1761315239290159900,3.265159912109375,-0.0042342618107795715,-0.02837306447327137,-0.03350544720888138
1761315239300142000,3.27514208984375,-0.011669839732348919,-0.04000245779752731,-0.031434837728738785
1761315239310123000,3.285123046875,-0.013554292730987072,-0.03439943492412567,-0.03068196214735508
1761315239320105000,3.29510498046875,-0.016580941155552864,-0.009797712787985802,-0.02167006954550743
1761315239330087000,3.3050869140625,-0.01582673378288746,0.013777388259768486,-0.017241498455405235
1761315239340068000,3.315068115234375,-0.01062718965113163,0.030311670154333115,-0.011961236596107483
1761315239350050000,3.325050048828125,0.0006014961982145905,0.03624279424548149,-0.003227666951715946
1761315239360032000,3.335031982421875,0.011615551076829433,0.02797713130712509,-0.0001929823774844408
1761315239370013000,3.345012939453125,0.023736396804451942,0.01703020930290222,0.003960217349231243
1761315239379995100,3.3549951171875,0.033976584672927856,-0.004645319655537605,0.0009628711268305779
1761315239389976000,3.36497607421875,0.03845202550292015,-0.01603512652218342,0.0036912797950208187
1761315239399958000,3.3749580078125,0.04477469623088837,-0.030065998435020447,0.010978277772665024
1761315239409940000,3.38493994140625,0.034287698566913605,-0.048047397285699844,0.018079863861203194
1761315239419921200,3.394921142578125,0.017762264236807823,-0.0511600524187088,0.02179127186536789
1761315239429903000,3.404903076171875,-0.0006015616818331182,-0.0445394366979599,0.01619144342839718
1761315239439885000,3.414885009765625,-0.011242857202887535,-0.023470638319849968,0.0035812717396765947
1761315239449866000,3.424865966796875,-0.016671178862452507,0.00171247823163867,-0.01125493273139
1761315239459848000,3.434847900390625,-0.02296924591064453,0.01498568244278431,-0.02570253424346447
1761315239469830100,3.444830078125,-0.027693426236510277,0.0188352819532156,-0.032282404601573944
1761315239479811000,3.45481103515625,-0.029636938124895096,0.004251059610396624,-0.032349951565265656
1761315239489793000,3.46479296875,-0.03274378180503845,-0.01901591382920742,-0.028553882613778114
1761315239499775000,3.47477490234375,-0.03602660447359085,-0.03606073558330536,-0.022791584953665733
1761315239509756200,3.484756103515625,-0.04009751230478287,-0.037819754332304,-0.006864549592137337
1761315239519737900,3.49473779296875,-0.0431387722492218,-0.03612062707543373,0.008993059396743774
1761315239529720000,3.504719970703125,-0.050803083926439285,-0.02840624749660492,0.021440140902996063
1761315239539701000,3.514700927734375,-0.05418739467859268,-0.013386580161750317,0.019656112417578697
1761315239549683200,3.52468310546875,-0.0633755698800087,-0.0005757096223533154,0.011933743953704834
1761315239559664000,3.5346640625,-0.062299396842718124,0.007246748078614473,-0.008897529914975166
1761315239569646000,3.54464599609375,-0.0598737895488739,0.010003652423620224,-0.021353401243686676
1761315239579628000,3.5546279296875,-0.052663836628198624,0.012307359836995602,-0.030702689662575722
1761315239589609200,3.564609130859375,-0.04612470790743828,0.011887910775840282,-0.031983666121959686
1761315239599591000,3.5745908203125,-0.03682774305343628,0.01660088449716568,-0.013218376785516739
1761315239609573000,3.584572998046875,-0.029411638155579567,0.02152373641729355,0.0008274014107882977
1761315239619554000,3.594553955078125,-0.021715382114052773,0.023087501525878906,0.016158925369381905
1761315239629536300,3.604536376953125,-0.010761533863842487,0.01884029060602188,0.0290659349411726
1761315239639518000,3.61451806640625,-0.0015309194568544626,0.00643987488001585,0.04009740427136421
1761315239649499000,3.624498779296875,0.007596799172461033,-0.006604287773370743,0.037709880620241165
1761315239659481000,3.634481201171875,0.014261039905250072,-0.01657574623823166,0.02918902225792408
1761315239669463000,3.644463134765625,0.018754057586193085,-0.00878546666353941,0.018205346539616585
1761315239679444000,3.65444384765625,0.020462801679968834,0.005564969964325428,0.01097065955400467
1761315239689426400,3.664426513671875,0.024031437933444977,0.01348813995718956,0.0096798250451684
1761315239699408400,3.674408447265625,0.01771525666117668,0.01815938949584961,0.010482032783329487
1761315239709389600,3.6843896484375,0.015807367861270905,0.025339003652334213,0.0021751003805547953
1761315239719371300,3.694371337890625,0.014752468094229698,0.03442518785595894,-0.011270146816968918
1761315239729352200,3.704352294921875,0.015591364353895187,0.03996562957763672,-0.022096695378422737
1761315239739334400,3.71433447265625,0.01847892813384533,0.030137496069073677,-0.028313416987657547
1761315239749316000,3.724316162109375,0.024282222613692284,0.020332537591457367,-0.032636526972055435
1761315239759297300,3.73429736328125,0.035644352436065674,0.012834928929805756,-0.031339824199676514
1761315239769279200,3.744279296875,0.04656943678855896,-0.0009791543707251549,-0.023892823606729507
1761315239779261400,3.754261474609375,0.049536723643541336,-0.023310862481594086,-0.004976681433618069
1761315239789242400,3.764242431640625,0.04908425360918045,-0.03314698114991188,0.014432968571782112
1761315239799224300,3.774224365234375,0.048594363033771515,-0.034513216465711594,0.021571163088083267
1761315239809206300,3.784206298828125,0.04014495015144348,-0.03399283438920975,0.01593751087784767
1761315239819187500,3.7941875,0.023786738514900208,-0.025796137750148773,-0.00348146865144372
1761315239829169200,3.804169189453125,0.003742988221347332,-0.006888759322464466,-0.024180090054869652
1761315239839151400,3.8141513671875,-0.018208887428045273,0.012950219213962555,-0.04893626272678375
1761315239849132300,3.82413232421875,-0.02921253629028797,0.031194202601909637,-0.061431288719177246
1761315239859114500,3.834114501953125,-0.0330275297164917,0.03684118390083313,-0.0622456856071949
1761315239869096200,3.84409619140625,-0.028839711099863052,0.03478442505002022,-0.05540269613265991
1761315239879077400,3.854077392578125,-0.023479076102375984,0.017470141872763634,-0.03775849938392639
1761315239889059300,3.864059326171875,-0.021124575287103653,-0.0026835957542061806,-0.01940852403640747
1761315239899041500,3.87404150390625,-0.014489115215837955,-0.03206069767475128,-0.00908646173775196
1761315239909022200,3.884022216796875,-0.01666039042174816,-0.06309344619512558,-0.006660588085651398
1761315239919004400,3.89400439453125,-0.019213201478123665,-0.07876715809106827,-0.005735286511480808
1761315239928985300,3.9039853515625,-0.024851646274328232,-0.07742305845022202,-0.011048292741179466
1761315239938967300,3.91396728515625,-0.032982826232910156,-0.0624648742377758,-0.014646768569946289
1761315239948949200,3.92394921875,-0.040985360741615295,-0.033060379326343536,-0.016649998724460602
1761315239958930200,3.93393017578125,-0.04675319790840149,0.010378684848546982,-0.017225483432412148
1761315239968912400,3.943912353515625,-0.04054084047675133,0.05253066495060921,-0.018583962693810463
1761315239978894300,3.953894287109375,-0.025673745200037956,0.06946463882923126,-0.02271132916212082
1761315239988875300,3.963875244140625,-0.012757946737110615,0.051194027066230774,-0.02037200890481472
1761315239998857200,3.973857177734375,0.00500179547816515,0.026913737878203392,-0.013932554982602596
1761315240008839400,3.98383935546875,0.016853928565979004,-0.002938434947282076,-0.000549637945368886
1761315240018820400,3.9938203125,0.026554279029369354,-0.03708552569150925,0.015869582071900368
1761315240028802300,4.00380224609375,0.028309302404522896,-0.05653911828994751,0.027467116713523865
1761315240038784300,4.0137841796875,0.021913660690188408,-0.05677826702594757,0.03608904033899307
1761315240048765400,4.023765380859375,0.012503115460276604,-0.04083605110645294,0.03024100698530674
1761315240058747400,4.033747314453125,0.007670233026146889,-0.005483661778271198,0.022692497819662094
1761315240068729300,4.043729248046875,0.005618000868707895,0.020425166934728622,0.012692060321569443
1761315240078710300,4.053710205078125,0.01035663764923811,0.02540631964802742,0.0010700917337089777
1761315240088692500,4.0636923828125,0.010881813243031502,0.016943326219916344,-0.01026405580341816
1761315240098674200,4.073674072265625,0.009753238409757614,0.010433798655867577,-0.009743854403495789
1761315240108655000,4.083655029296875,0.01372481044381857,0.0016080825589597225,0.0007223682478070259
1761315240118637300,4.09363720703125,0.013888843357563019,-0.010164139792323112,0.013665586709976196
1761315240128618200,4.1036181640625,0.0113133005797863,-0.010282117873430252,0.029465321451425552
1761315240138600400,4.113600341796875,0.013631006702780724,-0.007007770240306854,0.03691227361559868
1761315240148582100,4.12358203125,0.011939100921154022,-0.0180047620087862,0.030949987471103668
1761315240158563300,4.133563232421875,0.0026606619358062744,-0.027572518214583397,0.01818065159022808
1761315240168545300,4.143545166015625,-0.005132812540978193,-0.01368786208331585,0.011274809017777443
1761315240178527200,4.15352734375,-0.01678491197526455,0.009085720404982567,0.005972779355943203
1761315240188508200,4.163508056640625,-0.020711209625005722,0.029242120683193207,0.006069984752684832
1761315240198490400,4.173490478515625,-0.024697577580809593,0.03414738550782204,0.001474016928113997
1761315240208472300,4.183472412109375,-0.027047283947467804,0.03759351745247841,0.001566428574733436
1761315240218453500,4.19345361328125,-0.018931446596980095,0.04049421846866608,0.0042613958939909935
1761315240228435200,4.203435302734375,-0.01606961339712143,0.03274548798799515,0.006494190078228712
1761315240238417400,4.21341748046875,-0.009970328770577908,0.025929570198059082,0.0000054889824241399765
1761315240248398300,4.2233984375,-0.004745739512145519,0.01821386069059372,-0.0007380656898021698
1761315240258380300,4.23338037109375,0.006550389342010021,0.013708123937249184,0.0027038846164941788
1761315240268362200,4.2433623046875,0.010328349657356739,0.0068086725659668446,0.002935313154011965
1761315240278343400,4.253343505859375,0.00891502108424902,-0.003421552013605833,0.009451296180486679
1761315240288325400,4.263325439453125,0.0061988625675439835,-0.01641671359539032,0.013581592589616776
1761315240298306300,4.273306396484375,0.00485254917293787,-0.019133687019348145,0.019372809678316116
1761315240308288300,4.283288330078125,0.0036711706779897213,-0.023996086791157722,0.0214998759329319
1761315240318270500,4.2932705078125,0.002290800679475069,-0.016319485381245613,0.014718102291226387
1761315240328251400,4.30325146484375,0.012767942622303963,0.007469466887414455,0.0062963878735899925
1761315240338233300,4.3132333984375,0.019488779827952385,0.026227101683616638,-0.007521636784076691
1761315240348215300,4.32321533203125,0.024537334218621254,0.031918276101350784,-0.019264578819274902
1761315240358196200,4.3331962890625,0.014184991829097271,0.030590422451496124,-0.01927986368536949
1761315240368178400,4.343178466796875,0.0038047879934310913,0.02285606786608696,-0.004416229203343391
1761315240378160000,4.35316015625,-0.0031920545734465122,0.005943737458437681,0.010333266109228134
1761315240388141300,4.363141357421875,0.001357157132588327,-0.002595954341813922,0.02829708717763424
1761315240398123300,4.373123291015625,0.005816644057631493,-0.010432376526296139,0.0364610031247139
1761315240408105500,4.38310546875,0.011950436048209667,-0.022477854043245316,0.04211462661623955
1761315240418086400,4.39308642578125,0.013865183107554913,-0.03288116306066513,0.04081842303276062
1761315240428068400,4.403068359375,0.00583388889208436,-0.04210502281785011,0.0329865999519825
1761315240438050300,4.41305029296875,0.002180031966418028,-0.03588521108031273,0.01800365559756756
1761315240448031500,4.423031494140625,-0.00904013216495514,-0.022025318816304207,0.0024369468446820974
1761315240458013200,4.43301318359375,-0.017891068011522293,-0.005457345396280289,-0.017510078847408295
1761315240467994400,4.442994384765625,-0.02671891450881958,0.018446123227477074,-0.028775252401828766
1761315240477976300,4.452976318359375,-0.02973221056163311,0.043416690081357956,-0.02714080549776554
1761315240487958500,4.46295849609375,-0.033911511301994324,0.06546659767627716,-0.014459632337093353
1761315240497939500,4.472939453125,-0.031870633363723755,0.06683159619569778,-0.00421990267932415
1761315240507921200,4.482921142578125,-0.037826262414455414,0.07576969265937805,-0.001525848638266325
1761315240517903400,4.4929033203125,-0.03465023264288902,0.07257363945245743,-0.013193216174840927
1761315240527884300,4.50288427734375,-0.03329841047525406,0.052644938230514526,-0.03625486046075821
1761315240537866200,4.5128662109375,-0.03203533589839935,0.014713538810610771,-0.04428248479962349
1761315240547848200,4.52284814453125,-0.030141830444335938,-0.02249055542051792,-0.03725626692175865
1761315240557829400,4.532829345703125,-0.029977964237332344,-0.03387555852532387,-0.011853080242872238
1761315240567811300,4.542811279296875,-0.025947002694010735,-0.027892500162124634,0.013393686152994633
1761315240577793300,4.552793212890625,-0.015945734456181526,-0.014706442132592201,0.02749858796596527
1761315240587774200,4.562774169921875,-0.00881032645702362,0.006024402566254139,0.02725091390311718
1761315240597756400,4.57275634765625,-0.0022669564932584763,0.017621152102947235,0.015630999580025673
1761315240607738400,4.58273828125,0.005451682955026627,0.021406035870313644,-0.004027656279504299
1761315240617719300,4.59271923828125,0.007073444314301014,0.02762238308787346,-0.024738632142543793
1761315240627701200,4.602701171875,0.016798775643110275,0.033680010586977005,-0.03400030732154846
1761315240637683500,4.612683349609375,0.02636016346514225,0.027436790987849236,-0.026552118360996246
1761315240647664400,4.622664306640625,0.03507136180996895,0.018043024465441704,-0.0009495532140135765
1761315240657646300,4.632646240234375,0.03045424073934555,-0.0036926590837538242,0.036651864647865295
1761315240667628300,4.642628173828125,0.031124025583267212,-0.025630714371800423,0.06634930521249771
1761315240677609500,4.652609375,0.025091389194130898,-0.043960727751255035,0.0680299773812294
1761315240687591400,4.66259130859375,0.021538199856877327,-0.037698835134506226,0.0520922914147377
1761315240697572600,4.672572509765625,0.012195156887173653,-0.02522376738488674,0.012774585746228695
1761315240707554800,4.682554931640625,0.00590610271319747,0.007725126575678587,-0.024317122995853424
1761315240717536800,4.692536865234375,0.0015951410168781877,0.04529460147023201,-0.049381837248802185
1761315240727518000,4.70251806640625,0.001554927439428866,0.05625777319073677,-0.058887988328933716
1761315240737499600,4.712499755859375,-0.004616659600287676,0.05631788820028305,-0.048482757061719894
1761315240747481900,4.72248193359375,-0.003013703040778637,0.042683035135269165,-0.03016260452568531
1761315240757462800,4.732462890625,-0.001427835668437183,0.01782561093568802,-0.005376880057156086
1761315240767444700,4.74244482421875,-0.00025151739828288555,-0.010190045461058617,0.009363716468214989
1761315240777426700,4.7524267578125,0.002195823471993208,-0.034674085676670074,0.016856415197253227
1761315240787408000,4.762407958984375,0.007244910579174757,-0.04275624454021454,0.01670061983168125
1761315240797389800,4.772389892578125,0.004267495591193438,-0.04705878719687462,0.011784444563090801
1761315240807371800,4.782371826171875,-0.004375527147203684,-0.03339757025241852,0.007856282405555248
1761315240817352700,4.792352783203125,-0.013371831737458706,0.005357004702091217,0.005257418379187584
1761315240827335000,4.8023349609375,-0.01866646111011505,0.03930111974477768,-0.0039856149815022945
1761315240837316900,4.81231689453125,-0.023587629199028015,0.055370062589645386,-0.020237747579813004
1761315240847297800,4.8222978515625,-0.027723252773284912,0.07000439614057541,-0.0357796885073185
1761315240857279700,4.83227978515625,-0.026978926733136177,0.07006169110536575,-0.034373026341199875
1761315240867262000,4.842261962890625,-0.02229815535247326,0.045411475002765656,-0.023976311087608337
1761315240877243000,4.852242919921875,-0.019611386582255363,0.009903582744300365,-0.008818209171295166
1761315240887224600,4.862224609375,-0.0097249336540699,-0.02192065864801407,0.00839939434081316
1761315240897205800,4.872205810546875,-0.0011111446656286716,-0.043035272508859634,0.028823766857385635
1761315240907187700,4.882187744140625,0.005345156416296959,-0.05569833517074585,0.04900200664997101
1761315240917170000,4.892169921875,0.008052199147641659,-0.051022887229919434,0.06292442232370377
1761315240927150800,4.90215087890625,0.010839729569852352,-0.028030749410390854,0.0619766041636467
1761315240937132800,4.9121328125,0.011085557751357555,-0.0027810672763735056,0.04870022460818291
1761315240947114800,4.92211474609375,0.005165083799511194,0.023144539445638657,0.013978727161884308
1761315240957096000,4.932095947265625,-0.005268069915473461,0.04650263115763664,-0.020298749208450317
1761315240967077600,4.94207763671875,-0.0034834854304790497,0.05691346153616905,-0.05174615606665611
1761315240977059800,4.952059814453125,-0.005774073302745819,0.050113849341869354,-0.06952624022960663
1761315240987040800,4.962040771484375,-0.0033543251920491457,0.027070049196481705,-0.07281284779310226
1761315240997023000,4.97202294921875,-0.002116677351295948,0.0010213819332420826,-0.05342390015721321
1761315241007004700,4.982004638671875,-0.0059305899776518345,-0.019840223714709282,-0.02586098201572895
1761315241016985900,4.99198583984375,-0.00471115717664361,-0.031293708831071854,0.007852202281355858
1761315241026967800,5.0019677734375,-0.007397754117846489,-0.025534089654684067,0.03625481575727463
1761315241036949800,5.01194970703125,0.0022321015130728483,-0.019020499661564827,0.04468066990375519
1761315241046930700,5.0219306640625,0.013260784558951855,-0.015350930392742157,0.033102042973041534
1761315241056913000,5.031912841796875,0.025961313396692276,-0.016603168100118637,0.009049341082572937
1761315241066894800,5.041894775390625,0.029519028961658478,-0.025429682806134224,-0.023892097175121307
1761315241076875800,5.051875732421875,0.031093722209334373,-0.03622184693813324,-0.048105042427778244
1761315241086857700,5.061857666015625,0.02036517858505249,-0.04159796983003616,-0.05463751032948494
1761315241096838700,5.071838623046875,0.005826379172503948,-0.03162712603807449,-0.04918530583381653
1761315241106820900,5.08182080078125,-0.011658337898552418,-0.009920235723257065,-0.039431747049093246
1761315241116802800,5.091802734375,-0.02171868085861206,0.01967518776655197,-0.028669903054833412
1761315241126783700,5.10178369140625,-0.02237009070813656,0.039715476334095,-0.016835348680615425
1761315241136765700,5.111765625,-0.020259106531739235,0.033293526619672775,-0.007559397257864475
1761315241146748000,5.121747802734375,-0.014792435802519321,0.012103019282221794,-0.006568967364728451
1761315241156728800,5.131728759765625,-0.003818628378212452,-0.008954310789704323,-0.004667478613555431
1761315241166710800,5.141710693359375,-0.00028115150053054094,-0.022969728335738182,-0.002508187899366021
1761315241176692700,5.151692626953125,0.001884602359496057,-0.04572400450706482,-0.005373664665967226
1761315241186674000,5.161673828125,-0.004354385193437338,-0.058935150504112244,-0.016073180362582207
1761315241196655900,5.17165576171875,-0.017250964418053627,-0.06338794529438019,-0.0334012545645237
1761315241206637800,5.181637939453125,-0.028547829017043114,-0.053926799446344376,-0.049531489610672
1761315241216618800,5.19161865234375,-0.038589462637901306,-0.03020760789513588,-0.06809283792972565
1761315241226601000,5.20160107421875,-0.043040137737989426,0.0006110239773988724,-0.06497374176979065
1761315241236582700,5.211582763671875,-0.03614015877246857,0.03372413292527199,-0.0543869212269783
1761315241246563600,5.2215634765625,-0.026917899027466774,0.039719708263874054,-0.0297622662037611
1761315241256545800,5.2315458984375,-0.008852269500494003,0.035626739263534546,-0.0015558416489511728
1761315241266528000,5.241528076171875,0.008247888647019863,0.018218453973531723,0.02293858304619789
1761315241276509000,5.251509033203125,0.02661268785595894,-0.011392395943403244,0.03827405348420143
1761315241286490600,5.26149072265625,0.03562455624341965,-0.038965966552495956,0.05314221605658531
1761315241296471800,5.271471923828125,0.03772040829062462,-0.0545756071805954,0.057889752089977264
1761315241306453800,5.281453857421875,0.03429052233695984,-0.05555964261293411,0.06321235001087189
1761315241316435700,5.291435791015625,0.021973565220832825,-0.030405765399336815,0.05529442057013512
1761315241326416600,5.301416748046875,0.012419740669429302,-0.007487133610993624,0.033439721912145615
1761315241336398800,5.31139892578125,0.006344141438603401,0.014786186628043652,0.003941074945032597
1761315241346380800,5.321380859375,0.00260080280713737,0.026271335780620575,-0.020305410027503967
1761315241356362000,5.331362060546875,0.008550836704671383,0.02203531190752983,-0.03132050856947899
1761315241366343700,5.34134375,0.009415032342076302,0.017532438039779663,-0.027338549494743347
1761315241376326000,5.351325927734375,0.010684279724955559,0.003556717187166214,-0.013252303004264832
1761315241386306800,5.361306884765625,0.009125265292823315,-0.023858394473791122,0.004688614048063755
1761315241396288800,5.371288818359375,0.008344692178070545,-0.049325138330459595,0.020501932129263878
1761315241406270700,5.381270751953125,0.006443727761507034,-0.05748719722032547,0.03062407486140728
1761315241416252000,5.391251953125,0.0052953725680708885,-0.04929051920771599,0.033484842628240585
1761315241426233900,5.40123388671875,-0.004517576657235622,-0.029515216127038002,0.022605562582612038
1761315241436215800,5.4112158203125,-0.005333750043064356,-0.003948586527258158,0.0029746973887085915
1761315241446196700,5.42119677734375,-0.01461646519601345,0.018070163205266,-0.025253212079405785
1761315241456179000,5.431178955078125,-0.018635792657732964,0.0312594510614872,-0.038187213242053986
1761315241466161000,5.441160888671875,-0.0258345827460289,0.042067889124155045,-0.043482646346092224
1761315241476141600,5.4511416015625,-0.025941746309399605,0.04811060056090355,-0.03143327683210373
1761315241486123800,5.461123779296875,-0.014006522484123707,0.04557473585009575,-0.012374362908303738
1761315241496106000,5.47110595703125,-0.002875531790778041,0.029576340690255165,0.011262835934758186
1761315241506087000,5.4810869140625,0.00987781397998333,0.005062208045274019,0.029833324253559113
1761315241516068600,5.491068603515625,0.020159976556897163,-0.019830599427223206,0.03804435953497887
1761315241526049800,5.5010498046875,0.02422316186130047,-0.04304724186658859,0.035193443298339844
1761315241536031700,5.51103173828125,0.025749515742063522,-0.054616305977106094,0.026515616104006767
1761315241546014000,5.521013916015625,0.018891077488660812,-0.05054513365030289,0.013893297873437405
1761315241555994600,5.53099462890625,0.013472030870616436,-0.03359845280647278,-0.003939297515898943
1761315241565976800,5.540976806640625,0.009863980114459991,0.0022972295992076397,-0.020171530544757843
1761315241575958800,5.550958740234375,0.006809628568589687,0.03493223339319229,-0.019925929605960846
1761315241585940000,5.56093994140625,0.0026231398805975914,0.05043555796146393,-0.016388719901442528
1761315241595921700,5.570921630859375,0.000043050735257565975,0.050806280225515366,-0.004680142272263765
1761315241605904000,5.58090380859375,0.0022441535256803036,0.03568831458687782,0.012720951810479164
1761315241615884800,5.590884765625,0.01244097575545311,0.012713175266981125,0.0271292757242918
1761315241625867000,5.600866943359375,0.022242741659283638,-0.00738437008112669,0.03183188661932945
1761315241635848700,5.6108486328125,0.03411252051591873,-0.022581132128834724,0.03215980529785156
1761315241645829600,5.62082958984375,0.040204767137765884,-0.03663622960448265,0.034169960767030716
1761315241655811800,5.630811767578125,0.03745684400200844,-0.03341517224907875,0.03433205932378769
1761315241665793800,5.640793701171875,0.03525467962026596,-0.0176487248390913,0.030877940356731415
1761315241675774700,5.650774658203125,0.02040857821702957,-0.007211275398731232,0.022222086787223816
1761315241685756700,5.660756591796875,0.003826670814305544,0.0028802407905459404,0.007819978520274162
1761315241695738000,5.670738037109375,-0.003783859545364976,0.00346508901566267,-0.004850286059081554
1761315241705719000,5.680718994140625,-0.011615684255957603,0.007023870944976807,-0.018374618142843246
1761315241715701000,5.690700927734375,-0.009321155957877636,0.0013569733127951622,-0.025847479701042175
1761315241725682000,5.700681884765625,-0.0010909232078120112,0.002765785902738571,-0.018443625420331955
1761315241735664000,5.7106640625,0.005196921527385712,0.007651343941688538,0.0020452539902180433
1761315241745646000,5.72064599609375,0.008790858089923859,-0.0008795596659183502,0.02729708142578602
1761315241755627300,5.730627197265625,0.006643776781857014,-0.009107199497520924,0.04393697902560234
1761315241765609000,5.74060888671875,0.0019904354121536016,-0.017524119466543198,0.054423972964286804
1761315241775591200,5.750591064453125,0.003959761466830969,-0.026227250695228577,0.05373895913362503
1761315241785572000,5.760572021484375,0.0013565217377617955,-0.0231851227581501,0.04453267902135849
1761315241795554000,5.770553955078125,-0.0007131020538508892,-0.0014066649600863457,0.02156147174537182
1761315241805536000,5.780535888671875,0.0019023885251954198,0.02530883625149727,0.007877349853515625
1761315241815517000,5.790516845703125,0.001263291691429913,0.04904807358980179,-0.012435546144843102
1761315241825499100,5.8004990234375,0.004238575231283903,0.05646630749106407,-0.02451191656291485
1761315241835480800,5.810480712890625,0.0021340693347156048,0.038931988179683685,-0.03104821965098381
1761315241845462000,5.8204619140625,0.002979889279231429,-0.0005475105717778206,-0.03243199735879898
1761315241855444000,5.83044384765625,0.0013727052137255669,-0.038607992231845856,-0.014824427664279938
1761315241865426200,5.84042626953125,-0.0005269274697639048,-0.07199710607528687,0.007010030560195446
1761315241875407000,5.850406982421875,-0.0011491944314911962,-0.0792606845498085,0.019537877291440964
1761315241885389000,5.86038916015625,-0.0004336030688136816,-0.04440682753920555,0.027545202523469925
1761315241895371000,5.87037109375,0.0029153116047382355,0.0008696215227246284,0.027201402932405472
1761315241905352200,5.880352294921875,0.014657188206911087,0.026086825877428055,0.021525941789150238
1761315241915334000,5.890333984375,0.018697643652558327,0.029919330030679703,0.012501435354351997
1761315241925316000,5.900316162109375,0.02492224983870983,0.027582406997680664,0.008880868554115295
1761315241935297000,5.910297119140625,0.029034346342086792,0.016295993700623512,0.0032879062928259373
1761315241945279200,5.920279296875,0.03196169435977936,0.0028805858455598354,-0.0050608376041054726
1761315241955260200,5.93026025390625,0.03389149531722069,-0.014148779213428497,-0.005139620043337345
1761315241965242000,5.9402421875,0.031057091429829597,-0.021730266511440277,0.0040168603882193565
1761315241975224000,5.95022412109375,0.022347107529640198,-0.02019118145108223,0.015896596014499664
1761315241985205000,5.960205078125,0.013317660428583622,-0.022202134132385254,0.029942108318209648
1761315241995187000,5.97018701171875,0.004730782471597195,-0.03138129413127899,0.03514665365219116
1761315242005169200,5.980169189453125,0.0036277014296501875,-0.03219489008188248,0.03605639189481735
1761315242015150000,5.990150146484375,0.0002175064291805029,-0.00864667072892189,0.03398364409804344
1761315242025132000,6.000132080078125,0.005295621696859598,0.006772499065846205,0.03843751177191734
1761315242035114000,6.010114013671875,0.0007627310696989298,0.007058966439217329,0.03638266399502754
1761315242045095000,6.020094970703125,-0.006369747221469879,-0.005256555508822203,0.02849651128053665
1761315242055077000,6.0300771484375,-0.013832483440637589,-0.00846881978213787,0.008840501308441162
1761315242065059000,6.04005908203125,-0.013367229141294956,-0.014746157452464104,-0.010021336376667023
1761315242075040000,6.0500400390625,-0.024348462000489235,-0.02822839841246605,-0.022316837683320045
1761315242085022000,6.06002197265625,-0.03480802848935127,-0.024601705372333527,-0.030674636363983154
1761315242095004200,6.070004150390625,-0.03738846629858017,-0.0006519020535051823,-0.026011811569333076
1761315242104985000,6.079985107421875,-0.03934003412723541,0.012419424951076508,-0.024300996214151382
1761315242114967000,6.089967041015625,-0.03530268371105194,0.01786026358604431,-0.019316891208291054
1761315242124949000,6.099948974609375,-0.022504594177007675,0.02580420672893524,-0.009098341688513756
1761315242134930200,6.10993017578125,-0.013642186298966408,0.02231733500957489,0.006068037357181311
1761315242144912100,6.119912109375,-0.0021652940195053816,0.017820853739976883,0.021285872906446457
1761315242154894000,6.12989404296875,0.013123777695000172,0.022777825593948364,0.025662384927272797
1761315242164875000,6.139875,0.028748011216521263,0.030378488823771477,0.01701962947845459
1761315242174857200,6.149857177734375,0.04373742640018463,0.027010364457964897,0.012191918678581715
1761315242184839000,6.1598388671875,0.045977409929037094,0.01860223338007927,0.011524796485900879
1761315242194819800,6.16981982421875,0.043314557522535324,0.010585528798401356,0.012461990118026733
1761315242204802000,6.179802001953125,0.03534185141324997,-0.00004794122651219368,0.02586088515818119
1761315242214783000,6.189782958984375,0.03244265913963318,-0.0049585155211389065,0.03363325819373131
1761315242224765200,6.19976513671875,0.035189978778362274,-0.006065324880182743,0.03825996816158295
1761315242234747000,6.209746826171875,0.041888151317834854,-0.011260300874710083,0.022526884451508522
1761315242244728000,6.21972802734375,0.051942914724349976,-0.003772290423512459,0.008694958873093128
1761315242254710000,6.2297099609375,0.05002452805638313,-0.005240003578364849,0.003921376541256905
1761315242264692000,6.23969189453125,0.043236926198005676,0.0013294820673763752,0.012745228596031666
1761315242274673000,6.2496728515625,0.03797556459903717,0.015262553468346596,0.01933385618031025
1761315242284655000,6.259655029296875,0.0307589340955019,0.0197939220815897,0.021124299615621567
1761315242294637000,6.269636962890625,0.028766822069883347,0.009355522692203522,0.018910391256213188
1761315242304618200,6.2796181640625,0.026030423119664192,-0.0018212324939668179,0.015064787119626999
1761315242314600000,6.289599853515625,0.019154241308569908,0.0017643566243350506,-0.00006856233812868595
1761315242324582100,6.29958203125,0.01227955799549818,0.01173736248165369,-0.01407812163233757
1761315242334563000,6.30956298828125,0.01000206544995308,0.0245928056538105,-0.016459431499242783
1761315242344545000,6.319544921875,0.003917541354894638,0.030644305050373077,-0.009937617927789688
1761315242354527000,6.32952685546875,-0.0022254979703575373,0.026488061994314194,0.0007155850762501359
1761315242364508200,6.339508056640625,-0.012042442336678505,0.014513690955936909,0.008092008531093597
1761315242374490000,6.349489990234375,-0.01524378452450037,0.0026139640249311924,0.012135021388530731
1761315242384472000,6.35947216796875,-0.01767098903656006,0.0014280588366091251,0.020515456795692444
1761315242394453000,6.369452880859375,-0.01457812450826168,-0.005659440532326698,0.024821380153298378
1761315242404435200,6.379435302734375,-0.013177035376429558,-0.01223052479326725,0.025036031380295753
1761315242414417200,6.389417236328125,-0.0054089645855128765,-0.00802619569003582,0.02217622473835945
1761315242424397800,6.399397705078125,0.0023496225476264954,-0.003447955008596182,0.02294161543250084
1761315242434380000,6.409380126953125,0.0030367770232260227,0.004636329598724842,0.015644611790776253
1761315242444361000,6.41936083984375,-0.0012881963048130274,0.01096666231751442,0.0093678068369627
1761315242454343200,6.42934326171875,-0.00007439462933689356,0.01768215000629425,0.0016275545349344611
1761315242464324900,6.439324951171875,-0.006204725243151188,0.02315148338675499,-0.0011117728427052498
1761315242474306000,6.44930615234375,-0.010063474997878075,0.021912524476647377,-0.0062150415033102036
1761315242484288000,6.4592880859375,-0.011436333879828453,0.011234315112233162,-0.00772691797465086
1761315242494270200,6.469270263671875,-0.009710501879453659,-0.0145791694521904,-0.010378523729741573
1761315242504251000,6.4792509765625,-0.0046606166288256645,-0.03829887881875038,-0.014104552567005157
1761315242514233000,6.489233154296875,0.004712068010121584,-0.04423534497618675,-0.01767243817448616
1761315242524215000,6.499215087890625,0.015333553776144981,-0.03093045763671398,-0.01195303164422512
1761315242534196200,6.5091962890625,0.019952302798628807,-0.004913209471851587,-0.005462071392685175
1761315242544178000,6.519177978515625,0.0226287804543972,0.030317215248942375,0.00281077204272151
1761315242554160000,6.52916015625,0.020338134840130806,0.05838747322559357,0.01381702721118927
1761315242564141000,6.53914111328125,0.021170638501644135,0.069273941218853,0.02150903455913067
1761315242574123300,6.549123291015625,0.017618069425225258,0.05103183910250664,0.028934020549058914
1761315242584105000,6.55910498046875,0.016635894775390625,0.0251616258174181,0.0305955670773983
1761315242594086000,6.5690859375,0.02191835083067417,0.0024821260012686253,0.02951039746403694
1761315242604068000,6.579068115234375,0.026523489505052567,-0.006646657828241587,0.022567803040146828
1761315242614050000,6.589050048828125,0.02512148581445217,0.00025709858164191246,0.014493539929389954
1761315242624031000,6.599031005859375,0.018933098763227463,0.024528615176677704,0.005594586953520775
1761315242634013000,6.609012939453125,0.012764696963131428,0.04080474376678467,-0.011752724647521973
1761315242643995100,6.6189951171875,-0.0011050454340875149,0.04116799682378769,-0.024459997192025185
1761315242653976000,6.62897607421875,-0.018257297575473785,0.02711690030992031,-0.04126470535993576
1761315242663958000,6.6389580078125,-0.03283251076936722,0.01952609047293663,-0.05328488349914551
1761315242673940000,6.64893994140625,-0.046540334820747375,0.014010151848196983,-0.04865151643753052
1761315242683921200,6.658921142578125,-0.054004374891519547,0.009922465309500694,-0.038469720631837845
1761315242693903600,6.668903564453125,-0.05500951409339905,0.011047391220927238,-0.03164702653884888
1761315242703884500,6.678884521484375,-0.050002239644527435,0.018732741475105286,-0.024098824709653854
1761315242713866800,6.68886669921875,-0.0445488840341568,0.03181871399283409,-0.02744189091026783
1761315242723848700,6.6988486328125,-0.039046794176101685,0.03012281283736229,-0.03178390860557556
1761315242733829600,6.70882958984375,-0.04147293418645859,0.030929487198591232,-0.0360308513045311
1761315242743811600,6.7188115234375,-0.05183715745806694,0.03778952360153198,-0.0375099703669548
1761315242753793800,6.728793701171875,-0.05848916620016098,0.033562254160642624,-0.03866416588425636
1761315242763774700,6.738774658203125,-0.058946166187524796,0.03222667798399925,-0.02745279297232628
1761315242773756700,6.748756591796875,-0.05940662696957588,0.04551105946302414,-0.007141927257180214
1761315242783738600,6.758738525390625,-0.05763855203986168,0.04934414476156235,0.010465295985341072
1761315242793719800,6.7687197265625,-0.047027647495269775,0.039867788553237915,0.013553297147154808
1761315242803701800,6.77870166015625,-0.033302515745162964,0.02612321637570858,0.005344902165234089
1761315242813683700,6.78868359375,-0.016857806593179703,0.010751241818070412,-0.005140257067978382
1761315242823664600,6.79866455078125,-0.0029539749957621098,-0.005690849386155605,-0.012555562891066074
1761315242833646800,6.808646728515625,0.007446424104273319,-0.011900817975401878,-0.016987908631563187
1761315242843628500,6.818628662109375,0.014642552472651005,0.0001230877824127674,-0.022761110216379166
1761315242853609500,6.828609375,0.024589087814092636,0.017956145107746124,-0.03573187440633774
1761315242863591700,6.838591796875,0.037347495555877686,0.03314654901623726,-0.03825442120432854
1761315242873574000,6.848573974609375,0.03890954330563545,0.042281460016965866,-0.0328315868973732
1761315242883554800,6.858554931640625,0.028330134227871895,0.03507867455482483,-0.020516864955425262
1761315242893536500,6.86853662109375,0.018135420978069305,0.022575367242097855,-0.006670700386166573
1761315242903518700,6.878518798828125,0.01641501858830452,0.004739111755043268,0.0024759266525506973
1761315242913499600,6.888499755859375,0.01488244254142046,-0.022943075746297836,0.009246567264199257
1761315242923481600,6.898481689453125,0.011964150704443455,-0.029090184718370438,0.01052355207502842
1761315242933463600,6.908463623046875,0.017357653006911278,-0.021774716675281525,0.012658425606787205
1761315242943444700,6.91844482421875,0.021649070084095,-0.010460808873176575,0.012264810502529144
1761315242953426700,6.9284267578125,0.02598573826253414,0.005432381294667721,0.005187690258026123
1761315242963408000,6.938407958984375,0.028413208201527596,0.027823973447084427,0.004484083503484726
1761315242973389600,6.9483896484375,0.024551110342144966,0.027609840035438538,-0.0010590099263936281
1761315242983371800,6.958371826171875,0.01626095548272133,0.012691077776253223,0.002573541598394513
1761315242993352700,6.968352783203125,0.01490365993231535,0.0038491017185151577,0.0024106705095618963
1761315243003334700,6.978334716796875,0.010967242531478405,0.0006836690008640289,0.0020159899722784758
1761315243013316600,6.988316650390625,0.015500709414482117,0.0035372143611311913,0.0041054668836295605
1761315243023297500,6.998297607421875,0.006717605050653219,0.001057812012732029,0.007733224891126156
1761315243033279700,7.00827978515625,-0.00894672330468893,0.010699305683374405,0.017966022714972496
1761315243043261700,7.01826171875,-0.022585835307836533,0.022198569029569626,0.02039003185927868
1761315243053242600,7.02824267578125,-0.03597539663314819,0.022157806903123856,0.011542487889528275
1761315243063224600,7.038224609375,-0.03431358188390732,0.01255844160914421,-0.0018145963549613953
1761315243073206800,7.048206787109375,-0.03550756722688675,0.006234476808458567,-0.0124044856056571
1761315243083187500,7.0581875,-0.0339842364192009,0.006748733576387167,-0.0223039872944355
1761315243093169700,7.068169677734375,-0.027104079723358154,0.011844974011182785,-0.0315074548125267
1761315243103151600,7.078151611328125,-0.020420344546437263,0.023346899077296257,-0.03642071783542633
1761315243113132800,7.0881328125,-0.019168898463249207,0.038031063973903656,-0.028945988044142723
1761315243123114500,7.098114501953125,-0.01780615746974945,0.0331185981631279,-0.012466080486774445
1761315243133096700,7.1080966796875,-0.0178638007491827,0.008406339213252068,-0.002903848886489868
1761315243143077600,7.11807763671875,-0.017045412212610245,-0.021954761818051338,0.002713822992518544
1761315243153059800,7.128059814453125,-0.008330424316227436,-0.04765800014138222,-0.005897983908653259
1761315243163041500,7.13804150390625,0.0006889030337333679,-0.05982944741845131,-0.021822089329361916
1761315243173022700,7.148022705078125,0.0049207089468836784,-0.038355305790901184,-0.02883254922926426
1761315243183004700,7.158004638671875,0.006153220310807228,-0.01666625402867794,-0.019969547167420387
1761315243192985900,7.16798583984375,0.007422515191137791,-0.0012766765430569649,-0.01217685081064701
1761315243202967600,7.177967529296875,0.006539943628013134,0.012844203040003777,-0.008057206869125366
1761315243212949800,7.18794970703125,0.013631605543196201,0.01589437760412693,-0.0069256741553545
1761315243222930700,7.1979306640625,0.024134313687682152,0.010400010272860527,-0.006058282218873501
1761315243232913000,7.207912841796875,0.03741033747792244,0.0073725259862840176,-0.00965658389031887
1761315243242894600,7.21789453125,0.04630396142601967,0.0028395592235028744,-0.005253845825791359
1761315243252875500,7.22787548828125,0.05020970478653908,-0.0006217951886355877,0.0039867195300757885
1761315243262857700,7.237857666015625,0.05180014669895172,-0.003014645306393504,0.02086317166686058
1761315243272839700,7.247839599609375,0.04886307194828987,0.012066863477230072,0.03681458160281181
1761315243282820600,7.257820556640625,0.04483317956328392,0.008403684943914413,0.04124608263373375
1761315243292802600,7.267802490234375,0.039921026676893234,-0.0078123509883880615,0.03001076728105545
1761315243302784800,7.27778466796875,0.028430284932255745,-0.027581261470913887,0.009336382150650024
1761315243312765700,7.287765625,0.01731782592833042,-0.0366964191198349,-0.016015980392694473
1761315243322747600,7.29774755859375,0.00671738013625145,-0.03212296962738037,-0.03278430551290512
1761315243332729600,7.3077294921875,-0.005983930546790361,-0.0023898405488580465,-0.02956577204167843
1761315243342710800,7.317710693359375,-0.009712622500956059,0.02787938341498375,-0.01772908866405487
1761315243352692500,7.3276923828125,-0.02093028649687767,0.036159150302410126,-0.0036275452002882957
1761315243362674700,7.3376748046875,-0.020530812442302704,0.027958745136857033,0.01647958718240261
1761315243372655600,7.347655517578125,-0.018693704158067703,0.017492251470685005,0.020847229287028313
1761315243382637800,7.357637939453125,-0.011738060042262077,0.0062142969109117985,0.02142992801964283
1761315243392619500,7.36761962890625,-0.0014022983377799392,-0.0032303682528436184,0.021653123199939728
1761315243402600700,7.3776005859375,0.0023104145657271147,0.004852592013776302,0.02256179228425026
1761315243412582700,7.387582763671875,-0.0031069281976670027,0.015307091176509857,0.026669509708881378
1761315243422564900,7.39756494140625,-0.010304121300578117,0.020184936001896858,0.023756543174386024
1761315243432545500,7.407545654296875,-0.02024776116013527,0.03213111311197281,0.023503094911575317
1761315243442527700,7.41752783203125,-0.01651320978999138,0.04661817476153374,0.0201544351875782
1761315243452508700,7.4275087890625,-0.014415232464671135,0.04822113737463951,0.01143012847751379
1761315243462490600,7.43749072265625,-0.0024800095707178116,0.04702777788043022,0.009351798333227634
1761315243472472600,7.44747265625,0.0033384819980710745,0.027821309864521027,0.015175343491137028
1761315243482453500,7.45745361328125,0.015615122392773628,0.011151520535349846,0.0275499876588583
1761315243492435700,7.467435791015625,0.019494177773594856,-0.00393475778400898,0.02831847220659256
1761315243502417700,7.477417724609375,0.013465581461787224,-0.0001948806457221508,0.026200193911790848
1761315243512398600,7.487398681640625,0.01277694758027792,0.020019836723804474,0.02545802854001522
1761315243522380500,7.497380615234375,0.01075960323214531,0.04338374733924866,0.025428732857108116
1761315243532362800,7.50736279296875,0.010107051581144333,0.04272037744522095,0.02070315182209015
1761315243542343700,7.51734375,0.009024742990732193,0.03389279544353485,0.021657895296812057
1761315243552325600,7.52732568359375,0.00790856871753931,0.025068936869502068,0.02553274668753147
1761315243562307600,7.5373076171875,0.012745668180286884,0.018008897081017494,0.026107991114258766
1761315243572288800,7.547288818359375,0.017034653574228287,0.014056792482733727,0.03282525762915611
1761315243582270700,7.557270751953125,0.017740124836564064,0.01166633889079094,0.035849276930093765
1761315243592252700,7.567252685546875,0.02002367563545704,0.0042416732758283615,0.033666953444480896
1761315243602233600,7.577233642578125,0.02214967831969261,-0.00506394449621439,0.027784299105405807
1761315243612215800,7.5872158203125,0.019094351679086685,-0.014372505247592926,0.0228546354919672
1761315243622197500,7.597197509765625,0.015230637975037098,-0.018340615555644035,0.018409820273518562
1761315243632178700,7.6071787109375,0.006947821006178856,-0.011481896042823792,0.013789387419819832
1761315243642160600,7.61716064453125,0.000250769779086113,0.010496105998754501,0.0018259352073073387
1761315243652142800,7.627142822265625,-0.0017927336739376187,0.025418870151042938,-0.010004149749875069
1761315243662123800,7.637123779296875,-0.00030136352870613337,0.026374943554401398,-0.025621458888053894
1761315243672105500,7.64710546875,0.0008344020461663604,0.022729571908712387,-0.02364707738161087
1761315243682087700,7.657087646484375,-0.000027929549105465412,0.00944998487830162,-0.01653670333325863
1761315243692068000,7.667068115234375,-0.005323738791048527,-0.01513027772307396,-0.015634823590517044
1761315243702050000,7.677050048828125,-0.008691572584211826,-0.020211324095726013,-0.015621240250766277
1761315243712032000,7.687031982421875,-0.00704546645283699,-0.01477993093430996,-0.011367328464984894
1761315243722013000,7.697012939453125,-0.0075575923547148705,-0.013891767710447311,-0.0030675872694700956
1761315243731995100,7.7069951171875,-0.01306824665516615,-0.016487888991832733,0.011332059279084206
1761315243741976000,7.71697607421875,-0.019645987078547478,-0.01164919137954712,0.020787611603736877
1761315243751958000,7.7269580078125,-0.01579943671822548,0.004969749134033918,0.027331683784723282
1761315243761940000,7.73693994140625,-0.014403939247131348,0.010128825902938843,0.021292168647050858
1761315243771921200,7.746921142578125,-0.01735183782875538,-0.0013574007898569107,0.001224934938363731
1761315243781903000,7.756903076171875,-0.019393950700759888,-0.012263843789696693,-0.03549526259303093
1761315243791885000,7.766885009765625,-0.019658001139760017,-0.018396804109215736,-0.06624823808670044
1761315243801866000,7.776865966796875,-0.021797850728034973,-0.032829537987709045,-0.07521031051874161
1761315243811848200,7.78684814453125,-0.027008237317204475,-0.032424986362457275,-0.06739889830350876
1761315243821830100,7.796830078125,-0.03385069966316223,-0.014641460962593555,-0.043542295694351196
1761315243831811000,7.80681103515625,-0.027237698435783386,0.008033429272472858,-0.017200887203216553
1761315243841793000,7.81679296875,-0.02183760702610016,0.02087998576462269,0.005507620982825756
1761315243851775200,7.826775146484375,-0.013260702602565289,0.023990053683519363,0.024247687309980392
1761315243861756200,7.836756103515625,-0.0035356380976736546,0.016109226271510124,0.031909070909023285
1761315243871738000,7.846738037109375,0.01401932816952467,0.006118918769061565,0.024231651797890663
1761315243881720000,7.856719970703125,0.02471058815717697,-0.006121502257883549,0.013787000440061092
1761315243891701000,7.866700927734375,0.035610005259513855,-0.023830462247133255,0.005448538344353437
1761315243901683200,7.87668310546875,0.03401903435587883,-0.035863157361745834,0.006119122263044119
1761315243911665200,7.8866650390625,0.027481120079755783,-0.042451802641153336,0.00958777591586113
1761315243921646000,7.89664599609375,0.013790872879326344,-0.030008450150489807,-0.00025446899235248566
1761315243931628000,7.9066279296875,0.008859281428158283,-0.015298433601856232,-0.015411246567964554
1761315243941609200,7.916609130859375,0.0043979547917842865,0.0003915796987712383,-0.027032747864723206
1761315243951591000,7.9265908203125,-0.004651295021176338,0.0052153076976537704,-0.03571583703160286
1761315243961573000,7.936572998046875,-0.01115899533033371,0.008028671145439148,-0.032262250781059265
1761315243971554000,7.946553955078125,-0.006730528548359871,-0.00454358384013176,-0.03183598443865776
1761315243981536300,7.956536376953125,-0.0010782356839627028,-0.021008577197790146,-0.01701975241303444
1761315243991518000,7.96651806640625,-0.004665703978389502,-0.03060520999133587,0.005999653600156307
1761315244001499100,7.9764990234375,-0.00330962217412889,-0.03441326320171356,0.017519423738121986
1761315244011481000,7.986481201171875,-0.004211281891912222,-0.02783692441880703,0.0047938283532857895
1761315244021463000,7.996463134765625,-0.003969200421124697,-0.026744496077299118,-0.013905557803809643
1761315244031444000,8.00644384765625,0.0008677642326802015,-0.018521957099437714,-0.027005502954125404
1761315244041426200,8.01642626953125,-0.004515549633651972,-0.005345966666936874,-0.03473399579524994
1761315244051408100,8.026408203125,-0.010829710401594639,-0.00398592883720994,-0.03797541558742523
1761315244061389000,8.03638916015625,-0.011574597097933292,0.007405742537230253,-0.03572211414575577
1761315244071371000,8.04637109375,-0.00608427170664072,0.02733769081532955,-0.024478811770677567
1761315244081353200,8.056353271484374,-0.0002636667340993881,0.024765608832240105,-0.014002468436956406
1761315244091334100,8.066334228515625,0.0012924610637128353,0.013522814959287643,-0.0021907701157033443
1761315244101316000,8.076316162109375,0.004510891158133745,0.011735567823052406,0.017960304394364357
1761315244111298000,8.086298095703125,0.010052250698208809,0.023919785395264626,0.02956887148320675
1761315244121279000,8.096279052734374,0.018270500004291534,0.02719440869987011,0.0327172614634037
1761315244131261200,8.10626123046875,0.02566692978143692,0.020095454528927803,0.030378228053450584
1761315244141243000,8.116242919921875,0.02403494343161583,0.010816201567649841,0.025937139987945557
1761315244151224000,8.12622412109375,0.020640626549720764,-0.006612309254705906,0.025304526090621948
1761315244161206000,8.1362060546875,0.02091652899980545,-0.020831191912293434,0.023071199655532837
1761315244171188200,8.146188232421874,0.019199470058083534,-0.022809110581874847,0.020078755915164948
1761315244181169200,8.156169189453125,0.017873749136924744,-0.013421733863651752,0.020004453137516975
1761315244191151000,8.166151123046875,0.015615352429449558,-0.005606660153716803,0.021138938143849373
1761315244201133000,8.176133056640625,0.0157807357609272,0.010120903141796589,0.02273470349609852
1761315244211114200,8.1861142578125,0.016082463786005974,0.021237434819340706,0.022787943482398987
1761315244221096000,8.196095947265626,0.019152022898197174,0.015564102679491043,0.02551954612135887
1761315244231077000,8.2060771484375,0.020090177655220032,0.008893171325325966,0.03004338964819908
1761315244241059000,8.21605908203125,0.02098766155540943,0.011522775515913963,0.03016216680407524
1761315244251041300,8.226041259765625,0.020695900544524193,0.01761128380894661,0.03518766909837723
1761315244261022200,8.236022216796876,0.017807437106966972,0.012814929708838463,0.03207097202539444
1761315244271004200,8.246004150390625,0.02084747888147831,-0.0014151912182569504,0.037948861718177795
1761315244280986000,8.255986083984375,0.016368042677640915,-0.014189842157065868,0.04465017095208168
1761315244290967000,8.265967041015625,0.011510125361382961,-0.012484034523367882,0.03951770067214966
1761315244300949000,8.275948974609374,0.01234529260545969,0.006746385246515274,0.03424650430679321
1761315244310931000,8.285930908203126,0.019014466553926468,0.02288649044930935,0.032515279948711395
1761315244320912100,8.295912109375,0.018864264711737633,0.029309501871466637,0.019695086404681206
1761315244330894000,8.30589404296875,0.013314981944859028,0.027295302599668503,0.012377445586025715
1761315244340876000,8.3158759765625,0.015537654981017113,0.020764166489243507,0.008569924160838127
1761315244350857000,8.32585693359375,0.013778017833828926,0.0076154121197760105,0.007323510944843292
1761315244360839200,8.335839111328125,0.011119384318590164,0.0024954848922789097,0.018638748675584793
1761315244370821000,8.345821044921875,0.01249068882316351,0.004453358706086874,0.035989779978990555
1761315244380802000,8.355802001953125,0.010184390470385551,0.004857093561440706,0.0443933866918087
1761315244390784000,8.365783935546874,0.009877298027276993,0.0066989716142416,0.04228201508522034
1761315244400766200,8.37576611328125,0.013667242601513863,0.019108237698674202,0.032580386847257614
1761315244410747100,8.3857470703125,0.018045345321297646,0.019356146454811096,0.020255399867892265
1761315244420729000,8.39572900390625,0.01515874732285738,0.014211451634764671,0.007320426404476166
1761315244430711000,8.4057109375,0.008682634681463242,0.001534001436084509,-0.008041057735681534
1761315244440692200,8.415692138671876,-0.0021263377275317907,-0.010105876252055168,-0.022911615669727325
1761315244450674200,8.425674072265625,-0.003672865452244878,-0.017278000712394714,-0.03413446247577667
1761315244460656000,8.43565625,-0.007594902999699116,-0.020730257034301758,-0.030895525589585304
1761315244470637000,8.445636962890624,-0.0061916084960103035,-0.007548964116722345,-0.01969713345170021
1761315244480619300,8.455619384765624,-0.0035617370158433914,0.0015984615311026573,-0.000785760348662734
1761315244490601000,8.46560107421875,0.0004103793762624264,0.015038944780826569,0.01737223193049431
1761315244500582000,8.475581787109375,0.0016908273100852966,0.02690359391272068,0.0362391322851181
1761315244510564000,8.485564208984375,0.003774117212742567,0.03491804748773575,0.04524315521121025
1761315244520545000,8.495544921875,0.009261026978492737,0.04441114887595177,0.04981739819049835
1761315244530527200,8.50552734375,0.014947261661291122,0.043500930070877075,0.04085998982191086
1761315244540509000,8.515509033203125,0.024242758750915527,0.03594820573925972,0.034405820071697235
1761315244550490000,8.525489990234375,0.034445058554410934,0.023364169523119926,0.034947220236063004
1761315244560472000,8.53547216796875,0.04356958344578743,0.0031454511918127537,0.040064483880996704
1761315244570454000,8.5454541015625,0.04624410346150398,-0.026804890483617783,0.04810477793216705
1761315244580435000,8.55543505859375,0.036509450525045395,-0.04963617026805878,0.04891570657491684
1761315244590417200,8.565417236328125,0.023337077349424362,-0.05683553218841553,0.0315171480178833
1761315244600399000,8.575399169921875,0.006001762580126524,-0.05421125143766403,0.0026420895010232925
1761315244610380300,8.58538037109375,-0.008769074454903603,-0.03424901142716408,-0.0271172896027565
1761315244620362000,8.595362060546876,-0.015556673519313335,-0.012361554428935051,-0.04095267876982689
1761315244630344200,8.60534423828125,-0.018712740391492844,0.0035207485780119896,-0.04278834909200668
1761315244640325000,8.6153251953125,-0.01231742650270462,0.017672255635261536,-0.03195034712553024
1761315244650307000,8.62530712890625,-0.004968625959008932,0.011455612257122993,-0.0070451973006129265
1761315244660289000,8.6352890625,-0.0004305995535105467,-0.013808466494083405,0.014634798280894756
1761315244670270000,8.64527001953125,0.0004916100297123194,-0.042134031653404236,0.02471964992582798
1761315244680252200,8.655252197265625,0.0019888393580913544,-0.0479530394077301,0.02544695883989334
1761315244690234000,8.665234130859375,0.0009155209409072995,-0.040075432509183884,0.016069356352090836
1761315244700215000,8.675215087890624,0.004272168967872858,-0.0178537517786026,0.00865911040455103
1761315244710197200,8.685197265625,0.001460154657252133,-0.0011379686184227467,0.00043179700151085854
1761315244720179200,8.69517919921875,-0.0020304506178945303,0.014212492853403091,-0.009011505171656609
1761315244730160000,8.70516015625,-0.004195022396743298,0.01945573464035988,-0.014936724677681923
1761315244740142000,8.71514208984375,-0.0014618203276768327,0.01203696709126234,-0.012257052585482597
1761315244750124300,8.725124267578124,-0.0054372865706682205,-0.002481988864019513,-0.0077870795503258705
1761315244760105200,8.735105224609375,0.001721023814752698,-0.02075367048382759,-0.00853382982313633
1761315244770087200,8.745087158203125,0.007513226009905338,-0.04186059162020683,-0.0027882480062544346
1761315244780068000,8.755068115234375,0.009367584250867367,-0.04274635761976242,0.00008530286140739918
1761315244790050300,8.76505029296875,0.009835980832576752,-0.03362352401018143,-0.00631354795768857
1761315244800032300,8.7750322265625,0.010663159191608429,-0.026109416037797928,-0.000990421511232853
1761315244810013200,8.78501318359375,0.006251658778637648,-0.017390338703989983,0.0019188919104635715
1761315244819995100,8.7949951171875,0.004889185540378094,-0.010410726070404053,0.008019128814339638
1761315244829977300,8.804977294921875,0.0019164395052939653,0.0015543033368885517,0.009968956932425499
1761315244839958300,8.814958251953126,-0.0006910613738000393,0.013030663132667542,0.0035038674250245094
1761315244849940200,8.824940185546875,0.006243887357413769,0.01730768010020256,-0.011154103092849255
1761315244859922200,8.834922119140625,0.009354193694889545,0.010287853889167309,-0.026301896199584007
1761315244869903400,8.8449033203125,0.013005565851926804,0.00249888701364398,-0.02933613210916519
1761315244879885300,8.85488525390625,0.011169049888849258,-0.0004183398559689522,-0.02522767335176468
1761315244889867300,8.8648671875,0.0036458419635891914,-0.014463063329458237,-0.017132241278886795
1761315244899848200,8.87484814453125,0.0025864364579319954,-0.02109513431787491,-0.008793885819613934
1761315244909830100,8.884830078125,0.008605827577412128,-0.006300428882241249,-0.00026018708012998104
1761315244919812000,8.89481201171875,0.0158003568649292,0.007779969368129969,0.007063506171107292
1761315244929793000,8.90479296875,0.030780620872974396,0.027824530377984047,0.008935697376728058
1761315244939775200,8.914775146484375,0.03668777644634247,0.04103061556816101,0.0102720707654953
1761315244949757200,8.924757080078125,0.041411180049180984,0.03868035972118378,0.009999108500778675
1761315244959738400,8.93473828125,0.046162523329257965,0.025480668991804123,0.01445138081908226
1761315244969720000,8.944719970703124,0.045673202723264694,0.015700943768024445,0.007844488136470318
1761315244979702300,8.954702392578126,0.03975166380405426,0.0028405403718352318,0.0024933984968811274
1761315244989683200,8.96468310546875,0.03811309486627579,-0.0034324952866882086,-0.0004037679173052311
1761315244999665200,8.9746650390625,0.03332579880952835,-0.004778456874191761,-0.0005164195317775011
1761315245009647000,8.984647216796875,0.02164693921804428,0.01092437468469143,0.0019373379182070494
1761315245019628300,8.994628173828126,0.022112194448709488,0.01946433261036873,-0.0017838971689343452
1761315245029610200,9.0046103515625,0.014941668137907982,0.023764777928590775,-0.010013309307396412
1761315245039592200,9.01459228515625,0.009327990934252739,0.019187869504094124,-0.01791011355817318
1761315245049573000,9.024572998046875,0.010025858879089355,0.019936736673116684,-0.01411313097923994
1761315245059555300,9.034555419921874,0.0043197693303227425,0.009513922967016697,-0.015470012091100216
1761315245069536300,9.044536376953126,0.0016975452890619636,-0.008120974525809288,-0.014626389369368553
1761315245079518200,9.054518310546875,-0.006750534288585186,-0.017438575625419617,-0.013687359169125557
1761315245089500200,9.064500244140625,-0.009150069206953049,-0.025860847905278206,-0.013973154127597809
1761315245099481000,9.074481201171874,-0.008794271387159824,-0.026801742613315582,-0.01988324150443077
1761315245109463300,9.08446337890625,-0.007959133945405483,-0.02326829358935356,-0.02039700374007225
1761315245119445200,9.0944453125,-0.010058503597974777,-0.006004350259900093,-0.02004386857151985
1761315245129426200,9.10442626953125,-0.012123488821089268,0.008425485342741013,-0.01541951671242714
1761315245139408100,9.114408203125,-0.00852182973176241,0.017303932458162308,-0.009907571598887444
1761315245149390300,9.124390380859374,-0.0022664405405521393,0.017700929194688797,-0.008083968423306942
1761315245159371300,9.134371337890625,0.0012092508841305971,0.011065398342907429,-0.005743316374719143
1761315245169353200,9.144353271484375,0.004815487191081047,0.008053981699049473,0.00567745603621006
1761315245179335200,9.154335205078125,0.0037931001279503107,-0.0019680261611938477,0.026031196117401123
1761315245189316400,9.16431640625,0.005127995274960995,-0.006004860159009695,0.038242705166339874
1761315245199298000,9.174298095703126,0.008267329074442387,-0.005017626099288464,0.035957444459199905
1761315245209280300,9.1842802734375,0.014967457391321659,0.0004855440929532051,0.022073205560445786
1761315245219261200,9.19426123046875,0.019263137131929398,0.0034427177160978317,0.004166378173977137
1761315245229243400,9.204243408203125,0.011871026828885078,-0.00507937278598547,-0.012560633942484856
1761315245239225000,9.21422509765625,0.006334581412374973,-0.013980455696582794,-0.02064199559390545
1761315245249206300,9.224206298828125,-0.006007303483784199,-0.013054803013801575,-0.017602283507585526
1761315245259188200,9.234188232421875,-0.012461740523576736,0.0019497126340866089,-0.009254604578018188
1761315245269170200,9.244170166015625,-0.016670560464262962,0.010354451835155487,0.0029304889030754566
1761315245279151000,9.254151123046874,-0.014810875058174133,0.008042562752962112,0.01340177096426487
1761315245289133300,9.26413330078125,-0.017299557104706764,-0.0013187075965106487,0.014941924251616001
1761315245299115300,9.274115234375,-0.013760215602815151,-0.011897049844264984,0.0031254782807081938
1761315245309096200,9.28409619140625,-0.015163417905569077,-0.012528497725725174,-0.009869671426713467
1761315245319078100,9.294078125,-0.017211388796567917,-0.004986691754311323,-0.018926283344626427
1761315245329060400,9.304060302734374,-0.025856567546725273,0.011040452867746353,-0.023946110159158707
1761315245339041300,9.314041259765625,-0.03403087332844734,0.024004189297556877,-0.02475198358297348
1761315245349023000,9.32402294921875,-0.034688908606767654,0.03204050660133362,-0.017282065004110336
1761315245359004200,9.334004150390625,-0.03209046646952629,0.026316575706005096,-0.013692657463252544
1761315245368986000,9.343986083984374,-0.023293927311897278,0.00840633362531662,-0.007736098021268845
1761315245378968300,9.35396826171875,-0.02078975737094879,-0.0050652665086090565,-0.014884820207953453
1761315245388949200,9.36394921875,-0.006470426917076111,-0.002898039296269417,-0.01966330222785473
1761315245398931200,9.37393115234375,-0.004202213138341904,0.004750559106469154,-0.021337898448109627
1761315245408913200,9.3839130859375,-0.0076046534813940525,0.008916055783629417,-0.015433108434081078
1761315245418894300,9.393894287109376,-0.013136038556694984,0.018771350383758545,-0.008066804148256779
1761315245428876300,9.403876220703125,-0.014120860025286674,0.02441164292395115,0.00007502129301428795
1761315245438858200,9.413858154296875,-0.01273841317743063,0.017968125641345978,0.005875386297702789
1761315245448839200,9.423839111328125,-0.011602885089814663,0.010703543201088905,-0.0005644517950713634
1761315245458821400,9.4338212890625,0.0014492670306935906,0.007668604142963886,-0.014135654084384441
1761315245468803000,9.443802978515626,0.013049079105257988,-0.0007957061752676964,-0.021560925990343094
1761315245478784300,9.4537841796875,0.026579268276691437,0.0021505486220121384,-0.021867722272872925
1761315245488766200,9.46376611328125,0.026163680478930473,0.020269863307476044,-0.017942901700735092
1761315245498748400,9.47374853515625,0.021237898617982864,0.020954828709363937,-0.013577714562416077
1761315245508729300,9.483729248046876,0.02075163647532463,0.013051129877567291,-0.009438589215278625
1761315245518711000,9.4937109375,0.011351210065186024,0.0010685031302273273,-0.004998034331947565
1761315245528693200,9.503693359375,0.001852704561315477,-0.009981261566281319,-0.00920058973133564
1761315245538674200,9.513674072265625,-0.00012708932626992464,-0.02333648130297661,-0.018240423873066902
1761315245548656000,9.52365625,-0.004805393982678652,-0.022661400958895683,-0.027407757937908173
1761315245558638000,9.53363818359375,-0.004193133674561977,-0.009272092953324318,-0.03534051775932312
1761315245568619300,9.543619384765625,-0.005350243300199509,0.0017779306508600712,-0.04177307337522507
1761315245578601200,9.553601318359375,-0.008742843754589558,0.010227873921394348,-0.045731063932180405
1761315245588583200,9.563583251953125,-0.008680442348122597,0.009830345399677753,-0.043581511825323105
1761315245598564000,9.573564208984376,-0.011693541891872883,-0.0008654422126710415,-0.035634640604257584
1761315245608546300,9.58354638671875,-0.00933921430259943,-0.01618371345102787,-0.024940375238656998
1761315245618528000,9.593528076171875,-0.0056701768189668655,-0.015512863174080849,-0.010626948438584805
1761315245628509200,9.60350927734375,-0.003815166186541319,-0.012609765864908695,-0.005419022403657436
1761315245638491100,9.6134912109375,-0.003305969759821892,-0.0023800316266715527,-0.002913255011662841
1761315245648473300,9.623473388671876,-0.005784709006547928,0.006624679081141949,-0.0036659883335232735
1761315245658454300,9.633454345703125,-0.007918699644505978,0.009872670285403728,-0.013590523973107338
1761315245668436200,9.643436279296875,-0.019670430570840836,0.014250906184315681,-0.025126805528998375
1761315245678418200,9.653418212890625,-0.021478716284036636,0.027918517589569092,-0.026867181062698364
1761315245688399400,9.6633994140625,-0.028213156387209892,0.035558588802814484,-0.03136695921421051
1761315245698381000,9.673381103515625,-0.03656802326440811,0.034491993486881256,-0.03660939633846283
1761315245708362000,9.683362060546875,-0.0456535778939724,0.028080716729164124,-0.053791750222444534
1761315245718344000,9.693343994140625,-0.05399832874536514,0.030936159193515778,-0.0830998420715332
1761315245728326100,9.703326171875,-0.057759493589401245,0.04542713612318039,-0.10316623747348785
1761315245738307000,9.71330712890625,-0.05911823734641075,0.05378732830286026,-0.10604245215654373
1761315245748289000,9.7232890625,-0.05656968057155609,0.07928208261728287,-0.09884080290794373
1761315245758271000,9.73327099609375,-0.05202286317944527,0.13141745328903198,-0.042087774723768234
1761315245768252200,9.743252197265624,-0.06368779391050339,0.07965727150440216,0.08687417209148407
1761315245778234000,9.753234130859376,-0.01850140653550625,-0.1030784547328949,0.09544236212968826
1761315245788216000,9.763216064453125,0.05220974609255791,-0.07961324602365494,0.11265143752098083
1761315245798197000,9.773197021484375,0.08760982006788254,-0.08346177637577057,0.0961102768778801
1761315245808179200,9.78317919921875,0.08308510482311249,-0.09917262196540833,0.05540384724736214
1761315245818161000,9.793160888671874,0.061848800629377365,-0.04198496416211128,-0.0072733815759420395
1761315245828141800,9.803141845703125,0.04415367171168327,0.0361609160900116,-0.0804019495844841
1761315245838124000,9.8131240234375,0.016407262533903122,0.09278237819671631,-0.14311860501766205
1761315245848106200,9.823106201171875,-0.008334669284522533,0.12826932966709137,-0.16854281723499298
1761315245858087200,9.833087158203124,-0.023852908983826637,0.1357128769159317,-0.1482846736907959
1761315245868068900,9.84306884765625,-0.022934429347515106,0.097139373421669,-0.09724577516317368
