time,seconds_elapsed,z,y,x
1761316474405140500,0.076140380859375,0.000184185104444623,0.00228692265227437,-0.0008778912015259266
1761316474415123500,0.08612353515625,0.00041428219992667437,0.0014293850399553776,-0.0016962806694209576
1761316474425105700,0.096105712890625,-0.0008583255694247782,0.003101024776697159,-0.000396674033254385
1761316474435088400,0.10608837890625,-0.00004499615170061588,-0.0011840015649795532,0.0010933646699413657
1761316474445070600,0.116070556640625,0.00181585771497339,-0.0006338190287351608,-0.001402832567691803
1761316474455053600,0.126053466796875,0.0010981356026604772,0.00015021581202745438,-0.0006052157841622829
1761316474465036300,0.136036376953125,-0.0006247961428016424,-0.0010948446579277515,-0.0012321074027568102
1761316474475018500,0.1460185546875,0.001146205933764577,-0.001277803909033537,-0.0004994717892259359
1761316474485001500,0.15600146484375,0.0010175376664847136,0.0003976235166192055,-0.0005178642459213734
1761316474494983400,0.1659833984375,0.0017866585403680801,-0.0006402102299034595,-0.00025287969037890434
1761316474504966400,0.17596630859375,0.00022563571110367775,-0.0022313811350613832,0.0017399287316948175
1761316474514949600,0.18594970703125,-0.0013581461971625686,-0.00032562296837568283,-0.0014196455013006926
1761316474524931300,0.195931396484375,0.001540426630526781,-0.0008631055243313313,0.0016311239451169968
1761316474534914600,0.20591455078125,0.0006911444943398237,0.0015739533118903637,0.001928865211084485
1761316474544896300,0.215896240234375,-0.003499391721561551,-0.00003614136949181557,0.000958707183599472
1761316474554879500,0.22587939453125,-0.0014365072129294276,0.0031399442814290524,0.00014324719086289406
1761316474564861400,0.235861328125,0.00047632958739995956,-0.00006432877853512764,0.00039726041723042727
1761316474574844400,0.245844482421875,0.002199128270149231,-0.0006686002016067505,0.0020572086796164513
1761316474584827400,0.255827392578125,-0.0007884541992098093,-0.0008585592731833458,-0.001082854112610221
1761316474594809600,0.2658095703125,0.0019391552777960896,0.0006799488328397274,0.0011968117905780673
1761316474604792300,0.275792236328125,0.001564976293593645,-0.00040773022919893265,-0.0019079679623246193
1761316474614774500,0.2857744140625,-0.00024384271819144487,0.0012908335775136948,-0.0009670730214565992
1761316474624757500,0.295757568359375,0.0008138786070048809,0.0016445084474980831,0.001035857480019331
1761316474634740500,0.305740478515625,0.0006775246001780033,-0.00042822957038879395,0.00018843961879611015
1761316474644722400,0.315722412109375,-0.0014132884098216891,0.00022882036864757538,0.0025540415663272142
1761316474654705400,0.325705322265625,-0.0005805179825983942,0.0010320297442376614,0.0000711765605956316
1761316474664687400,0.335687255859375,0.00007511675357818604,0.00009541492909193039,-0.00037485361099243164
1761316474674670300,0.34567041015625,-0.001870588748715818,0.002270151861011982,0.0008366183610633016
1761316474684653600,0.355653564453125,0.0021185255609452724,0.0021989825181663036,0.0019979076460003853
1761316474694635300,0.36563525390625,-0.00013876997400075197,-0.0005677752196788788,0.000616525998339057
1761316474704618500,0.375618408203125,0.00022193463519215584,0.00039656972512602806,-0.0015361735131591558
1761316474714600400,0.385600341796875,-0.0018361562397331,0.001250911969691515,-0.001686109695583582
1761316474724583400,0.39558349609375,-0.00016603688709437847,-0.002853832673281431,0.00035154144279658794
1761316474734566400,0.40556640625,-0.00016071053687483072,0.001329460646957159,0.00027830456383526325
1761316474744548600,0.415548583984375,-0.00013533607125282288,-0.00022598635405302048,-0.0013674665242433548
1761316474754531300,0.42553125,-0.0005241576582193375,-0.0014893901534378529,-0.002718754578381777
1761316474764513500,0.435513427734375,0.0008874526247382164,-0.0018804105930030346,0.0011548502370715141
1761316474774496500,0.44549658203125,0.000835520913824439,0.000915109645575285,0.00012074480764567852
1761316474784479500,0.4554794921875,0.0007309706415981054,-0.00012625288218259811,-0.0008355628233402967
1761316474794461400,0.46546142578125,-0.00035693065728992224,0.00021170219406485558,0.0004227808676660061
1761316474804444700,0.475444580078125,-0.00004631897900253534,-0.000401113647967577,-0.0014346749521791935
1761316474814426400,0.48542626953125,0.0007214703364297748,0.0005664126947522163,-0.0017023226246237755
1761316474824409600,0.49540966796875,1.8719583749771118e-7,-0.0002836422063410282,-0.000060200225561857224
1761316474834392600,0.505392578125,-0.0011721362825483084,0.00024233246222138405,-0.00026446464471518993
1761316474844374500,0.51537451171875,-0.00034692324697971344,-0.001241206657141447,-0.0004408513195812702
1761316474854357500,0.525357421875,-0.0024649351835250854,-0.000015886500477790833,0.0013309495989233255
1761316474864339500,0.53533935546875,-0.000977068324573338,-0.0013041063211858273,-0.0017444787081331015
1761316474874322400,0.545322509765625,-0.00024390011094510555,-0.0007861214689910412,0.0003458363935351372
1761316474884304600,0.5553046875,-0.0006540382164530456,0.000713445246219635,0.0007010659901425242
1761316474894288000,0.565287841796875,-0.0008415247430093586,0.0006910748779773712,-0.0045624058693647385
1761316474904270800,0.575270751953125,-0.0019733335357159376,0.0006525875069200993,-0.0012940766755491495
1761316474914252800,0.585252685546875,-0.00035892531741410494,-0.0028651822358369827,-0.002345758955925703
1761316474924235800,0.59523583984375,-0.0008353483281098306,0.0008968431502580643,0.00174760352820158
1761316474934218000,0.605218017578125,0.0004059510538354516,0.0016145650297403336,-0.0013491201680153608
1761316474944200700,0.61520068359375,0.0006722229300066829,0.002244866918772459,-0.00039290776476264
1761316474954184000,0.625183837890625,0.0020386907272040844,0.0013913237489759922,0.000672356691211462
1761316474964166000,0.635165771484375,-0.001715919584967196,-0.0013521071523427963,-0.000038425205275416374
1761316474974148900,0.64514892578125,-0.0018197828903794289,-0.00013850489631295204,-0.002485603792592883
1761316474984130800,0.655130859375,0.0025122547522187233,-0.0005223038606345654,0.0011290810070931911
1761316474994114000,0.665114013671875,0.0011074376525357366,-0.00026983628049492836,-0.0007127611897885799
1761316475004096800,0.6750966796875,-0.002039399230852723,0.0005478709936141968,0.0003757225349545479
1761316475014079000,0.685078857421875,-0.0008226009667851031,-0.00032591214403510094,-0.0024469620548188686
1761316475024062000,0.69506201171875,-0.0005010399618186057,-0.000315000768750906,0.0007799557643011212
1761316475034044000,0.7050439453125,0.0001895177410915494,-0.0010020965710282326,0.001356796477921307
1761316475044027000,0.71502685546875,0.004925041925162077,-0.0007893899455666542,0.00012380187399685383
1761316475054009900,0.725009765625,-0.0009078132570721209,-0.00045170076191425323,0.0003256695345044136
1761316475063991800,0.73499169921875,-0.00031248852610588074,-0.001796758733689785,0.0016508020926266909
1761316475073974800,0.744974853515625,0.0005703492788597941,-0.002001822227612138,-0.0010483115911483765
1761316475083957000,0.75495703125,-0.00031985226087272167,-0.0017862692475318909,-0.00033540185540914536
1761316475093939700,0.764939697265625,-0.002462365198880434,-0.0008357870392501354,-0.0015846907626837492
1761316475103922000,0.774921875,0.00043790286872535944,-0.00030432315543293953,-0.0005798561032861471
1761316475113905000,0.78490478515625,0.0015295324847102165,-0.0005365507677197456,-0.00021340511739253998
1761316475123887900,0.794887939453125,0.0017796771135181189,-0.0005767736583948135,0.00008169002830982208
1761316475133869800,0.804869873046875,0.0034739801194518805,0.0008546751923859119,0.0012193925213068724
1761316475143853000,0.81485302734375,0.0003565609222277999,0.0012919488362967968,0.00014324113726615906
1761316475153834800,0.824834716796875,-0.002147875726222992,0.00038620783016085625,-0.0003004414029419422
1761316475163818000,0.83481787109375,0.00012058776337653399,0.0012291776947677135,0.001036136643961072
1761316475173801000,0.844801025390625,-0.00004958815407007933,0.0006518042646348476,-0.002099202945828438
1761316475183783000,0.854782958984375,-0.0007892491412349045,0.0015479130670428276,-0.0032697555143386126
1761316475193766000,0.864765869140625,0.002315730322152376,0.000656819436699152,-0.0005235036369413137
1761316475203747800,0.874747802734375,0.0010532081359997392,0.000157997477799654,-0.0009804817382246256
1761316475213730800,0.884730712890625,-0.0017830583965405822,0.000730311032384634,0.0024086569901555777
1761316475223713800,0.8947138671875,0.0002749849809333682,0.0006002234295010567,0.0027893066871911287
1761316475233695700,0.90469580078125,-0.0015817709499970078,-0.0004187021404504776,0.0029070184100419283
1761316475243678700,0.9146787109375,0.0009406919125467539,0.00002477318048477173,0.0012626487296074629
1761316475253661000,0.924660888671875,0.0021585554350167513,0.0016905800439417362,0.003321538446471095
1761316475263643600,0.9346435546875,-0.0012127989903092384,-0.00016076257452368736,0.0005837164353579283
1761316475273627000,0.944626953125,-0.0007912205765023828,0.00020275870338082314,-0.002809683559462428
1761316475283608800,0.95460888671875,-0.00030352675821632147,0.00011452147737145424,0.0007472552824765444
1761316475293591800,0.964591796875,-0.0011123288422822952,0.0010908362455666065,-0.00048525561578571796
1761316475303573800,0.97457373046875,0.0012141142506152391,-0.000824750866740942,-0.0008279862813651562
1761316475313557000,0.984556884765625,-0.0009976410074159503,-0.000001567881554365158,0.0011645908234640956
1761316475323539700,0.994539794921875,0.002550706500187516,-0.0003185798414051533,-0.0019853117410093546
1761316475333522000,1.00452197265625,-0.0013257907703518867,-0.00036811456084251404,-0.001332571031525731
1761316475343505000,1.0145048828125,-0.0008783692610450089,-0.0029400247149169445,-0.0008286042138934135
1761316475353486800,1.02448681640625,-0.0012331022880971432,-0.00070217065513134,0.0014270932879298925
1761316475363469800,1.0344697265625,0.002679146360605955,-0.00017205718904733658,-0.0003817770630121231
1761316475373452000,1.0444521484375,0.001496169832535088,0.0032554310746490955,-0.00020228000357747078
1761316475383434800,1.054434814453125,-0.004755544941872358,-0.002819232875481248,-0.0022097306791692972
1761316475393417700,1.064417724609375,0.0018163378117606044,-0.0006447620689868927,-0.0021889579948037863
1761316475403400000,1.07439990234375,0.002227416727691889,-0.0013416288420557976,-0.0011418634094297886
1761316475413382700,1.084382568359375,0.0010851869592443109,0.0008102050051093102,-0.00025050342082977295
1761316475423364900,1.09436474609375,0.0026287194341421127,-0.00005077477544546127,-0.002185855293646455
1761316475433347800,1.104347900390625,-0.0004389759851619601,0.0008408511057496071,0.0016224649734795094
1761316475443330800,1.114330810546875,0.002863371279090643,0.00340412650257349,0.000012660166248679161
1761316475453312800,1.124312744140625,-0.0026355236768722534,0.00028529856353998184,-0.00022409483790397644
1761316475463296000,1.1342958984375,0.0009403986623510718,-0.002930369693785906,0.0025206790305674076
1761316475473277700,1.144277587890625,0.0018466723849996924,0.0007573096081614494,0.0005214440170675516
1761316475483261000,1.154260986328125,-0.00035670201759785414,-0.0008277334272861481,-0.0005492167547345161
1761316475493244000,1.164243896484375,0.001127743860706687,0.0020143920555710793,0.0028263397980481386
1761316475503225900,1.174225830078125,-0.0014402997912839055,0.0018853810615837574,-0.0010809588711708784
1761316475513208800,1.184208740234375,0.0004393593408167362,0.002881137654185295,0.0010040299966931343
1761316475523190800,1.194190673828125,0.0008258526213467121,0.0015897969715297222,0.0023281595204025507
1761316475533173800,1.204173828125,0.00041039951611310244,0.001676083542406559,-0.000005035893991589546
1761316475543156000,1.214156005859375,0.0019133652094751596,0.0021907640621066093,0.001315781380981207
1761316475553138700,1.224138671875,0.0005218635778874159,0.0028533590957522392,-0.00035348813980817795
1761316475563122000,1.234121826171875,0.00006004620809108019,0.0010968022979795933,0.00029992545023560524
1761316475573103900,1.244103759765625,0.0001444683875888586,-0.000676330178976059,-0.00304100988432765
1761316475583086800,1.2540869140625,-0.0006112186820246279,0.0005967426113784313,-0.0008839471265673637
1761316475593068800,1.26406884765625,0.00023060652893036604,-0.0004903599619865417,-0.00199741474352777
1761316475603051800,1.2740517578125,-0.0008734388393349946,0.0008092792704701424,-0.000019543105736374855
1761316475613035000,1.284034912109375,0.001094370847567916,0.00008196989074349403,-0.0021902858279645443
1761316475623017000,1.294016845703125,-0.0012848835904151201,-0.004025707952678204,0.00026210141368210316
1761316475633000000,1.304,-0.0010566507698968053,0.00038981297984719276,-0.0012923858594149351
1761316475642982000,1.31398193359375,0.0004635180812329054,-0.0003702067770063877,-0.0009719568770378828
1761316475652964900,1.32396484375,-0.00018496159464120865,-0.00004610000178217888,-0.0012603772338479757
1761316475662947800,1.33394775390625,0.00009167485404759645,-0.000024636276066303253,-0.0008133379742503166
1761316475672929800,1.3439296875,-0.0016375156119465828,-0.00044594844803214073,-0.0010881763882935047
1761316475682912800,1.353912841796875,0.0010235803201794624,-0.0006530703976750374,-0.0008299949113279581
1761316475692895000,1.36389501953125,-0.002624950371682644,0.0009304452687501907,-0.0019679637625813484
1761316475702877700,1.373877685546875,-0.000476412707939744,-0.000440194271504879,0.00028333161026239395
1761316475712861000,1.38386083984375,-0.0001746765337884426,-0.00037547945976257324,0.0003496443387120962
1761316475722843000,1.3938427734375,0.0007419621106237173,0.0014699609018862247,-0.001033301930874586
1761316475732825900,1.403825927734375,-0.0004809613456018269,-0.0007407292723655701,0.00008442695252597332
1761316475742807800,1.413807861328125,-0.001425013062544167,-0.0009306273423135281,-0.0003723336849361658
1761316475752791000,1.423791015625,-0.0009078271687030792,0.002843338530510664,0.0013195725623518229
1761316475762772700,1.433772705078125,-0.001878043869510293,-0.0013847113586962223,0.0013986420817673206
1761316475772756000,1.443755859375,0.0009164109360426664,0.0011170622892677784,-0.0009055249392986298
1761316475782739000,1.453739013671875,0.0009032305097207427,0.002780452836304903,0.0008139213314279914
1761316475792721000,1.463720947265625,-0.0020038760267198086,0.00022488366812467575,-0.0011195335537195206
1761316475802704000,1.473703857421875,0.001069696620106697,0.0017535360530018806,0.0009878154378384352
1761316475812685800,1.483685791015625,0.0007389320526272058,0.0020874962210655212,0.0013257706305012107
1761316475822668800,1.493668701171875,0.0006861111614853144,0.00011175265535712242,0.0023878226056694984
1761316475832651800,1.50365185546875,-0.0015975494170561433,0.0008715526200830936,-0.00039944169111549854
1761316475842634000,1.513634033203125,-0.00024261930957436562,0.0003228839486837387,0.0018840343691408634
1761316475852616700,1.52361669921875,-0.0003062688047066331,-0.0017543816938996315,-0.0027818239759653807
1761316475862599000,1.533598876953125,-0.002616090467199683,-0.000022750813513994217,-0.0010343831963837147
1761316475872582000,1.543581787109375,-0.0016983652021735907,-0.0010520624928176403,-0.0032922110985964537
1761316475882563800,1.553563720703125,0.0010147722205147147,-0.0006713797338306904,0.0006749278400093317
1761316475892546600,1.563546630859375,-0.0016465247608721256,-0.000010649673640727997,-0.0009328224696218967
1761316475902529800,1.57352978515625,-0.00008195522241294384,-0.00029603391885757446,0.0016214509960263968
1761316475912511700,1.58351171875,-0.00034214614424854517,-0.001012158114463091,-0.0016912550199776888
1761316475922494700,1.59349462890625,0.000674822018481791,0.000302034430205822,0.0009694475447759032
1761316475932476700,1.6034765625,0.0006303471745923162,-0.0013786866329610348,0.00013800873421132565
1761316475942460000,1.6134599609375,-0.001344270771369338,0.00022616423666477203,0.0009516839636489749
1761316475952442600,1.623442626953125,-0.0009229587158188224,0.00021604401990771294,-0.0007961485534906387
1761316475962424800,1.6334248046875,0.0005392755847424269,0.0007600127719342709,-0.00011793780140578747
1761316475972407800,1.64340771484375,-0.001022934797219932,-0.0008136490359902382,0.0009459950961172581
1761316475982389800,1.6533896484375,-0.0015169298276305199,0.0005116849206387997,-0.0012873788364231586
1761316475992372700,1.663372802734375,0.0008836436318233609,-0.003235382493585348,0.0009102616459131241
1761316476002355700,1.673355712890625,-0.0006106034270487726,0.00043205544352531433,-0.0030603327322751284
1761316476012337700,1.683337646484375,0.00030685553792864084,-0.0013858182355761528,-0.00210692104883492
1761316476022320600,1.693320556640625,-0.00001537310890853405,-0.0019412441179156303,0.0016510344576090574
1761316476032302600,1.703302490234375,0.0014051569160073996,0.001210607122629881,0.0003314381465315819
1761316476042285600,1.71328564453125,0.0015434621600434184,0.0016303528100252151,0.00014396477490663528
1761316476052267800,1.723267822265625,0.00021028367336839437,-0.0003782035782933235,0.0011767386458814144
1761316476062250500,1.73325048828125,0.0029480394441634417,0.0013699582777917385,-0.0011717474553734064
1761316476072233700,1.743233642578125,0.0012271045707166195,-0.0010931994765996933,-0.00041940435767173767
1761316476082215700,1.753215576171875,0.001392982667312026,-0.0010181949473917484,0.0018556442810222507
1761316476092198700,1.76319873046875,-0.0014464796986430883,0.0014444300904870033,-0.0012682436499744654
1761316476102180600,1.7731806640625,0.0032492964528501034,0.00014874199405312538,0.00042921025305986404
1761316476112163800,1.783163818359375,0.001831962144933641,0.00035513704642653465,-0.002823841292411089
1761316476122146600,1.793146484375,0.0018268728163093328,-0.0010714470408856869,0.0016101994551718235
1761316476132128800,1.803128662109375,-0.0008325597736984491,0.0005405647680163383,0.0017388301203027368
1761316476142111700,1.81311181640625,-0.00022891664411872625,0.0003345203585922718,0.00012134364806115627
1761316476152093700,1.82309375,-0.00040814734529703856,-0.0006865356117486954,-0.0006562992930412292
1761316476162076700,1.83307666015625,0.0007846157532185316,-0.0002743196673691273,-0.0011616309639066458
1761316476172059600,1.8430595703125,-0.0007317881681956351,0.0006079855374991894,-0.0012612331192940474
1761316476182041600,1.85304150390625,0.0013162267860025167,-0.001394493505358696,0.0007598546799272299
1761316476192024800,1.86302490234375,0.0009327316656708717,-0.001066125463694334,0.0002898068632930517
1761316476202006800,1.8730068359375,-0.0007043401128612459,-0.0014731232076883316,0.0005476499209180474
1761316476211989800,1.88298974609375,-0.0012058133725076914,0.00015992717817425728,-0.0006526368670165539
1761316476221971700,1.8929716796875,0.000310309580527246,-0.001617345493286848,-0.00099650165066123
1761316476231954700,1.90295458984375,0.00015664519742131233,-0.00010813213884830475,-0.001973881619051099
1761316476241937700,1.912937744140625,0.002314880955964327,-0.003021117765456438,0.001964349066838622
1761316476251920000,1.922919921875,-0.00046439393190667033,-0.000635191798210144,-0.0011696587316691875
1761316476261902800,1.93290283203125,0.0016601876122877002,0.0005559115670621395,-0.0011902807746082544
1761316476271884800,1.942884765625,-0.0011885957792401314,-0.0015240171924233437,-0.0012241029180586338
1761316476281867800,1.95286767578125,0.0008822429226711392,0.00003155414015054703,0.0006245325785130262
1761316476291850800,1.962850830078125,-0.000026161200366914272,-0.000005996320396661758,0.0014338672626763582
1761316476301832700,1.972832763671875,-0.0028655503410845995,-0.0016028070822358131,-0.0006125026848167181
1761316476311815700,1.982815673828125,0.0010405080392956734,0.00018630456179380417,-0.00301653821952641
1761316476321797600,1.992797607421875,0.002390803536400199,-0.002061464125290513,0.001388000207953155
1761316476331780600,2.002780517578125,-0.00039832497714087367,-0.0004068422131240368,-0.00019205338321626186
1761316476341762800,2.0127626953125,-0.0006969121168367565,-0.0005934392102062702,0.0001614871434867382
1761316476351745500,2.02274560546875,-0.0008686860091984272,-0.0010475083254277706,0.000473076943308115
1761316476361728800,2.032728759765625,0.00037226348649710417,0.000030996277928352356,0.0008708483073860407
1761316476371710700,2.042710693359375,-0.000051711685955524445,0.0019639190286397934,-0.00043489970266819
1761316476381693700,2.052693603515625,-0.00015161000192165375,-0.001233033835887909,0.0024902010336518288
1761316476391675600,2.062675537109375,-0.0005896999500691891,0.002021083142608404,0.0011058899108320475
1761316476401659000,2.072658935546875,-0.0003661003429442644,-0.000955487135797739,-0.00007449439726769924
1761316476411641900,2.082641845703125,-0.0002992550143972039,0.0002445331774652004,0.002591596217826009
1761316476421623800,2.092623779296875,0.0004306734772399068,0.00128901656717062,0.001729642623104155
1761316476431606800,2.102606689453125,-0.00046201806981116533,0.0014759702607989311,0.0006609160918742418
1761316476441588700,2.112588623046875,0.003257934469729662,0.00011221598833799362,-0.00015359814278781414
1761316476451571700,2.12257177734375,0.003022777382284403,-0.0010904674418270588,0.0014379068743437529
1761316476461554000,2.132553955078125,-0.0005137046100571752,0.003174377605319023,-0.0008869220037013292
1761316476471536600,2.14253662109375,-0.0028626127168536186,0.0014949878677725792,0.0005879367236047983
1761316476481519600,2.15251953125,-0.0016172557370737195,0.0007275119423866272,-0.0009375070221722126
1761316476491501800,2.162501708984375,0.0011553613003343344,0.0001125880517065525,-0.000027238624170422554
1761316476501484500,2.172484619140625,-0.0005342891090549529,-0.0001457943581044674,0.0004749700892716646
1761316476511466800,2.182466796875,-0.0007164493435993791,-0.0018262490630149841,0.0015271850861608982
1761316476521449700,2.19244970703125,0.00023447733838111162,-0.0003388449549674988,-0.0011581908911466599
1761316476531432700,2.2024326171875,-0.0003559454926289618,0.00106916856020689,0.0007030924316495657
1761316476541414700,2.21241455078125,0.0003052916144952178,-0.0002596229314804077,-0.0008113489020615816
1761316476551398000,2.22239794921875,0.0011527094757184386,-0.00010702339932322502,-0.0005937686655670404
1761316476561379600,2.232379638671875,-0.0008458530064672232,-0.0028065370861440897,-0.00010432233102619648
1761316476571362800,2.24236279296875,-0.0018748983275145292,-0.0007942523807287216,0.00012737279757857323
1761316476581345800,2.252345703125,0.001568925566971302,-0.0006360961124300957,-0.00098667130805552
1761316476591327700,2.26232763671875,-0.0002883628476411104,-0.0002230396494269371,0.0006333296187222004
1761316476601310700,2.272310791015625,0.0011501568369567394,-0.0010330863296985626,-0.002195497043430805
1761316476611293000,2.28229296875,0.0021986435167491436,0.0011006384156644344,-0.001974987331777811
1761316476621275600,2.292275634765625,0.0014686273643746972,-0.0012868093326687813,0.00040666828863322735
1761316476631257900,2.3022578125,-0.001745541812852025,0.00029271189123392105,0.001116933417506516
1761316476641240800,2.31224072265625,0.000940680387429893,-0.000842241570353508,-0.001687169773504138
1761316476651223600,2.3222236328125,-0.0012132844422012568,0.0009857523255050182,0.0034295618534088135
1761316476661205800,2.332205810546875,0.0005306074162945151,0.002071002498269081,0.000046415720134973526
1761316476671188700,2.342188720703125,0.0005103674484416842,0.0004882859066128731,0.0001295064575970173
1761316476681170700,2.352170654296875,0.0026902095414698124,0.0010280273854732513,0.0031115959864109755
1761316476691153700,2.362153564453125,0.0009682095842435956,0.0030512306839227676,0.0037957620806992054
1761316476701137000,2.372136962890625,-0.0006878928979858756,0.0018368340097367764,-0.003050362691283226
1761316476711118600,2.38211865234375,0.00040453579276800156,0.0020911656320095062,-0.00014139199629426003
1761316476721101800,2.392101806640625,0.0034283758141100407,0.001331583596765995,-0.0006835663225501776
1761316476731083500,2.40208349609375,0.001287460676394403,0.0019358545541763306,0.0003822308499366045
1761316476741066800,2.412066650390625,0.0008795323083177209,-0.0010771588422358036,-0.0007542094681411982
1761316476751048700,2.422048583984375,-0.00243077683262527,-0.0007447963580489159,0.0024378555826842785
1761316476761031700,2.43203173828125,-0.0009851597715169191,0.0005830102600157261,-0.0001888996921479702
1761316476771014700,2.4420146484375,0.00035201339051127434,-0.00002046208828687668,-0.0006264571566134691
1761316476780996900,2.451996826171875,-0.0013587946305051446,-0.002053573029115796,0.0016270448686555028
1761316476790979600,2.4619794921875,-0.0014951485209167004,-0.0015723397955298424,-0.000006538117304444313
1761316476800961800,2.4719619140625,0.0009796664817258716,-0.0015549263916909695,-0.0002336746547371149
1761316476810944800,2.48194482421875,-0.0011655098060145974,-0.003128322074189782,0.0008688739035278559
1761316476820927700,2.491927734375,0.0004886392271146178,-0.0018868069164454937,0.0018797406228259206
1761316476830909700,2.50190966796875,-0.0010751689551398158,0.000654381699860096,0.0008016930660232902
1761316476840892700,2.511892578125,0.00022884737700223923,-0.003543493803590536,0.0003597869072109461
1761316476850874600,2.52187451171875,-0.002202884992584586,-0.000639050267636776,0.0014146649045869708
1761316476860857600,2.531857666015625,-0.00012842961587011814,0.00046587223187088966,0.0025526215322315693
1761316476870839800,2.54183984375,0.00021218869369477034,-0.0017517423257231712,0.0012564610224217176
1761316476880822800,2.55182275390625,-0.004692643880844116,0.00010292697697877884,-0.00036696181632578373
1761316476890805200,2.56180517578125,0.0009987978264689445,-0.00012397440150380135,-0.0021608672104775906
1761316476900787500,2.571787353515625,-0.0009198278421536088,-0.0015634559094905853,0.0015893778763711452
1761316476910770400,2.5817705078125,0.0019550547003746033,-0.0007985960692167282,-0.0028333335649222136
1761316476920752400,2.59175244140625,0.00008491217158734798,-0.0010453760623931885,-0.0003176035825163126
1761316476930735400,2.6017353515625,0.0011959829134866595,0.00018420536071062088,0.0009146409574896097
1761316476940718300,2.61171826171875,-0.0012181723723188043,0.0015583420172333717,0.000152497086673975
1761316476950700300,2.6217001953125,0.001159497769549489,0.002803369890898466,-0.0005891930777579546
1761316476960683300,2.631683349609375,0.0006273738108575344,0.00039963796734809875,-0.0008772255387157202
1761316476970665500,2.64166552734375,-0.0012978253653272986,0.00019590603187680244,0.0015939215663820505
1761316476980648200,2.651648193359375,-0.0012691107112914324,-0.0007949052378535271,0.0012713461183011532
1761316476990630400,2.66163037109375,0.001591124222613871,-0.00044256914407014847,0.002406118903309107
1761316477000613400,2.67161328125,-0.0016555625479668379,-0.000025061890482902527,0.0016294748056679964
1761316477010596400,2.681596435546875,-0.00015407230239361525,-0.0015997891314327717,-0.0000943893101066351
1761316477020578300,2.691578369140625,-0.0013380283489823341,0.0015077018178999424,0.0022016442380845547
1761316477030561500,2.7015615234375,-0.001677048741839826,0.00042059971019625664,0.0017648858483880758
1761316477040543200,2.711543212890625,-0.0017159555573016405,-0.0015484141185879707,-0.0013096118345856667
1761316477050526500,2.7215263671875,-0.0006626753020100296,0.001684130635112524,0.000348738394677639
1761316477060509400,2.731509521484375,-0.0006049373187124729,-0.00033211708068847656,-0.00296405260451138
1761316477070491400,2.741491455078125,-0.0007452858844771981,-0.0015241475775837898,-0.003821856575086713
1761316477080474400,2.751474365234375,0.00009234354365617037,-0.002023087814450264,0.00021988502703607082
1761316477090456300,2.761456298828125,0.0017552212812006474,0.0020283786579966545,-0.0006453758105635643
1761316477100439300,2.771439208984375,-0.0017636269330978394,-0.0001234970986843109,-0.001564457081258297
1761316477110422300,2.78142236328125,0.0014260411262512207,-0.001131503377109766,-0.0014049338642507792
1761316477120404200,2.791404296875,0.0011115752859041095,-0.00037219980731606483,0.0008885189890861511
1761316477130387200,2.80138720703125,0.0006053083343431354,-0.002150392159819603,-0.0008603788446635008
1761316477140369400,2.811369384765625,-0.0004841630579903722,-0.001023678109049797,0.0015422076685354114
1761316477150352100,2.82135205078125,-0.00009614042937755585,0.00028473278507590294,0.0007115676999092102
1761316477160334300,2.831334228515625,-0.000595422345213592,-0.0003279680386185646,-0.00046462262980639935
1761316477170317300,2.8413173828125,0.0015396339586004615,0.0015008249320089817,0.0028973519802093506
1761316477180300300,2.85130029296875,-0.0006857223343104124,0.0005799396894872189,-0.0005040084943175316
1761316477190282200,2.8612822265625,-0.002478828653693199,-0.000486656092107296,-0.0010867081582546234
1761316477200265500,2.871265380859375,-0.0010443624341860414,-0.0011337161995470524,-0.0013433101121336222
1761316477210247200,2.8812470703125,0.0020403771195560694,0.0026839254423975945,0.00038028787821531296
1761316477220230400,2.89123046875,-0.00037988158874213696,0.001359331887215376,-0.0005369875580072403
1761316477230213400,2.90121337890625,0.0027261630166321993,-0.0002454891800880432,0.00021748594008386135
1761316477240195300,2.9111953125,-0.0010406082728877664,-0.0007839472964406013,0.0007765599293634295
1761316477250178300,2.92117822265625,-0.0007109089638106525,0.0010672160424292088,-0.0002764540258795023
1761316477260160500,2.931160400390625,-0.0019089154666289687,-0.0021296769846230745,-0.0011958647519350052
1761316477270143200,2.941143310546875,0.00048686424270272255,0.0005790241993963718,-0.0014861496165394783
1761316477280125400,2.95112548828125,-0.0005640120361931622,0.0013686520978808403,0.0005429566372185946
1761316477290108400,2.9611083984375,-0.0016124985413625836,-0.000008734874427318573,-0.0009209830313920975
1761316477300091400,2.97109130859375,0.00026043434627354145,0.0010022660717368126,-0.00011773034930229187
1761316477310073300,2.9810732421875,-0.0017593069933354855,-0.00018363911658525467,-0.0011220085434615612
1761316477320056300,2.991056396484375,0.0006620374042540789,0.00020628143101930618,-0.0015079574659466743
1761316477330038300,3.001038330078125,0.0018117239233106375,0.001865430735051632,-0.0011143421288579702
1761316477340021200,3.011021240234375,0.001413404825143516,-0.0010728989727795124,-0.0001681712456047535
1761316477350004500,3.02100439453125,0.002225402742624283,-0.0001810062676668167,0.0018803321290761232
1761316477359986400,3.030986328125,-0.0009255995973944664,0.001715250313282013,-0.0023139570839703083
1761316477369969400,3.040969482421875,-0.0005263917846605182,0.001748539973050356,0.0016275213565677404
1761316477379951400,3.050951416015625,-0.0012116780271753669,0.00015009520575404167,0.00334164802916348
1761316477389934300,3.060934326171875,0.0009319002274423838,-0.0022456843871623278,0.0002145643811672926
1761316477399916300,3.070916259765625,0.0014325578231364489,-0.0011398857459425926,0.00047534448094666004
1761316477409899300,3.080899169921875,0.000033865682780742645,-0.001247210893779993,0.0006505805067718029
1761316477419882200,3.09088232421875,-0.0017380424542352557,-0.0004977942444384098,0.0010037802858278155
1761316477429864400,3.100864501953125,0.0013059506891295314,-0.0016269744373857975,0.0011473246850073338
1761316477439847200,3.11084716796875,0.0006157527677714825,-0.0012062224559485912,0.0012920236913487315
1761316477449829400,3.120829345703125,0.00022693118080496788,-0.0011279257014393806,0.00020039384253323078
1761316477459812400,3.130812255859375,-0.0009208432165905833,-0.002149021252989769,0.00009646709077060223
1761316477469795300,3.14079541015625,0.002370291156694293,-0.0015074657276272774,0.0007601267425343394
1761316477479777300,3.15077734375,0.0018029087223112583,-0.0004680999554693699,-0.0009446521289646626
1761316477489760500,3.160760498046875,0.00014935201033949852,-0.004293464589864016,-0.000574739184230566
1761316477499742200,3.1707421875,0.00043730472680181265,-0.00165537279099226,-0.00006994744762778282
1761316477509725400,3.180725341796875,0.0012724720872938633,-0.0017198212444782257,-0.0006185586098581553
1761316477519707400,3.190707275390625,0.0003865879261866212,-0.0010155700147151947,0.0017883103573694825
1761316477529690400,3.2006904296875,0.00005102972500026226,0.0012529105879366398,-0.0007789768278598785
1761316477539673300,3.21067333984375,-0.0010409598471596837,0.0017738789319992065,-0.0005103233270347118
1761316477549655600,3.220655517578125,-0.0014367055846378207,0.0012742700055241585,-0.00044534215703606606
1761316477559638300,3.23063818359375,0.0013139474904164672,0.00040459586307406425,-0.00208006938919425
1761316477569620500,3.240620361328125,-0.0006983369239605963,-0.0006649293936789036,-0.0009655363392084837
1761316477579603500,3.250603515625,-0.0017897438956424594,0.0010218285024166107,-0.0004040314815938473
1761316477589586200,3.260586181640625,0.0018665100215002894,-0.0007667508907616138,0.0003642905503511429
1761316477599568400,3.270568359375,-0.0003239588695578277,-0.002988764550536871,0.0009389835176989436
1761316477609551400,3.28055126953125,-0.0008797605987638235,0.0001785331405699253,-0.0001651630736887455
1761316477619533300,3.290533203125,0.0019336462719365954,0.0018066167831420898,0.0016903100768104196
1761316477629516300,3.300516357421875,0.001972528640180826,0.00048009585589170456,0.0005052033811807632
1761316477639498200,3.310498291015625,0.0006924623157829046,0.001971815712749958,-0.00003598048351705074
1761316477649481200,3.320481201171875,-0.0005325918318703771,-0.0006836224347352982,0.002168051665648818
1761316477659464400,3.33046435546875,0.001060432055965066,0.0006301631219685078,0.000020359409973025322
1761316477669446100,3.340446044921875,-0.0007198911043815315,0.0006219074130058289,0.002149556763470173
1761316477679429400,3.350429443359375,0.00006161164492368698,-0.001128417905420065,0.0017304092179983854
1761316477689411300,3.360411376953125,0.0023508649319410324,0.00007905950769782066,0.0011983097065240145
1761316477699394600,3.37039453125,0.0007950970903038979,-0.0002536666579544544,0.0005073752254247665
1761316477709377300,3.380377197265625,-0.000249128439463675,-0.0019935094751417637,-0.00043298699893057346
1761316477719359500,3.390359375,-0.002226789016276598,-0.0025299943517893553,0.0004110373556613922
1761316477729342500,3.400342529296875,-0.0024923060555011034,0.0006037470884621143,-0.0018590409308671951
1761316477739324400,3.410324462890625,0.0012415477540344,-0.0014204159379005432,-0.0005448136944323778
1761316477749307400,3.420307373046875,-0.0013094942551106215,-0.00018231244757771492,0.0012956970604136586
1761316477759289300,3.430289306640625,0.0006369407055899501,-0.0023043521214276552,0.0014259868767112494
1761316477769272300,3.440272216796875,-0.0005971681093797088,-0.0007986007258296013,0.0007729798089712858
1761316477779255300,3.45025537109375,0.0007660705596208572,-0.0009952569380402565,-0.00048220762982964516
1761316477789237200,3.4602373046875,-0.0008486039005219936,0.0002460423856973648,-0.0012350832112133503
1761316477799220200,3.47022021484375,0.00037043949123471975,-0.0004989304579794407,-0.0009870491921901703
1761316477809202400,3.480202392578125,-0.0018322609830647707,-0.001964201685041189,-0.0003244546242058277
1761316477819185200,3.49018505859375,0.002582005225121975,-0.0007578539662063122,-0.0030926994513720274
1761316477829168400,3.50016845703125,0.0007524136453866959,-0.0015424215234816074,-0.0018245021346956491
1761316477839150300,3.510150390625,-0.001685034716501832,-0.0006635976023972034,-0.00011318409815430641
1761316477849133300,3.52013330078125,-0.0014275070279836655,-0.002106498461216688,0.00026871333830058575
1761316477859115300,3.530115234375,0.0010466099483892322,-0.0006980923935770988,0.0002276573795825243
1761316477869098500,3.540098388671875,0.0007107852725312114,0.0002260245382785797,0.001440727268345654
1761316477879080200,3.550080078125,-0.00015145691577345133,0.00027823587879538536,-0.003713269717991352
1761316477889063400,3.5600634765625,-0.0016169945010915399,0.0005722488276660442,-0.00018431502394378185
1761316477899046400,3.57004638671875,0.0010393614647909999,0.0005381712689995766,-0.003421042114496231
1761316477909028400,3.5800283203125,-0.0019668147433549166,0.0011184741742908955,0.0007310924120247364
1761316477919011300,3.59001123046875,-0.0005601769080385566,-0.0010304832831025124,-0.000943242572247982
1761316477928993300,3.5999931640625,-0.00040065357461571693,0.0006867232732474804,-0.000438041053712368
1761316477938976300,3.609976318359375,0.0012906779302284122,-0.002001870423555374,0.0006400616839528084
1761316477948959200,3.619959228515625,-0.00042066926835104823,-0.0014418074861168861,-0.0004979071673005819
1761316477958941200,3.629941162109375,-0.002652388531714678,-0.001352944876998663,0.0014903612900525331
1761316477968924200,3.639924072265625,-0.00020201399456709623,-0.0023183408193290234,0.0007228382164612412
1761316477978906400,3.64990625,0.0011551399948075414,-0.002583804540336132,-0.00030978303402662277
1761316477988889300,3.659889404296875,0.002670744899660349,-0.0008093402720987797,0.0005618694704025984
1761316477998871300,3.669871337890625,-0.0006734386552125216,-0.0018968735821545124,-0.0032880008220672607
1761316478008854300,3.679854248046875,-0.0010039369808509946,-0.0007176254875957966,-0.001649357844144106
1761316478018837200,3.689837158203125,0.00024154793936759233,-0.0007531004957854748,0.0006259758956730366
1761316478028819200,3.699819091796875,0.00010998779907822609,-0.0004923772066831589,0.0016084159724414349
1761316478038802400,3.709802490234375,0.0008666955400258303,0.00147623335942626,-0.0023305120412260294
1761316478048784100,3.7197841796875,0.0005865308921784163,-0.0020865437109023333,0.0010200106771662831
1761316478058767400,3.729767333984375,-0.0016022655181586742,-0.001343307550996542,0.000527376658283174
1761316478068750300,3.739750244140625,-0.0003183556254953146,-0.0004535457119345665,0.00015346892178058624
1761316478078732300,3.749732177734375,-0.0008724011713638902,-0.00003962591290473938,-0.00002219271846115589
1761316478088715300,3.75971533203125,0.00009166309610009193,0.0018208585679531097,-0.0005734669975936413
1761316478098697200,3.769697265625,-0.00029038533102720976,-0.0004800250753760338,-0.0009452817030251026
1761316478108680200,3.77968017578125,-0.0012770865578204393,0.0017682155594229698,-0.0010997450444847345
1761316478118662400,3.789662353515625,-0.0012570354156196117,0.0005783108063042164,0.0003845859318971634
1761316478128645400,3.799645263671875,0.0012093180557712913,-0.001746096182614565,0.0009212128352373838
1761316478138628400,3.80962841796875,-0.0007250822382047772,0.0000711558386683464,-0.0013525241520255804
1761316478148610300,3.8196103515625,-0.00020763010252267122,0.0015180516056716442,0.0033799130469560623
1761316478158593500,3.829593505859375,0.001392001984640956,0.0017294562421739101,0.0005892694462090731
1761316478168575200,3.8395751953125,-0.00041042547672986984,0.0008804406970739365,-0.0017271481920033693
1761316478178558500,3.849558349609375,-0.00231177918612957,0.0014006155543029308,0.001612193649634719
1761316478188540200,3.8595400390625,0.0004794797860085964,-0.0016835909336805344,0.000514172250404954
1761316478198523400,3.8695234375,-0.0019298568367958069,-0.0010888823308050632,0.0028930441476404667
1761316478208506400,3.87950634765625,0.0009583414066582918,0.0005779899656772614,0.0004490611609071493
1761316478218488300,3.88948828125,0.002915340708568692,0.0006776065565645695,-0.0006247044075280428
1761316478228471300,3.89947119140625,0.0011667090002447367,-0.0009221541695296764,-0.00027662911452353
1761316478238453500,3.90945361328125,0.00208205240778625,0.0010754093527793884,-0.00009770947508513927
1761316478248436200,3.919436279296875,-0.000021312269382178783,-0.0001640254631638527,0.0017369422130286694
1761316478258419200,3.929419189453125,0.0015213165897876024,-0.00021647242829203606,0.00012528151273727417
1761316478268401400,3.9394013671875,0.00018654041923582554,-0.0023800244089215994,0.0006419348064810038
1761316478278384000,3.949384033203125,-0.0018787914887070656,-0.0015237722545862198,-0.0007897585164755583
1761316478288366300,3.959366455078125,-0.0007421543705277145,0.001146579161286354,-0.0008185207843780518
1761316478298349300,3.969349365234375,-0.0012323245173320174,-0.0004662582650780678,0.00014419644139707088
1761316478308331300,3.979331298828125,0.0027400467079132795,-0.0025808082427829504,0.0012129229726269841
1761316478318314200,3.989314208984375,0.0020578373223543167,-0.0012096511200070381,-0.0031636161729693413
1761316478328297500,3.99929736328125,0.00037338794209063053,-0.0018887571059167385,0.00148200208786875
1761316478338279200,4.009279052734375,-0.0004432365531101823,0.0006798794493079185,-0.0029571896884590387
1761316478348262400,4.019262451171875,0.0016175174387171865,-0.0002186712808907032,-0.0024123068433254957
1761316478358244400,4.029244384765625,0.004862802103161812,0.0010616243816912174,-0.0005847965367138386
1761316478368227300,4.039227294921875,0.0008816428016871214,0.0014033080078661442,0.0014623753959313035
1761316478378210300,4.049210205078125,0.0004462464712560177,-0.0016395649872720242,0.0008772084256634116
1761316478388192500,4.059192626953125,0.0014132403302937746,0.000978322234004736,-0.0003198825288563967
1761316478398175200,4.06917529296875,0.0007308895001187921,-0.0023865606635808945,-0.001648143632337451
1761316478408157400,4.079157470703125,-0.0001745852641761303,0.00010189693421125412,-0.00013600080274045467
1761316478418140400,4.089140380859375,0.0011932620545849204,0.0004108194261789322,0.0017965435981750488
1761316478428122400,4.099122314453125,-0.00003125937655568123,0.0014763502404093742,0.0008343436056748033
1761316478438105300,4.109105224609375,0.0009485469199717045,-0.0007699704729020596,-0.0016200428362935781
1761316478448088300,4.11908837890625,0.0009200512431561947,0.0013592271134257317,0.0013547081034630537
1761316478458070300,4.1290703125,0.002840027678757906,0.0005771424621343613,-0.000653258990496397
1761316478468053200,4.13905322265625,-0.0010497851762920618,0.000912168063223362,0.0014847267884761095
1761316478478035200,4.14903515625,-0.000291649776045233,-0.0007519982755184174,-0.0008154881652444601
1761316478488018200,4.15901806640625,-0.001216831966303289,-0.0008545299060642719,0.0013821524335071445
1761316478498001400,4.16900146484375,-0.0005910853506065905,-0.00041268207132816315,-0.0018390410114079714
1761316478507983000,4.178983154296875,0.0012297179782763124,-0.001756779383867979,-0.0020305223297327757
1761316478517966300,4.18896630859375,0.0012777582742273808,-0.00013450533151626587,-0.0008047125302255154
1761316478527948300,4.1989482421875,-0.00011081399861723185,0.000390403438359499,0.0007692156359553337
1761316478537931300,4.20893115234375,-0.0008698299643583596,-0.001475233118981123,-0.0004417723976075649
1761316478547913200,4.218913330078125,-0.0003395946114324033,-0.0014925436116755009,-0.0012878587003797293
1761316478557896400,4.228896484375,-0.003712213132530451,-0.0026652999222278595,-0.0010599365923553705
1761316478567879200,4.238879150390625,-0.0013518535997718573,-0.0003225170075893402,-0.0012700601946562529
1761316478577861400,4.248861328125,-0.00025869556702673435,0.0007856660522520542,-0.0018632845021784306
1761316478587844400,4.25884423828125,-0.0007654950604774058,-0.002491620136424899,0.0003133169375360012
1761316478597826300,4.268826416015625,0.0008684286149218678,-0.002978321397677064,0.001150223659351468
1761316478607809300,4.278809326171875,0.0008567107142880559,0.00027526263147592545,-0.0002466042060405016
1761316478617791500,4.28879150390625,0.0001330074155703187,0.0008758902549743652,-0.0025721220299601555
1761316478627774200,4.298774169921875,0.0017535409424453974,-0.0018234895542263985,-0.002115922514349222
1761316478637757200,4.308757080078125,-0.00002483848948031664,-0.0009659887291491032,-0.0013104623649269342
1761316478647739400,4.318739501953125,0.0009022078011184931,0.0007293797098100185,-0.0004819529131054878
1761316478657722000,4.32872216796875,-0.001831703819334507,0.0008300631307065487,0.0007375776767730713
1761316478667704300,4.338704345703125,-0.001786962617188692,0.001016218215227127,0.0027770265005528927
1761316478677687300,4.348687255859375,0.0010322448797523975,0.00003660190850496292,-0.00008881278336048126
1761316478687670300,4.358670166015625,-0.001640503527596593,0.0017934893257915974,0.00010613072663545609
1761316478697652200,4.36865234375,0.0014480594545602798,0.001977359876036644,-0.0006778857205063105
1761316478707635500,4.378635498046875,0.00012127263471484184,0.00030809035524725914,-0.0003111683763563633
1761316478717617200,4.3886171875,-0.0016562383389100432,-0.0015103868208825588,-0.0011931629851460457
1761316478727600400,4.398600341796875,0.0020564745645970106,-0.0005852044560015202,-0.00016784574836492538
1761316478737582000,4.40858203125,0.0003673917381092906,0.00102180615067482,-0.0017175637185573578
1761316478747565300,4.4185654296875,0.0026715584099292755,0.0006750626489520073,-0.00033218739554286003
1761316478757548300,4.42854833984375,-0.0005844433326274157,0.001118627842515707,0.00033845496363937855
1761316478767530200,4.4385302734375,-0.001391913741827011,0.0021537980064749718,-0.0003012365195900202
1761316478777513200,4.44851318359375,-0.00081509945448488,0.0001965290866792202,0.0023411621805280447
1761316478787495400,4.458495361328125,0.0010701522696763277,0.001078035682439804,0.00172623828984797
1761316478797478100,4.46847802734375,0.0014086480950936675,-0.0011370563879609108,-0.00026931799948215485
1761316478807460400,4.47846044921875,-0.0003775340737774968,0.0016310331411659718,0.0003490680828690529
1761316478817443300,4.488443359375,-0.002074980176985264,0.0006645498797297478,-0.00008132075890898705
1761316478827426300,4.49842626953125,-0.002763140946626663,0.0007795984856784344,0.0004094998585060239
1761316478837408300,4.508408203125,0.00017642148304730654,-0.00160963274538517,0.00041909818537533283
1761316478847391500,4.5183916015625,0.00028534478042274714,0.0008197030983865261,-0.0010815931018441916
1761316478857373200,4.528373291015625,0.000005868962034583092,-0.001843585167080164,0.0007003695936873555
1761316478867356400,4.5383564453125,-0.0006114517454989254,0.001026236917823553,0.0007168811280280352
1761316478877339400,4.54833935546875,-0.0001315275439992547,-0.0008237138390541077,0.00008664606139063835
1761316478887321300,4.5583212890625,0.002534563187509775,-0.00046605104580521584,0.004957834258675575
1761316478897304300,4.56830419921875,-0.0012210888089612126,-0.0014021419920027256,-0.000007934868335723877
1761316478907286500,4.57828662109375,0.000905711785890162,0.0019092322327196598,0.001690362929366529
1761316478917269200,4.588269287109375,0.0016056210733950138,-0.0009640115313231945,0.00024790666066110134
1761316478927251500,4.59825146484375,0.002204299671575427,0.0015705185942351818,0.00014990242198109627
1761316478937234400,4.608234375,0.0003446700284257531,-0.002183096017688513,-0.0009643235243856907
1761316478947217400,4.618217529296875,0.002265874296426773,0.00047607021406292915,0.002387531101703644
1761316478957199400,4.628199462890625,0.000043302192352712154,-0.0019250421319156885,-0.0012827839236706495
1761316478967182300,4.638182373046875,0.0005860544042661786,-0.0001638936810195446,-0.0013690702617168427
1761316478977164300,4.648164306640625,-0.002910517156124115,-0.0015195505693554878,-0.0004029977135360241
1761316478987147300,4.658147216796875,-0.001139514846727252,-0.00015974044799804688,-0.002640053164213896
1761316478997130500,4.668130615234375,0.0011421635281294584,0.00011348817497491837,-0.00041140103712677956
1761316479007112200,4.6781123046875,-0.000522312184330076,0.00003332691267132759,-0.00042977696284651756
1761316479017095400,4.688095458984375,0.002463539596647024,0.0003161248750984669,0.0005137544358149171
1761316479027077400,4.698077392578125,0.0023101414553821087,0.0010136067867279053,-0.0002566981129348278
1761316479037060400,4.708060302734375,-0.0006773225613869727,0.0010801441967487335,0.00041537301149219275
1761316479047042300,4.718042236328125,-0.002588939620181918,-0.0003497069701552391,0.00047476147301495075
1761316479057025500,4.728025634765625,0.00018005643505603075,-0.0006888075731694698,0.0010892379796132445
1761316479067008300,4.73800830078125,-0.0003965179203078151,-0.0006928024813532829,0.00018323049880564213
1761316479076990500,4.747990478515625,-0.00041621841955929995,0.0008344855159521103,0.0006330276373773813
1761316479086973400,4.757973388671875,-0.0001757349818944931,-0.0003274516202509403,0.00006444263271987438
1761316479096955400,4.767955322265625,0.002224723342806101,0.00019452301785349846,0.00007159519009292126
1761316479106938400,4.7779384765625,0.0006848834455013275,-0.001571685541421175,0.0008202098542824388
1761316479116921300,4.78792138671875,-0.0014761226484552026,-0.0007477444596588612,-0.001845397986471653
1761316479126903300,4.7979033203125,0.0017971686320379376,-0.0017898394726216793,-0.0005380522925406694
1761316479136886300,4.80788623046875,-0.000054684700444340706,-0.0001195673830807209,0.0006690737791359425
1761316479146868200,4.8178681640625,-0.0019854765851050615,0.0003621983341872692,0.0010648195166140795
1761316479156851200,4.827851318359375,0.0012638125335797668,-0.002046813489869237,-0.0007307168561965227
1761316479166833400,4.83783349609375,0.0013972368324175477,-0.00019485130906105042,0.0011289684334769845
1761316479176816400,4.84781640625,-0.00001839175820350647,-0.0029110147152096033,-0.000303113367408514
1761316479186799400,4.85779931640625,-0.0024943326134234667,-0.003023133845999837,0.0016042424831539392
1761316479196781300,4.86778125,0.0007997453212738037,0.0014644362963736057,0.0016810551751405
1761316479206764500,4.8777646484375,-0.000257795793004334,-0.0007912609726190567,-0.0007269750349223614
1761316479216746200,4.887746337890625,-0.0019243445713073015,0.0010265554301440716,0.000638075522147119
1761316479226729500,4.8977294921875,-0.0013879839098080993,-0.0006094244308769703,-0.0014165532775223255
1761316479236711200,4.907711181640625,0.0000961540499702096,-0.0030917967669665813,0.00005392986349761486
1761316479246694400,4.9176943359375,-0.0014727141242474318,0.0011234544217586517,-0.0012861727736890316
1761316479256677400,4.927677490234375,-0.0026073113549500704,0.001389969140291214,0.0015315469354391098
1761316479266659300,4.937659423828125,-0.0008530872291885316,-0.0009797117672860622,0.0005962448194622993
1761316479276642300,4.947642333984375,-0.001194537035189569,-0.0027845045551657677,-0.0011964710429310799
1761316479286624500,4.95762451171875,-0.002722658682614565,-0.0008009821176528931,0.00012339139357209206
1761316479296607200,4.967607177734375,0.000473895575851202,0.0004331967793405056,0.0008757928153499961
1761316479306589400,4.97758935546875,-0.0007799206650815904,-0.0008192877285182476,0.0010853835847228765
1761316479316572400,4.987572509765625,-0.0006247193668968976,0.0005548354238271713,0.00007223640568554401
1761316479326555100,4.99755517578125,0.0021486966870725155,-0.0003160182386636734,0.0002024651039391756
1761316479336537300,5.007537353515625,0.0010811557294800878,0.00040288688614964485,0.00006866478361189365
1761316479346520300,5.017520263671875,0.004107305780053139,0.0007842518389225006,0.0005506968591362238
1761316479356502300,5.027502197265625,0.0013032825663685799,-0.001620930153876543,-0.0010552620515227318
1761316479366485200,5.0374853515625,0.0011970223858952522,0.0007077381014823914,-0.0009292943868786097
1761316479376468500,5.047468505859375,-0.0006439295248128474,-0.000896187499165535,0.0008536642417311668
1761316479386450200,5.0574501953125,0.0006112183909863234,-0.0000644824467599392,-0.00037698238156735897
1761316479396433400,5.067433349609375,0.0016161729581654072,-0.0010159853845834732,-0.00007939781062304974
1761316479406415400,5.077415283203125,-0.0028432903345674276,-0.0025020295288413763,-0.001380884787067771
1761316479416398300,5.0873984375,-0.000307156122289598,0.0009259534999728203,0.0012948729563504457
1761316479426380300,5.09738037109375,-0.0004642826388590038,-0.00010974984616041183,0.0005816783523187041
1761316479436363500,5.107363525390625,0.0005213173571974039,-0.0007647555321455002,0.0017340772319585085
1761316479446346200,5.11734619140625,0.0013141403906047344,0.0003196834586560726,-0.0011421367526054382
1761316479456328400,5.127328369140625,-0.00016122160013765097,0.0010560317896306515,0.0005018358351662755
1761316479466311400,5.1373115234375,0.001189800095744431,-0.00021056737750768661,0.0011047754669561982
1761316479476293400,5.14729345703125,0.0022247168235480785,0.0010374262928962708,0.001020090072415769
1761316479486276400,5.1572763671875,-0.00019902607891708612,-0.0039011393673717976,-0.0009594375733286142
1761316479496258300,5.16725830078125,-0.0038219382986426353,-0.000984629150480032,-0.0014517097733914852
1761316479506241300,5.1772412109375,0.000421542557887733,0.0008018193766474724,0.0002194237895309925
1761316479516224500,5.187224609375,0.001709477510303259,0.00039512477815151215,0.0003652406157925725
1761316479526206200,5.197206298828125,0.0008940175175666809,-0.0003534900024533272,-0.0010707357432693243
1761316479536189400,5.207189453125,-0.0006782105192542076,-0.0020063258707523346,0.003761816769838333
1761316479546171400,5.21717138671875,-0.0017469370504841208,-0.0006864634342491627,0.0004858622560277581
1761316479556154400,5.227154296875,-0.0003787827445194125,0.0013576666824519634,-0.0014031725004315376
1761316479566137300,5.237137451171875,-0.0007095473702065647,0.0017110682092607021,-0.0011959783732891083
1761316479576119300,5.247119384765625,0.000707593047991395,-0.0014414493925869465,0.0006370824994519353
1761316479586102300,5.257102294921875,-0.0016210749745368958,0.0009873537346720695,-0.0006739916279911995
1761316479596084500,5.26708447265625,0.0009202040964737535,0.0018846024759113789,0.00032600900158286095
1761316479606067500,5.2770673828125,-0.00033387832809239626,0.0004318482242524624,-0.00004283874295651913
1761316479616049400,5.28704931640625,0.0026663891039788723,-0.0009936345741152763,-0.0008405055850744247
1761316479626032400,5.297032470703125,0.0022645180579274893,-0.0007259869016706944,0.0015084025217220187
1761316479636015400,5.307015380859375,0.0023131119087338448,-0.0005600322037935257,-0.00029513356275856495
1761316479645997300,5.316997314453125,0.0004350505769252777,-0.002980579389259219,0.0005906338337808847
1761316479655980300,5.326980224609375,-0.002966588828712702,0.00008167605847120285,-0.0005345090758055449
1761316479665962500,5.33696240234375,-0.0005729396943934262,-0.00015135016292333603,-0.0010857833549380302
1761316479675945200,5.3469453125,0.0012567867524921894,0.0005167261697351933,0.00239378260448575
1761316479685927400,5.356927490234375,-0.0017587104812264442,-0.0015397672541439533,-0.0023104252759367228
1761316479695910400,5.366910400390625,-0.0012122555635869503,0.0021174182184040546,0.0004775506677106023
1761316479705893400,5.376893310546875,0.00011213438119739294,-0.0011524106375873089,-0.0013507094699889421
1761316479715875300,5.386875244140625,0.00006687245331704617,-0.0019355127587914467,-0.00024513970129191875
1761316479725858600,5.396858642578125,0.0018378746462985873,-0.0011339015327394009,0.0004049378912895918
1761316479735840300,5.40684033203125,-0.001975453458726406,-0.0007905326783657074,-0.0022342102602124214
1761316479745823500,5.416823486328125,-0.0012276377528905869,0.0017732921987771988,-0.0011849247384816408
1761316479755806500,5.426806396484375,-0.00030072848312556744,0.00033104605972766876,-0.0005588610656559467
1761316479765788400,5.436788330078125,0.0007160664536058903,0.00030334899201989174,-0.0001237005926668644
1761316479775771400,5.446771484375,0.0010555755579844117,-0.000614881981164217,0.0017230920493602753
1761316479785753300,5.45675341796875,0.0003362556453794241,-0.0018580455798655748,-0.0012932042591273785
1761316479795736300,5.466736328125,-0.0005013442714698613,0.0003203260712325573,0.0017126144375652075
1761316479805718500,5.476718505859375,-0.00047311472008004785,-0.0005089822225272655,0.0029376684688031673
1761316479815701200,5.486701171875,0.0013839697930961847,0.0010932828299701214,-0.002725946484133601
1761316479825684200,5.496684326171875,-0.0029362100176513195,-0.00008117081597447395,-0.0007373641710728407
1761316479835666400,5.50666650390625,0.00037625746335834265,0.0003767693415284157,0.002295099198818207
1761316479845649200,5.516649169921875,0.001602376694791019,-0.00016758078709244728,-0.0011851198505610228
1761316479855631400,5.52663134765625,0.0016412123804911971,0.002135608345270157,-0.0011787412222474813
1761316479865614300,5.5366142578125,-0.001646459917537868,0.00009775720536708832,-0.0015571764670312405
1761316479875596300,5.54659619140625,0.0031258980743587017,0.0018340996466577053,0.001757447374984622
1761316479885579800,5.556579833984375,-0.0012283704709261656,0.00022395234555006027,0.0005917816888540983
1761316479895562800,5.566562744140625,0.00028755783569067717,0.001036887988448143,0.0032605703454464674
1761316479905544700,5.576544677734375,-0.0017303192289546132,0.0012997416779398918,0.000790222198702395
1761316479915528000,5.58652783203125,-0.0032893933821469545,0.002079547382891178,-0.0005276275333017111
1761316479925509600,5.596509521484375,-0.0008802978554740548,0.0020505189895629883,0.000026842579245567322
1761316479935492900,5.606492919921875,0.00039442372508347034,-0.0013523637317121029,0.0006421742727980018
1761316479945475800,5.616475830078125,0.0006548808887600899,-0.00045301392674446106,-0.001358658540993929
1761316479955457800,5.626457763671875,-0.00012323400005698204,0.00025436095893383026,-0.0011722352355718613
1761316479965440800,5.636440673828125,-0.0028953184373676777,-0.001855927985161543,0.00021234224550426006
1761316479975422700,5.646422607421875,-0.0016109023708850145,-0.0016561560332775116,-0.001022005919367075
1761316479985405700,5.65640576171875,-0.0003213997697457671,0.00030659371986985207,0.0004307483322918415
1761316479995388000,5.666387939453125,0.000251102726906538,0.0020200456492602825,-0.0012308214791119099
1761316480005370600,5.67637060546875,-0.0008234827546402812,0.0007372009567916393,0.0004429752007126808
1761316480015353600,5.686353515625,-0.001303764176554978,-0.0008187242783606052,-0.00015800376422703266
1761316480025335800,5.696335693359375,-0.00044329685624688864,-0.00162965664640069,-0.002015292178839445
1761316480035318500,5.706318603515625,0.00010741350706666708,-0.0015995129942893982,0.0017362122889608145
1761316480045300700,5.71630078125,-0.0026827803812921047,-0.0008999006822705269,0.0006230109138414264
1761316480055283700,5.72628369140625,-0.0011144466698169708,-0.0006580655463039875,0.0005196287529543042
1761316480065265700,5.736265625,0.0008131492650136352,0.00023222900927066803,-0.0020878720097243786
1761316480075248600,5.74624853515625,-0.003250429406762123,-0.00228297570720315,0.00237651402130723
1761316480085231900,5.75623193359375,0.0027552652172744274,0.002314971759915352,0.00009684823453426361
1761316480095213600,5.766213623046875,0.0004603510024026036,0.002169426064938307,0.0016614166088402271
1761316480105196800,5.77619677734375,-0.0005537807010114193,0.002057040575891733,0.000554606900550425
1761316480115178800,5.7861787109375,0.0010932352161034942,-0.002402861835435033,-0.0012465750332921743
1761316480125161700,5.79616162109375,0.0003472839016467333,0.0007063788361847401,0.0004453312139958143
1761316480135143700,5.806143798828125,0.0007390412501990795,0.0010112724266946316,-0.002068366389721632
1761316480145127000,5.816126953125,-0.00042529270285740495,0.0022674850188195705,0.0003151628188788891
1761316480155109600,5.826109619140625,0.00012590456753969193,0.0000099879689514637,-0.0008708955720067024
1761316480165091800,5.836091796875,0.0017720044124871492,0.0006587337702512741,-0.0013065887615084648
1761316480175074800,5.84607470703125,-0.000940931960940361,-0.000003943219780921936,0.0017019028309732676
1761316480185056800,5.856056884765625,-0.0010543826501816511,0.00109141506254673,-0.0018227908294647932
1761316480195039700,5.866039794921875,0.0017258749576285481,-0.0008660661987960339,0.001409787917509675
1761316480205022700,5.876022705078125,-0.00044433498987928033,0.0015329094603657722,-0.00034869718365371227
1761316480215004700,5.886004638671875,0.0006405651802197099,0.00036374665796756744,0.00030042952857911587
1761316480224987600,5.895987548828125,-0.0006598563631996512,-0.0007169642485678196,0.0005603539757430553
1761316480234969600,5.905969482421875,0.00009212526492774487,-0.0007739043794572353,0.0019099649507552385
1761316480244952600,5.91595263671875,-0.0002524878364056349,0.000976591370999813,-0.0013263083528727293
1761316480254934800,5.925934814453125,-0.00008856761269271374,0.00017335079610347748,-0.00037218816578388214
1761316480264917500,5.93591748046875,-0.0004371753893792629,-0.0005502300336956978,0.0007553942268714309
1761316480274900700,5.945900634765625,-0.0005488156457431614,-0.0008838479407131672,0.0014288686215877533
1761316480284882700,5.955882568359375,-0.0011072804918512702,-0.0027842794079333544,0.0008957036770880222
1761316480294865700,5.96586572265625,0.00032560573890805244,-0.0006259800866246223,-0.0005592284724116325
1761316480304847600,5.97584765625,0.0032846438698470592,-0.000948488712310791,-0.0011603038292378187
1761316480314830800,5.985830810546875,0.0012651517754420638,-0.0013049417175352573,0.0025958328042179346
1761316480324812500,5.9958125,-0.0002808133140206337,0.0002617957070469856,-0.0009949072264134884
1761316480334795800,6.005795654296875,0.0006010185461491346,-0.0011129486374557018,0.003429753938689828
1761316480344778800,6.01577880859375,-0.0003880794392898679,0.0004785563796758652,0.0008198561845347285
1761316480354760700,6.0257607421875,0.001566948601976037,-0.001908028731122613,-0.0013127936981618404
1761316480364743700,6.03574365234375,0.0005458927480503917,-0.001515212468802929,0.0014137506950646639
1761316480374726000,6.045725830078125,0.001774140982888639,-0.0013040644116699696,-0.0011763728689402342
1761316480384708600,6.05570849609375,0.0021120961755514145,-0.0015496080741286278,-0.0004701025318354368
1761316480394690800,6.06569091796875,0.001300046220421791,-0.0015591285191476345,-0.00012131407856941223
1761316480404673800,6.075673828125,0.0012057702988386154,0.0009458409622311592,-0.0000328973401337862
1761316480414656500,6.085656494140625,0.0004999839002266526,0.00001270044595003128,0.0005911007756367326
1761316480424638700,6.095638671875,-0.0002710012486204505,-0.0002701273187994957,-0.0005740320775657892
1761316480434621700,6.10562158203125,0.000386033090762794,-0.00014290167018771172,-0.0023471135646104813
1761316480444603600,6.115603759765625,0.0019551676232367754,0.0026638037525117397,0.0008127270266413689
1761316480454586600,6.125586669921875,0.0009194003650918603,0.0004925243556499481,-0.00014270935207605362
1761316480464569900,6.13556982421875,-0.002582922810688615,0.0011434010230004787,0.00016355421394109726
1761316480474551600,6.145551513671875,0.0000702948309481144,-0.002090315567329526,-0.0009601633064448833
1761316480484534800,6.15553466796875,0.0001419339096173644,-0.0005898908711969852,-0.003110666060820222
1761316480494516700,6.165516845703125,0.0010384010383859277,-0.0007780781015753746,0.0005467382725328207
1761316480504499700,6.175499755859375,0.001038933522067964,-0.0008515813387930393,0.0006511342944577336
1761316480514481700,6.185481689453125,-0.0026782876811921597,0.00011801905930042267,0.0007356686983257532
1761316480524464600,6.195464599609375,-0.00035867432598024607,-0.0014087711460888386,-0.00006381236016750336
1761316480534447600,6.205447509765625,-0.0006196738104335964,0.0008257748559117317,0.0038247080519795418
1761316480544429800,6.215429931640625,-0.0016053097788244486,-0.0009550810791552067,0.00212933961302042
1761316480554412500,6.22541259765625,-0.0018805185100063682,-0.0011554076336324215,0.0039440942928195
1761316480564394800,6.235394775390625,0.0013006273657083511,0.0008233212865889072,0.0008236684370785952
1761316480574377700,6.245377685546875,0.00024186400696635246,0.0004732380621135235,-0.0009396036621183157
1761316480584359700,6.255359619140625,0.0004216274246573448,0.0002495325170457363,0.002478030975908041
1761316480594342700,6.2653427734375,0.0013761910377070308,-0.0012994497083127499,0.000014421530067920685
1761316480604326000,6.275325927734375,-0.001592434593476355,-0.0012238160707056522,-0.0002436388749629259
1761316480614307600,6.2853076171875,-0.00011041795369237661,-0.0007695932872593403,0.00039653480052948
1761316480624290800,6.295290771484375,0.00164114311337471,-0.0019698799587786198,0.0029715453274548054
1761316480634272800,6.305272705078125,0.0002903920831158757,-0.0005516703240573406,-0.00040405686013400555
1761316480644255700,6.315255859375,0.0021223805379122496,0.00042357947677373886,0.0015325939748436213
1761316480654237700,6.32523779296875,-0.001156715676188469,-0.0006052893586456776,-0.0008067090529948473
1761316480664221000,6.335220947265625,0.001044653239659965,-0.0001616068184375763,-0.0007108352147042751
1761316480674203600,6.34520361328125,0.0027939537540078163,0.0009177085012197495,0.0007175796199589968
1761316480684185900,6.355185791015625,0.0027393586933612823,0.0016458169557154179,-0.0015162797644734383
1761316480694168800,6.3651689453125,0.00008923595305532217,-0.0021872969809919596,0.0032366483937948942
1761316480704150800,6.37515087890625,-0.001050596940331161,0.00022659217938780785,0.000784676056355238
1761316480714133800,6.3851337890625,0.0029803679790347815,0.003561158198863268,0.00035337707959115505
1761316480724116700,6.39511669921875,-0.0011816202895715833,0.00016003521159291267,0.00011315988376736641
1761316480734098700,6.4050986328125,-0.00046239374205470085,0.002078619785606861,0.0013191737234592438
1761316480744081700,6.41508154296875,0.0026670871302485466,-0.00046949274837970734,0.00047495169565081596
1761316480754063600,6.425063720703125,0.0015431668143719435,-0.00041863974183797836,-0.00012499326840043068
1761316480764046600,6.435046630859375,0.0011612693779170513,0.0004170602187514305,-0.000056549906730651855
1761316480774028800,6.44502880859375,-0.0006562049966305494,0.0006455439142882824,0.00043045799247920513
1761316480784011500,6.455011474609375,-0.0006319702370092273,0.001043686643242836,-0.0020579996053129435
1761316480793994800,6.464994873046875,0.0014571873471140862,0.00019577937200665474,0.0010197852971032262
1761316480803976700,6.474976806640625,0.000843861373141408,-0.001417296938598156,0.0005460090469568968
1761316480813960000,6.4849599609375,-0.00037144217640161514,-0.0006633549928665161,0.0001716406550258398
1761316480823941600,6.494941650390625,0.00019900687038898468,-0.00008971011266112328,0.00007709837518632412
1761316480833924900,6.5049248046875,0.0029205542523413897,0.0021225190721452236,-0.0007129712030291557
1761316480843906600,6.514906494140625,-0.00016951165162026882,0.00021569570526480675,-0.0005353384185582399
1761316480853889800,6.524889892578125,-0.002174931112676859,-0.0010576569475233555,-0.0004247932229191065
1761316480863872800,6.534872802734375,-0.00008754548616707325,-0.0005463296547532082,0.001974182203412056
1761316480873854700,6.544854736328125,-0.0008992148796096444,0.0007750489749014378,-0.00021555833518505096
1761316480883837700,6.554837646484375,-0.0018963024485856295,0.0010682633146643639,-0.000020881183445453644
1761316480893819400,6.5648193359375,-0.00030346529092639685,0.004765516612678766,0.002117891563102603
1761316480903802400,6.57480224609375,0.0018531626556068659,0.010860426351428032,0.0029701031744480133
1761316480913784300,6.584784423828125,0.0004123279359191656,0.007147044874727726,0.002455242210999131
1761316480923767300,6.594767333984375,-0.0018604137003421783,0.0027408450841903687,0.003736488986760378
1761316480933750300,6.604750244140625,-0.00013740011490881443,0.00020704418420791626,-0.001575386617332697
1761316480943732200,6.614732177734375,-0.0007930704159662127,-0.0059706903994083405,-0.0001029246486723423
1761316480953715200,6.624715087890625,0.00003191712312400341,-0.005914686713367701,-0.0020538242533802986
1761316480963697400,6.634697509765625,0.0006300630047917366,-0.007141871377825737,-0.003903123550117016
1761316480973680400,6.644680419921875,-0.0004267187905497849,-0.004864810034632683,-0.0028729282785207033
1761316480983663400,6.654663330078125,0.0035808058455586433,0.0008583231829106808,-0.0016856908332556486
1761316480993645300,6.664645263671875,0.0010621174005791545,-0.000668305903673172,0.0016365856863558292
1761316481003628300,6.674628173828125,0.001331096631474793,-0.0005524586886167526,-0.0011967513710260391
1761316481013610200,6.6846103515625,0.0012320842361077666,0.001338193193078041,-0.0012422974687069654
