time,seconds_elapsed,z,y,x
1761316508680835800,0.0778359375,-0.0658259326070547,0.02005285454276018,0.004347468319511972
1761316508690818000,0.087818115234375,-0.08497837684452533,-0.03533935320023447,0.04802932342533022
1761316508700801000,0.097801025390625,-0.07480360431075096,-0.08088938136468642,0.07953635018737987
1761316508710783000,0.107782958984375,-0.07106149517297744,-0.10428743641581385,0.08337489630379713
1761316508720766000,0.117765869140625,-0.08168518051803111,-0.10701865147799253,0.06347803604034706
1761316508730749200,0.127749267578125,-0.07884148152470588,-0.08160572207365184,0.03612989622314926
1761316508740731000,0.13773095703125,-0.07719546788334845,-0.03471165888910182,-0.005331698150467128
1761316508750714000,0.147714111328125,-0.0731546680599451,0.00213000689917244,-0.05654780295232776
1761316508760695800,0.15769580078125,-0.06582417904138564,0.03995439098132774,-0.07841481707785278
1761316508770679000,0.167678955078125,-0.07106207969486714,0.06233861108110286,-0.0714734324081568
1761316508780661000,0.177660888671875,-0.07136252394616603,0.06117136653317138,-0.05058753827447071
1761316508790644000,0.18764404296875,-0.06926701297163963,0.03855566663192585,-0.011149261855427176
1761316508800626000,0.1976259765625,-0.07315642162561416,0.0031375947728287425,0.02905529992810916
1761316508810609200,0.207609130859375,-0.07914251029789447,-0.03441634747064672,0.06888566723754629
1761316508820590800,0.2175908203125,-0.07854395988285541,-0.07677250236407854,0.07137705936159472
1761316508830574000,0.227573974609375,-0.07255845573246479,-0.09458918621945195,0.06266824032769072
1761316508840557000,0.23755712890625,-0.08018880448043346,-0.08793797556878999,0.04276774963531643
1761316508850539000,0.2475390625,-0.07135901681482791,-0.062115469849715006,0.007030684088077396
1761316508860522000,0.25752197265625,-0.07285597737431526,-0.016781586920283732,-0.03463352931870613
1761316508870504200,0.267504150390625,-0.07809212446212768,0.029979607132216913,-0.0639667146064341
1761316508880487000,0.27748681640625,-0.07360299634933472,0.059018261886201795,-0.08008043046882375
1761316508890469000,0.28746923828125,-0.06836918734908104,0.06883942607617936,-0.06498781498221215
1761316508900452000,0.2974521484375,-0.06881926920413971,0.045398728326568376,-0.027671777714416382
1761316508910434000,0.30743408203125,-0.0677735595434904,0.002419546163966879,0.025410029627778566
1761316508920416300,0.317416259765625,-0.06972001743614674,-0.0430058327075094,0.05647736806462053
1761316508930398200,0.327398193359375,-0.0906698664844036,-0.08334997192509472,0.08503542252769693
1761316508940381200,0.337381103515625,-0.08348667698204516,-0.0981896675299853,0.08108164340062067
1761316508950364400,0.347364501953125,-0.07959376119673252,-0.09850227714311331,0.057794181717652826
1761316508960346000,0.35734619140625,-0.08034136469364166,-0.05391446334063075,0.013286383481975644
1761316508970329300,0.367329345703125,-0.0751028795182705,-0.011523045337572693,-0.038122851005499246
1761316508980311300,0.377311279296875,-0.07749766570031642,0.025060325707541777,-0.06200196300526149
1761316508990294300,0.387294189453125,-0.08078910846114158,0.044220925852004433,-0.07505584833903703
1761316509000276200,0.397276123046875,-0.07794657851159573,0.0426789845064748,-0.05917317388670053
1761316509010259500,0.407259521484375,-0.08213818498253822,0.02980604979675263,-0.021533622019272298
1761316509020241200,0.4172412109375,-0.07660334720909595,-0.005804046636261046,0.02552010240613017
1761316509030224400,0.427224365234375,-0.07391103938519954,-0.03925757695673965,0.06437885277101305
1761316509040206000,0.4372060546875,-0.07735387331545353,-0.06367733973842114,0.07061932262973859
1761316509050189300,0.447189208984375,-0.08303951773643493,-0.07473530658120289,0.07402737750755622
1761316509060172300,0.45717236328125,-0.07750351091921329,-0.06677652959646657,0.04904503980651498
1761316509070154200,0.467154296875,-0.07480769596397877,-0.052449733683466906,0.010282354244228917
1761316509080137200,0.47713720703125,-0.07435819863080978,-0.021406780769210307,-0.01810737389763817
1761316509090119400,0.487119384765625,-0.0637345132857561,0.0038902032384183255,-0.051762262875959274
1761316509100102100,0.49710205078125,-0.06687748748660087,0.01777816934273578,-0.05126710433673579
1761316509110084400,0.50708447265625,-0.07091594922244548,0.026895386514440178,-0.05512669324118178
1761316509120067300,0.5170673828125,-0.08318681725263595,0.019600279336515813,-0.0210301066436572
1761316509130049300,0.52704931640625,-0.08034487182497978,-0.0032145324665587395,0.01051857643618714
1761316509140032300,0.5370322265625,-0.07361117965579032,-0.02257028072378598,0.03567326132971793
1761316509150015200,0.54701513671875,-0.07256488547325134,-0.031027335220016536,0.05166236443175003
1761316509159997200,0.5569970703125,-0.07765314852297306,-0.038363888653181494,0.05870995855543296
1761316509169980200,0.566980224609375,-0.07885024935305118,-0.04600604656995274,0.045489379451819696
1761316509179962400,0.57696240234375,-0.07600655035972595,-0.042455240486888216,0.019616495252377353
1761316509189945300,0.5869453125,-0.07510814021527766,-0.031776801880449054,-0.009351130958856082
1761316509199927300,0.59692724609375,-0.07914777099490165,-0.023007630961434915,-0.03916781631405465
1761316509209910300,0.60691015625,-0.06059212360680103,-0.011141005483735353,-0.04888417298926506
1761316509219892200,0.616892333984375,-0.05760054057538509,0.017381945699919014,-0.04729203582645859
1761316509229875200,0.626875244140625,-0.07017068381309509,0.025352824114402754,-0.028200199202424846
1761316509239857200,0.636857177734375,-0.06822714852988719,0.020822039683815092,-0.005622538889781571
1761316509249840400,0.64684033203125,-0.06568389378786087,0.009222001853585243,0.018457598407682962
1761316509259823400,0.6568232421875,-0.07735504235923289,-0.014912541645392775,0.04715618928603362
1761316509269805300,0.666805419921875,-0.07286649876832961,-0.03909719876325689,0.05588155302936211
1761316509279788300,0.676788330078125,-0.06718026982545852,-0.04580205756360665,0.047560714966314845
1761316509289770200,0.686770263671875,-0.07795300825238227,-0.029399606154020874,0.02358715244901832
1761316509299753200,0.696753173828125,-0.0692728581905365,-0.001354620346194133,-0.002737964463373646
1761316509309735400,0.7067353515625,-0.05969488250613212,0.026163711239024997,-0.03387951434731949
1761316509319718400,0.716718505859375,-0.07361117965579032,0.028115347630297764,-0.044499902623589146
1761316509329700400,0.726700439453125,-0.07316051327884197,0.0048055371182039374,-0.05092532342805061
1761316509339683300,0.736683349609375,-0.06867021612226963,-0.029123510892689226,-0.03944516281755641
1761316509349665300,0.746665283203125,-0.06911912893354892,-0.05694434168897569,-0.013573981951433233
1761316509359648300,0.756648193359375,-0.06627776802778243,-0.06773566608536057,0.01571663826962467
1761316509369631200,0.76663134765625,-0.07705109097659588,-0.06466490773735567,0.03794117429566104
1761316509379613400,0.776613525390625,-0.07166238367557526,-0.04118112889784388,0.05078735799577552
1761316509389596200,0.78659619140625,-0.06612345424890517,-0.021894208093127233,0.03732888304963708
1761316509399578400,0.796578369140625,-0.08393032909631729,0.004849458458321168,0.02591703386842273
1761316509409561300,0.806561279296875,-0.07749357404708862,0.01800402312101796,0.013248193196323699
1761316509419543300,0.816543212890625,-0.06327800168991088,0.027539575302647425,-0.009924766128347254
1761316509429526300,0.8265263671875,-0.07839315323531627,0.02465198236866854,-0.022411153772473335
1761316509439508200,0.83650830078125,-0.07510112595260143,0.002456891632825136,-0.03897848602072335
1761316509449491200,0.8464912109375,-0.06552315026819705,-0.009620554450806229,-0.037130433301511216
1761316509459474400,0.856474365234375,-0.07569850732386112,-0.03332106304722838,-0.01997271111179143
1761316509469456100,0.8664560546875,-0.06851531782150268,-0.05347704917090013,-0.00911430369541049
1761316509479439400,0.876439453125,-0.07689560815393924,-0.06453986571873538,0.010252020754758269
1761316509489421300,0.88642138671875,-0.07420213128626346,-0.05316778229232877,0.029688848591293206
1761316509499404300,0.896404296875,-0.08422726621627807,-0.04304022816745564,0.04458041138073895
1761316509509386200,0.90638623046875,-0.06746902363896369,-0.022921751909423617,0.03829529409611132
1761316509519369500,0.916369384765625,-0.07270692429244519,0.002416696619754657,0.018701974223344586
1761316509529351200,0.92635107421875,-0.07540157020390033,0.02030892992937006,0.005374244950828142
1761316509539334400,0.93633447265625,-0.07854512892663479,0.026096399890165774,-0.026841569401393643
1761316509549316400,0.94631640625,-0.06941606605350971,0.025895187362795693,-0.038144218020513654
1761316509559299300,0.95629931640625,-0.07330664375126361,0.008019229334546253,-0.036949140184163114
1761316509569281300,0.96628125,-0.07091302661299705,-0.019016396767646073,-0.023946121954522094
1761316509579264500,0.976264404296875,-0.07196224340498447,-0.04016761360689997,-0.002346375896479003
1761316509589247200,0.986247314453125,-0.07510463308393955,-0.06142677519950084,0.018266076157265342
1761316509599229400,0.9962294921875,-0.07645078699588775,-0.061746992730349295,0.03685178075691219
1761316509609212400,1.00621240234375,-0.07046411380171776,-0.056890255147870626,0.04465866424872074
1761316509619194400,1.0161943359375,-0.0550514406144619,-0.025169165510032326,0.037850171543960455
1761316509629177300,1.02617724609375,-0.08557517369389533,0.005176799849700183,0.019629806825099513
1761316509639159300,1.0361591796875,-0.06612111616134643,0.024145119691919535,-0.003952431986783631
1761316509649142300,1.046142333984375,-0.05145604647099972,0.037141288055665786,-0.017497717566695062
1761316509659124500,1.05612451171875,-0.06806523596644401,0.036353252083668484,-0.036763230257201934
1761316509669107200,1.066107177734375,-0.09185819948613642,0.00391305439104326,-0.028665204631979576
1761316509679090200,1.076090087890625,-0.08886953906416893,-0.017464911275636402,-0.01958884462704882
1761316509689072400,1.086072265625,-0.10144085134565829,-0.037992552856449036,0.004162389509612694
1761316509699055000,1.09605517578125,-0.04158522531986236,-0.04231902862028219,0.02227546249567531
1761316509709037300,1.106037353515625,-0.09710194535851478,-0.05869615379236638,0.0304263508192962
1761316509719020300,1.116020263671875,-0.07420856102705001,-0.06598345212317071,0.015886172450520097
1761316509729002200,1.126002197265625,-0.07510580212771892,-0.029368361632386222,0.01760323290093802
1761316509738985200,1.135985107421875,-0.06538052692711353,-0.014023447318561375,0.005187508473382331
1761316509748967400,1.145967529296875,-0.03769464762210846,-0.017426451561925932,-0.03213098104640376
1761316509758950100,1.1559501953125,-0.11700199309289455,-0.004452723358850926,-0.029138270070403812
1761316509768932400,1.165932373046875,-0.02273030272424221,-0.0019221819679252803,-0.023614360116352325
1761316509778915300,1.175915283203125,-0.10727379528284073,0.01337914893249981,0.012767766435351222
1761316509788898300,1.185898193359375,-0.04682137240767479,0.017497315707895904,0.01979347752078902
1761316509798880300,1.19588037109375,-0.08692483473718166,0.0076546886047814035,0.022573952251905574
1761316509808863500,1.205863525390625,-0.08258417518436909,-0.009215919172670691,0.0150922821264714
1761316509818845200,1.21584521484375,-0.05789280152022838,-0.03546223979438655,-0.000932490510563366
1761316509828828400,1.225828369140625,-0.09560498479902743,-0.048859198378212745,-0.012014071124373003
1761316509838810000,1.23581005859375,-0.06687514939904213,-0.05227190203168429,-0.015443707646336405
1761316509848793300,1.24579345703125,-0.08513093705773353,-0.04267817165572196,-0.005986664061015471
1761316509858775300,1.255775390625,-0.07480769596397877,-0.03570005800509825,-0.016735957680270076
1761316509868758300,1.26575830078125,-0.07076923422813415,-0.0204416803304106,-0.00398621552537661
1761316509878740200,1.275740234375,-0.0900730696350336,-0.0014493676912505178,0.014450842417776584
1761316509888723500,1.285723388671875,-0.06193944656252861,0.004232376872748136,0.01806711951906327
1761316509898706200,1.2957060546875,-0.09216682704389095,0.0029111747389659283,0.015242006495199165
1761316509908688400,1.3056884765625,-0.06583177782595158,0.0006340509866829961,0.027442288940632713
1761316509918671600,1.315671630859375,-0.07675532290041447,-0.0017323402179405091,0.011444655472273007
1761316509928653800,1.32565380859375,-0.08064473155438899,-0.01030209784102626,-0.004272686050250195
1761316509938636800,1.33563671875,-0.0719651660144329,-0.024287021513795477,-0.012202191274729556
1761316509948618800,1.34561865234375,-0.07331131992638111,-0.03559615010605194,-0.02029784684635233
1761316509958601700,1.355601806640625,-0.06238952841758728,-0.03247898619989864,-0.015091181581350975
1761316509968583700,1.365583740234375,-0.08019815683066844,-0.0282946771194227,-0.0031170360419899225
1761316509978566700,1.375566650390625,-0.0685275927811861,-0.03348733212538063,-0.0018595285278744994
1761316509988548900,1.385548828125,-0.0749625942647457,-0.04134126962930895,0.007969923999835737
1761316509998531600,1.395531494140625,-0.07915244717001914,-0.042638643362931904,0.004018756954954006
1761316510008514600,1.4055146484375,-0.07466215001344681,-0.04317453120476566,0.008955606002360582
1761316510018496800,1.415496826171875,-0.09247019390463829,-0.018842894231108947,0.001500330693507567
1761316510028479500,1.4254794921875,-0.07556231372356415,-0.006025315570970997,-0.0010006284099072218
1761316510038461700,1.435461669921875,-0.06942717196941375,0.013086997585510834,-0.009004308548872358
1761316510048444700,1.445444580078125,-0.07167465863525867,0.01849598048957996,-0.009377818036382086
1761316510058426600,1.455426513671875,-0.06868307560384274,0.009156937260739505,-0.01630618339430075
1761316510068409600,1.46540966796875,-0.08020692465901375,-0.010163420022698119,-0.00942348380901385
1761316510078391800,1.475391845703125,-0.0740741209924221,-0.03588530577835627,0.00043500758351292456
1761316510088374500,1.48537451171875,-0.07228022331297397,-0.043853471645945684,-0.00044528238235507156
1761316510098356700,1.495356689453125,-0.08515081080198288,-0.051071768994303414,0.007296472584526054
1761316510108339700,1.505339599609375,-0.0667453855395317,-0.04374936281749978,0.020116923621762543
1761316510118322700,1.51532275390625,-0.07362754626870155,-0.03415045394292101,0.027034333760826847
1761316510128304600,1.5253046875,-0.07826514294147491,-0.018415663528675214,0.011217080094362609
1761316510138287900,1.535287841796875,-0.062252750295400616,-0.001458610443631187,0.0073095192957669496
1761316510148269600,1.54526953125,-0.07586860319375992,0.015944642905797807,-0.00874608230437152
1761316510158252800,1.555252685546875,-0.0704839875459671,0.017454536012094467,-0.01346238850285299
1761316510168234500,1.565234375,-0.0754249510794878,0.00797340829828754,-0.01955038947991561
1761316510178217700,1.5752177734375,-0.06031330666542053,-0.00043920426801778375,-0.01636242535987403
1761316510188199700,1.58519970703125,-0.06600128917396068,-0.01666767821703106,-0.013880851376941427
1761316510198182700,1.5951826171875,-0.0048012628018856045,-0.029459108655760062,0.007444160259794444
1761316510208164600,1.60516455078125,-0.18062486269772052,-0.049990010772738604,0.010710025621368548
1761316510218147800,1.61514794921875,-0.07647533691525459,-0.044577703400421886,0.017831310602347366
1761316510228130600,1.625130615234375,-0.04909165542721748,-0.03453980945353396,0.02406242354426067
1761316510238112800,1.63511279296875,-0.11732698726356029,-0.022172897170344368,0.021133192558796143
1761316510248095700,1.645095703125,-0.05163491016924381,0.003764421434281394,0.009150242658471688
1761316510258077700,1.65507763671875,-0.06121113228797912,0.020464403618872164,-0.0063429164530476555
1761316510268060700,1.665060791015625,-0.11388298428952694,0.01734144015959464,-0.018799420415563508
1761316510278042600,1.675042724609375,-0.029188100561499595,0.018308549892390145,-0.03404458241565153
1761316510288025600,1.685025634765625,-0.12809855664670466,-0.001508459201036021,-0.020761518835346212
1761316510298007800,1.6950078125,-0.009286299261450767,-0.025689417391316964,-0.0031039710644399747
1761316510307990800,1.70499072265625,-0.12735095314979553,-0.03789175022994168,0.002828967215074226
1761316510317972700,1.71497265625,-0.10894552788734435,-0.04890470888721756,0.018526877951342613
1761316510327955700,1.724955810546875,-0.018712299254536626,-0.044097847461607304,0.024295122621860354
1761316510337937700,1.734937744140625,-0.13827274465858935,-0.03647401065281592,0.020565402608201836
1761316510347920600,1.744920654296875,-0.05133154330849647,-0.018996057232515885,0.011727034343918785
1761316510357903600,1.754903564453125,-0.051480011868476866,-0.004739997601322829,0.0018094788410700858
1761316510367885600,1.764885498046875,-0.10549743326008319,0.0060502399496734135,-0.005034569234261289
1761316510377868500,1.77486865234375,-0.02409399229288101,0.018881554874218998,-0.018194485925510526
1761316510387850800,1.784850830078125,-0.09202887987792491,0.013002059248415753,-0.022395988169382326
1761316510397833500,1.79483349609375,-0.05626432353556156,0.000018896496715024113,-0.02892895643496886
1761316510407815700,1.804815673828125,-0.07332125679850578,-0.019445362769439815,-0.0155834083779715
1761316510417798700,1.814798583984375,-0.08424538639485836,-0.035872720291418955,0.002436360301449895
1761316510427780600,1.824780517578125,-0.06733925977945328,-0.05148450538050383,0.00934579263003543
1761316510437763600,1.834763671875,-0.0851455501049757,-0.05556676972545683,0.029471822006860746
1761316510447746800,1.844746826171875,-0.07287585111856461,-0.04014706400921568,0.023997212820942512
1761316510457728500,1.854728515625,-0.07137889055907726,-0.021949682873720303,0.029880211011506615
1761316510467711700,1.864711669921875,-0.0770627814143896,-0.020027546571567655,0.012536871155770495
1761316510477693400,1.874693359375,-0.07691314381062984,0.0025479217839892952,-0.0033887473891489207
1761316510487676700,1.8846767578125,-0.08364742050170898,0.007553721581492572,-0.009346276687225326
1761316510497658600,1.89465869140625,-0.0739215607792139,0.003580689764674753,-0.016441134885582142
1761316510507641600,1.9046416015625,-0.07347089440226555,-0.0030911892146803436,-0.014461066984268836
1761316510517623600,1.91462353515625,-0.0718260498046875,-0.014062162760598584,-0.005689425546955317
1761316510527606800,1.924606689453125,-0.07391922269165516,-0.02848113960223272,0.0004772255903109908
1761316510537588500,1.93458837890625,-0.07271978377401829,-0.037632651769183574,0.003665673767542466
1761316510547571700,1.94457177734375,-0.07242050856649875,-0.045557426019618284,0.013093390793679282
1761316510557553700,1.9545537109375,-0.0691290658056736,-0.03444861490558833,0.005485998229612596
1761316510567536600,1.96453662109375,-0.08229834398031234,-0.022852869657985865,0.005967415937851182
1761316510577519600,1.97451953125,-0.07780804682374,-0.003466434001550078,-0.010578873522370122
1761316510587501800,1.984501708984375,-0.07526420755982399,0.003532092249440029,-0.008838409363478421
1761316510597484500,1.994484619140625,-0.07601356462240219,0.010203943829331546,-0.018990216580196284
1761316510607466800,2.004466796875,-0.062247489598393435,0.005789744116272777,-0.008485476873116567
1761316510617449700,2.01444970703125,-0.08664192614257335,-0.0041257655599620194,-0.0010858316084835678
1761316510627431700,2.024431640625,-0.0818558609098196,-0.016265216629672796,0.004779630925389937
1761316510637414700,2.03441455078125,-0.0674906509488821,-0.03067103259563446,0.01663931520564947
1761316510647396600,2.044396728515625,-0.08170505426228046,-0.0351785183490254,0.023005904795229435
1761316510657379600,2.054379638671875,-0.07766542348265647,-0.04648987543098628,0.023003968566469846
1761316510667361800,2.06436181640625,-0.08260346440672874,-0.03466451354543678,0.008170912764919921
1761316510677344500,2.074344482421875,-0.07706862663328647,-0.020485766067309303,-0.006470625352789647
1761316510687326700,2.08432666015625,-0.06973521500527859,-0.006547174887452274,-0.026019612893485464
1761316510697309700,2.094309814453125,-0.06015840836465358,0.004146780948527157,-0.02720770386662334
1761316510707292700,2.104292724609375,-0.05596680189371109,0.010239353069430216,-0.029012798793520776
1761316510717274600,2.114274658203125,-0.13303133687376975,0.007215639600390568,-0.008481070126057602
1761316510727257900,2.1242578125,-0.032925533524155615,-0.004211069223238155,0.007351335443765856
1761316510737239600,2.134239501953125,-0.08979074556231498,-0.020740663276985285,0.021796652303053995
1761316510747222800,2.144222900390625,-0.09038871145546436,-0.03338434667494148,0.0345902153333649
1761316510757204700,2.154204833984375,-0.04400280785560608,-0.03748721541650593,0.020742759335949084
1761316510767187700,2.164187744140625,-0.0993663831591606,-0.0422877384328749,0.021569291554274967
1761316510777169700,2.174169677734375,-0.07751695492267609,-0.04062698388011195,0.004699336797371507
1761316510787152600,2.184152587890625,-0.06300152283608913,-0.01685721857291646,-0.004465190114779398
1761316510797134600,2.194134521484375,-0.09726911861896514,0.0006606832652818411,-0.02158752133070957
1761316510807117800,2.204117919921875,-0.05357727640867233,0.013696626516990364,-0.022364647749625145
1761316510817100800,2.214100830078125,-0.08006430131793021,0.024607997096469623,-0.013825883486424571
1761316510827082800,2.224082763671875,-0.0856026462227106,0.010796877354336902,-0.0012876743235159666
1761316510837065700,2.234065673828125,-0.061361354413628576,-0.00013100596852600574,0.0065307854416547335
1761316510847047700,2.244047607421875,-0.09083937783241272,-0.01675712833246216,0.017088264549546876
1761316510857030700,2.25403076171875,-0.06629822629392147,-0.030991633718973025,0.01448442046039272
1761316510867012900,2.264012939453125,-0.08694996917843818,-0.05028218951919116,0.01018849509845022
1761316510876995600,2.27399560546875,-0.09428162724077702,-0.03773425811328925,0.002450165064516477
1761316510886977800,2.283977783203125,-0.060762219476699825,-0.03834885548083111,-0.0018139312539016826
1761316510896960800,2.293960693359375,-0.08485387368202209,-0.04331011288370937,-0.01453972627762705
1761316510906942700,2.303942626953125,-0.07497662279009819,-0.03381452738628723,-0.01694468222723808
1761316510916925700,2.31392578125,-0.07602291697263718,-0.02822353897881694,-0.006269458491192199
1761316510926909000,2.323908935546875,-0.07946458185911179,-0.027912153208395466,-0.004906837501632981
1761316510936891000,2.333890869140625,-0.07153320433795451,-0.0173226075949613,0.0021027033337159082
1761316510946873900,2.343873779296875,-0.06524959402382373,-0.016745848886622117,0.012936706961202435
1761316510956856000,2.35385595703125,-0.07737023992836475,-0.007665922384848818,0.009454344738158397
1761316510966838800,2.3638388671875,-0.07078676988482475,0.0006172185828909278,0.006083749493630603
1761316510976821000,2.373821044921875,-0.08934241727292537,0.0027335805492009965,0.004023898920952342
1761316510986804000,2.383803955078125,-0.07018938851356506,0.013089901928650215,0.0026509300673147663
1761316510996786000,2.393785888671875,-0.07363046887814999,0.014707191799022256,0.003096212449669838
1761316511006769000,2.403768798828125,-0.07841887219846248,0.015463371328031644,0.00006215568312909454
1761316511016750800,2.413750732421875,-0.0682446841865778,0.006515227112919092,0.015560146233392878
1761316511026733800,2.42373388671875,-0.07198445523679256,-0.003239630375197157,0.0036505629633786156
1761316511036716000,2.433716064453125,-0.0760258395820856,-0.02184158285674639,0.0015115005414932966
1761316511046698800,2.44369873046875,-0.07258534373939036,-0.03418748888452537,-0.006648415905376896
1761316511056682000,2.453681884765625,-0.07722469397783278,-0.0486816681205295,-0.009260703595890664
1761316511066664000,2.463663818359375,-0.06689911479651928,-0.06175454584914259,-0.021710357692511752
1761316511076647000,2.47364697265625,-0.07078852345049381,-0.06086837413175963,-0.030218840981880202
1761316511086628900,2.48362890625,-0.08470306703448295,-0.06741785970730707,-0.018997536803549153
1761316511096612000,2.493612060546875,-0.07706921115517616,-0.05063664724635891,-0.007366441681352444
1761316511106593800,2.50359375,-0.07392448338866234,-0.029129182581650093,0.006579597586020827
1761316511116577000,2.513576904296875,-0.08080605959594249,-0.013496701764408498,0.011197448378708213
1761316511126559000,2.52355908203125,-0.0818517692565918,0.006619399873446672,0.029886585953366008
1761316511136542000,2.5335419921875,-0.07915946143269538,0.029725961164711042,0.03451492617402691
1761316511146524000,2.54352392578125,-0.07332417940795422,0.02810248814872466,0.02561540687361266
1761316511156507100,2.553507080078125,-0.07841244245767592,0.027140282919909803,0.004141602449910715
1761316511166489900,2.56348974609375,-0.08469780633747577,0.00772777210730128,0.000032792591326870025
1761316511176472000,2.57347216796875,-0.08424830900430678,-0.010580184130044653,-0.01644067366127856
1761316511186455000,2.583455078125,-0.08050736891031265,-0.015068682055175303,-0.020344065174832938
1761316511196437000,2.59343701171875,-0.0707803401440382,-0.03951091239699162,-0.021403684629825875
1761316511206420000,2.603419921875,-0.07571838106811046,-0.048634833304118365,-0.007634504333278164
1761316511216402000,2.61340185546875,-0.08349778289794921,-0.04592130002910271,-0.006318133638240396
1761316511226385000,2.623385009765625,-0.06135200206339359,-0.035397385264094916,-0.0005187038115924224
1761316511236367000,2.6333671875,-0.07826046676635742,-0.026008191883750257,0.00911477861944586
1761316511246349800,2.643349853515625,-0.06958090122640133,-0.008825513349287212,0.0035948963865404947
1761316511256332000,2.65333203125,-0.07197510288655758,-0.0006805844089947641,-0.002831529064918868
1761316511266315000,2.66331494140625,-0.09352233330607414,-0.01226963505432941,-0.007420044165267608
1761316511276297700,2.673297607421875,-0.07257365330159664,-0.0023873517942614854,-0.005492784163425676
1761316511286280000,2.683280029296875,-0.07751403231322765,-0.015279265199089422,-0.005453566397889517
1761316511296263000,2.693262939453125,-0.07347440153360367,-0.022710428979992866,-0.01043542363080196
1761316511306244900,2.703244873046875,-0.07437281167805194,-0.016093303262023254,-0.012115124912629834
1761316511316227800,2.713227783203125,-0.07946049020588397,-0.013849506390606984,-0.010338703524367884
1761316511326210000,2.7232099609375,-0.071381228646636,-0.0040241226832382375,-0.0036503529008245095
1761316511336192800,2.73319287109375,-0.07347323248982429,0.005056799332378432,0.0008988850684836506
1761316511346175000,2.743175048828125,-0.06988076095581054,0.0056913435094058515,0.006059793229307979
1761316511356158000,2.753157958984375,-0.07601707175374031,-0.00844432287882082,0.014173418282461351
1761316511366140000,2.763139892578125,-0.07990648040771484,-0.010309742291364818,0.00593053625987377
1761316511376123000,2.773122802734375,-0.0621007746040821,-0.006293848580354824,-0.0001964358875527978
1761316511386104800,2.783104736328125,-0.08424889352619648,-0.02374021955230273,0.0010019207512727006
1761316511396087800,2.793087890625,-0.056118193063139914,-0.03362952620820142,-0.003136462261667475
1761316511406071000,2.803071044921875,-0.08514730367064476,-0.05846190664507448,-0.010849132697959429
1761316511416052700,2.813052734375,-0.116271925252676,-0.08079004004290327,-0.009918258755747228
1761316511426036000,2.823035888671875,-0.07152911268472671,-0.0856147750519216,-0.005914046349376439
1761316511436018000,2.833017822265625,-0.07018237425088882,-0.06200355217414908,0.005043702388787642
1761316511446001000,2.8430009765625,-0.08469605277180671,-0.021584155763266607,0.017994679903937504
1761316511455982800,2.85298291015625,-0.05641454566121101,0.024328604766353963,0.018454178041312844
1761316511465966000,2.862966064453125,-0.07182780337035656,0.03934174810885452,0.018158556095603854
1761316511475947800,2.87294775390625,-0.06958265479207039,0.05907339874007739,0.013816284541017375
1761316511485931000,2.882930908203125,-0.057013096076250075,0.04192825747071765,-0.005438263797480612
1761316511495913000,2.892912841796875,-0.07841127341389656,0.010995596530521288,-0.02486593564660288
1761316511505896000,2.90289599609375,-0.06165303083658218,-0.025443041414814068,-0.03390721520499792
1761316511515879000,2.91287890625,-0.074971362093091,-0.05713212847919203,-0.028855187945859506
1761316511525861000,2.922861083984375,-0.07347673962116241,-0.07852056987411342,-0.01755848044375889
1761316511535843800,2.93284375,-0.07632277670204639,-0.054528028661711136,-0.00023300047169905153
1761316511545826000,2.942825927734375,-0.07303074941933155,-0.02100865743025206,0.02548435067273676
1761316511555809000,2.95280908203125,-0.09338263257443905,0.000008448167936876415,0.043960174290277064
1761316511565791000,2.962791015625,-0.072584174695611,0.02667641000151634,0.04940378098315559
1761316511575774000,2.97277392578125,-0.08186229065060616,0.039272034740354865,0.039125858602160585
1761316511585756000,2.982755859375,-0.07063947036862372,0.0327583785300143,0.01151661559678614
1761316511595739000,2.99273876953125,-0.06824702227413654,0.025199989906558765,-0.02218979807279538
1761316511605721000,3.00272119140625,-0.07917056734859942,0.00018142098151147364,-0.04648305753113236
1761316511615703800,3.012703857421875,-0.06854629748165607,-0.03139919160655699,-0.056853622065065425
1761316511625686000,3.02268603515625,-0.062411740249395366,-0.04816444844654761,-0.04831142373576294
1761316511635669000,3.0326689453125,-0.08874678946733475,-0.0757426935254596,-0.025620905032637527
1761316511645651700,3.042651611328125,-0.07288403442502021,-0.06547296358407474,0.004120545962150208
1761316511655634000,3.052634033203125,-0.06614975773394108,-0.044544677913654594,0.03993649456503335
1761316511665617000,3.062616943359375,-0.07722352493405342,-0.025807847006060182,0.060019278455176385
1761316511675598800,3.072598876953125,-0.06884206555783748,0.007148967572348192,0.04762947392016649
1761316511685581800,3.082581787109375,-0.0682446841865778,0.03763562004440464,0.03392133962847292
1761316511695564000,3.09256396484375,-0.07303191846311093,0.04775521005853079,0.008578561984049157
1761316511705546800,3.102546630859375,-0.0712374362617731,0.038603040304454043,-0.030631349039217454
1761316511715529000,3.112529052734375,-0.08785013288855552,0.017321995673608034,-0.04488361841128208
1761316511725512000,3.122511962890625,-0.07513152109086513,-0.02555858495272696,-0.06503073624190873
1761316511735494000,3.132493896484375,-0.0836591109395027,-0.06365924695930443,-0.06421493548015132
1761316511745476900,3.142476806640625,-0.07303308750689029,-0.07743280203687027,-0.03486947523273993
1761316511755460000,3.152460205078125,-0.06914367885291577,-0.06803295026519335,-0.004275846121716313
1761316511765441800,3.16244189453125,-0.0790191761791706,-0.05189998171306215,0.03660587057129014
1761316511775425000,3.172425048828125,-0.0766232209533453,-0.018495834359107538,0.06310564993084408
1761316511785406700,3.18240673828125,-0.06914250980913639,0.00654943990977481,0.06362734485054389
1761316511795390000,3.192389892578125,-0.07273322777748108,0.021935974008776248,0.043294449523696675
1761316511805372000,3.202371826171875,-0.07782032178342342,0.04079119799849577,0.01582527714271564
1761316511815355000,3.21235498046875,-0.0773725780159235,0.043926326819602395,-0.011240748664317651
1761316511825336800,3.2223369140625,-0.06659867054522037,-0.005021974614169448,-0.026248384714638813
1761316511835320000,3.232320068359375,-0.07632511478960513,-0.12848060563369654,-0.01129574852087535
1761316511845301800,3.2423017578125,-0.05731997006833553,-0.07423790585254318,-0.05409182920153253
1761316511855285000,3.252284912109375,-0.07333236271440982,-0.003940024596359581,-0.06585745568990241
1761316511865268000,3.26226806640625,-0.06480477286577224,0.08240926614203489,-0.05168058964160736
1761316511875250000,3.27225,-0.06884498816728592,0.09799259232161565,-0.014581542425625958
1761316511885233000,3.28223291015625,-0.08291209196448325,0.050555882760882374,0.04292964849902783
1761316511895215000,3.292215087890625,-0.0701917266011238,-0.009305405820719898,0.07392695847353897
1761316511905197800,3.30219775390625,-0.08784779480099678,-0.04830573834707029,0.08679501607874408
1761316511915180000,3.312179931640625,-0.06629939533770084,-0.09486666058711707,0.07843235273454338
1761316511925163300,3.322163330078125,-0.06839432179033755,-0.13002360642515123,0.04669561343642417
1761316511935145200,3.332145263671875,-0.07931845138669014,-0.10481934220227412,-0.016564277208060956
1761316511945128200,3.342128173828125,-0.08186287517249584,-0.0699258696060162,-0.06739365228123496
1761316511955110100,3.352110107421875,-0.06854454391598701,-0.0229707512834575,-0.09566182955279946
1761316511965093000,3.362093017578125,-0.07632745287716389,0.02009737867107615,-0.09056874419748782
1761316511975075300,3.372075439453125,-0.07333645436763762,0.04358013459728099,-0.06349376789901871
1761316511985058000,3.38205810546875,-0.0694470457136631,0.05622016473342664,-0.011928306236793286
1761316511995041000,3.392041015625,-0.09548632685542106,0.04640233414485119,0.04495874317383859
1761316512005023200,3.402023193359375,-0.07408931856155396,0.0059753298162482675,0.06946470010136253
1761316512015006000,3.412005859375,-0.08366554068028927,-0.000013928060652688144,0.07694081726884469
1761316512024988200,3.42198828125,-0.07558511007726192,-0.01598978808862157,0.06577413848773576
1761316512034971100,3.43197119140625,-0.06645896981358528,-0.0460306056224741,0.025073281087237408
1761316512044953000,3.441953125,-0.077533906057477,-0.06927475788667797,-0.02039495967843104
1761316512054936000,3.45193603515625,-0.07095102053582668,-0.0890587597596459,-0.061212520527467125
1761316512064918300,3.461918212890625,-0.08501753981113433,-0.07303811074187978,-0.07131467078302521
1761316512074901000,3.47190087890625,-0.07738485297560692,-0.034834910809434946,-0.058851942575699645
1761316512084883200,3.48188330078125,-0.06167290458083152,-0.004461819980759173,-0.03605171185382642
1761316512094866200,3.4918662109375,-0.08082710238397121,0.012648734032409265,0.004172527311136946
1761316512104849200,3.50184912109375,-0.0782832631200552,0.026348146161530164,0.026570159448334015
1761316512114831000,3.5118310546875,-0.05838087729811668,0.04869947777185589,0.03781924211615696
1761316512124814300,3.521814453125,-0.08681202201247215,0.07655027444814332,0.04452127877175808
1761316512134796000,3.531796142578125,-0.06870645647943019,0.06178440213128924,0.07303491870437283
1761316512144779300,3.541779296875,-0.06586451105177402,-0.003804159789625555,0.08081020604809745
1761316512154761000,3.551760986328125,-0.08771277024447917,-0.06401614323873073,0.04934967617574148
1761316512164744200,3.561744140625,-0.068710548132658,-0.13470348047022707,-0.004879771398194134
1761316512174726100,3.57172607421875,-0.06811316676139831,-0.1459850817347411,-0.06390690614401828
1761316512184709000,3.581709228515625,-0.09475099831819533,-0.09183501953994855,-0.08596100380686111
1761316512194691000,3.591691162109375,-0.05988543664216995,-0.016318188925925643,-0.08922044399422593
1761316512204674300,3.60167431640625,-0.07634732662141322,0.039640530126029624,-0.06736440335386433
1761316512214656000,3.611656005859375,-0.08622223942577839,0.0649604383515194,-0.02354557832961436
1761316512224639200,3.62163916015625,-0.061382981723546975,0.06496773574198596,0.01757060470639262
1761316512234622200,3.631622314453125,-0.08382686872184276,0.029201599363889545,0.060889969475637185
1761316512244604200,3.641604248046875,-0.06153261932730674,-0.012996670687245204,0.0733790696666576
1761316512254587100,3.651587158203125,-0.08742050929963588,-0.053915787648037075,0.07364400421315803
1761316512264569300,3.6615693359375,-0.0630289953649044,-0.06381437358893453,0.04406678560306318
1761316512274552000,3.671552001953125,-0.08637246155142783,-0.041765321993967514,0.0008609459445811807
1761316512284534300,3.6815341796875,-0.07754442745149136,-0.012173654733411967,-0.038993870819523
1761316512294517200,3.691517333984375,-0.043429391881823536,0.002224160589184612,-0.06909445571659598
1761316512304499200,3.701499267578125,-0.09819792390167713,-0.009891672142921014,-0.06891437274222262
1761316512314482200,3.711482177734375,-0.06497837586700916,-0.03337414494133554,-0.05110873543724883
1761316512324464000,3.721464111328125,-0.07246084057688712,-0.05102733619753271,-0.021873503231815992
1761316512334447000,3.731447021484375,-0.09386077148020266,-0.04765582307097502,0.015255952822160907
1761316512344430300,3.741430419921875,-0.061686348584294316,-0.030564987538428977,0.043660109064891
1761316512354412000,3.751412109375,-0.07949322343170642,0.0031185704119503495,0.054607975729857566
1761316512364395300,3.761395263671875,-0.05345686489939689,0.05072648095428012,0.026549025328760033
1761316512374377200,3.771377197265625,-0.09341010510325432,0.04746670284019783,-0.02290986510880757
1761316512384360200,3.781360107421875,-0.08143792775869368,0.01695508945682086,-0.015446337994839994
1761316512394342100,3.791342041015625,-0.04312953215241432,-0.02008271995806135,0.00033706363437231626
1761316512404325000,3.8013251953125,-0.10163725070059298,-0.05737857752093114,0.024789052751800045
1761316512414307000,3.81130712890625,-0.11301204667389392,-0.07126235150732099,0.03752356993809808
1761316512424290300,3.821290283203125,-0.004825228199362755,-0.06881364318095147,0.025059563089138828
1761316512434272300,3.831272216796875,-0.115557639503479,-0.03264850668106228,0.03792858424214646
1761316512444255200,3.841255126953125,-0.08323474804759025,0.008677126987697556,0.047080575899709945
1761316512454238200,3.85123828125,-0.023678981751203535,0.049545947666512796,0.043090652313595636
1761316512464220200,3.86122021484375,-0.13306290105581284,0.06290439173770136,0.005786378548829816
1761316512474203100,3.871203125,-0.024724691411852837,0.008201654963055626,-0.07281079109229613
1761316512484185300,3.881185302734375,-0.08024024240672588,-0.01672357312273234,-0.10503807212002575
1761316512494168300,3.891168212890625,-0.08068857069611549,-0.03396379966386594,-0.10787128625195473
1761316512504150300,3.901150390625,-0.02038520090281963,-0.06940700596421956,-0.07083696113552432
1761316512514133200,3.91113330078125,-0.12692717477977275,-0.054161040246533225,-0.011766813798458314
1761316512524115200,3.921115234375,-0.048968321308493615,-0.047406204824615265,0.038510192655539136
1761316512534098200,3.93109814453125,-0.07171499064564704,-0.031424389979895204,0.07497193291524891
1761316512544080400,3.941080322265625,-0.10238894585072994,-0.00806724232789129,0.09819584154244512
1761316512554063000,3.95106298828125,-0.04058803097605705,-0.019166016105096786,0.08438934317650273
1761316512564045300,3.96104541015625,-0.0996931308954954,-0.043371131489099934,0.0316829815505771
1761316512574028300,3.9710283203125,-0.0589899491071701,-0.047673440926056354,-0.026949929713271557
1761316512584011000,3.981010986328125,-0.07185702946484089,-0.02713163382257335,-0.055592593719880096
1761316512593993200,3.9909931640625,-0.08861468752026558,-0.0010225662470795213,-0.07284258816977962
1761316512603976200,4.00097607421875,-0.054797173592448234,0.012001494770590215,-0.07400276822268496
1761316512613958100,4.010958251953125,-0.08876257155835628,0.030876866499194872,-0.03999459969413001
1761316512623941000,4.020941162109375,-0.0809802471190691,0.028272967611113562,-0.005445675352378748
1761316512633923000,4.030923095703125,-0.09085749801099299,0.016242858667392283,0.03214175360216759
1761316512643906000,4.040906005859375,-0.1043254668712616,0.0008644348096102475,0.06099944403236732
1761316512653888300,4.05088818359375,-0.05614274298250675,-0.013736310073407367,0.07251302285527345
1761316512663871200,4.060871337890625,-0.08681728270947933,-0.03296786569538526,0.05090910751218907
1761316512673853200,4.070853271484375,-0.06975684231519699,-0.032039736266108225,0.02764221825979184
1761316512683836200,4.080836181640625,-0.07499415844678878,-0.022576153342146424,-0.008100761005003005
1761316512693819400,4.0908193359375,-0.07185176876783371,-0.012293828780669718,-0.04344948025520425
1761316512703801000,4.100801025390625,-0.06766191586256026,-0.011501134899863973,-0.06945148442676291
1761316512713784300,4.110784423828125,-0.07918342683017253,-0.008580361215490847,-0.0621488926287042
1761316512723766000,4.12076611328125,-0.07858604545891285,-0.021552838176395743,-0.04265678637439851
1761316512733749200,4.130749267578125,-0.08876023347079753,-0.037406670126738026,-0.010834172590845265
1761316512743731200,4.140731201171875,-0.060330842322111125,-0.03841436759824864,0.02927971523455344
1761316512753714200,4.150714111328125,-0.09818974059522151,-0.038119713766919444,0.05657772773313336
1761316512763696000,4.160696044921875,-0.07020692417025566,-0.0338521925155539,0.07248542246229481
1761316512773679400,4.170679443359375,-0.0721522130191326,-0.02039524737279862,0.06673213333231397
1761316512783661000,4.1806611328125,-0.08068097191154956,-0.0002243285414762795,0.03483744069323875
1761316512793644300,4.190644287109375,-0.05494388858675956,0.012195866565220058,0.004579683339921758
1761316512803626000,4.2006259765625,-0.09953355641961097,0.027435749601991844,-0.040049398621288125
1761316512813609200,4.210609130859375,-0.05718669907748699,0.022967308084201065,-0.06180273237242363
1761316512823592200,4.22059228515625,-0.09055413115024566,0.009682623368967323,-0.07632854885570704
1761316512833574100,4.23057421875,-0.0781347945600748,-0.007066997510474174,-0.05482973785491194
1761316512843557000,4.24055712890625,-0.06511749207675456,-0.02835032542995177,-0.026911296469625083
1761316512853539300,4.250539306640625,-0.0989350060045719,-0.05999179222662933,0.00786696594886016
1761316512863522300,4.260522216796875,-0.07514379605054855,-0.06278377016587182,0.047254539660550654
1761316512873504300,4.270504150390625,-0.08277472932040691,-0.059813604381820186,0.0508595738486154
1761316512883487200,4.2804873046875,-0.07993044580519199,-0.0434230352062732,0.046930929162795655
1761316512893469200,4.29046923828125,-0.0612251608133316,-0.02578428346738219,0.0346048238140298
1761316512903452200,4.3004521484375,-0.07439326994419097,-0.007483094897540286,0.00920898710838519
1761316512913434400,4.310434326171875,-0.073494275277853,0.013451565714739263,-0.012966389713413082
1761316512923416800,4.320416748046875,-0.08172258991897105,0.01858150334856473,-0.029923241869057527
1761316512933399800,4.33039990234375,-0.07154606381952762,0.0157751315577887,-0.03813852349866647
1761316512943381800,4.3403818359375,-0.07184592354893685,-0.007995455733314156,-0.040737654880085024
1761316512953364700,4.35036474609375,-0.065560559669137,-0.021656280284561215,-0.02180278064974118
1761316512963346700,4.3603466796875,-0.06436112075150012,-0.028117941446183247,-0.0018363759811501948
1761316512973329700,4.37032958984375,-0.07393734287023544,-0.027400194231420753,0.012762551404116675
1761316512983312000,4.380311767578125,-0.07633212905228137,-0.013905172967445105,0.02489272775540594
1761316512993294600,4.390294677734375,-0.07842530193924903,-0.012528824846632779,0.0332782011530362
1761316513003276800,4.40027685546875,-0.07139116551876068,-0.018942025490337983,0.0279736467378214
1761316513013259800,4.410259765625,-0.06989303591549396,-0.007986989299068227,0.016973163969628512
1761316513023241700,4.42024169921875,-0.07034136420488357,-0.012381388333113863,0.0037763402009382842
1761316513033224700,4.430224609375,-0.07288344990313053,-0.01476290404163301,-0.014569244633056222
1761316513043206700,4.44020654296875,-0.07572481080889701,-0.015078299266891554,-0.03216111132318619
1761316513053189600,4.450189697265625,-0.07048691015541553,-0.012921988882683217,-0.03271319681457244
1761316513063172900,4.4601728515625,-0.07467734758257866,-0.017250894065620376,-0.03674695954241324
1761316513073154600,4.470154541015625,-0.07796820582151412,-0.024268380745407193,-0.020370067265769464
1761316513083137800,4.4801376953125,-0.07557341963946819,-0.033929632532782854,0.013097550945566035
1761316513093119700,4.49011962890625,-0.07602350149452686,-0.043734795436030253,0.03511113393492996
1761316513103102700,4.500102783203125,-0.0776730222672224,-0.04365874365828931,0.04299132012496702
1761316513113084700,4.510084716796875,-0.08410685470700263,-0.024404209019523112,0.03742674023380969
1761316513123068000,4.52006787109375,-0.0713859048217535,-0.005926385241141543,0.016141699847858397
1761316513133049600,4.530049560546875,-0.07303191846311093,0.0050327152038924395,0.0008344323969911784
1761316513143032800,4.54003271484375,-0.07811901246905327,0.020773012910317627,-0.02779196089482866
1761316513153014800,4.550014892578125,-0.07901683809161186,0.023066348011884837,-0.03502255603575613
1761316513162997800,4.559997802734375,-0.06764204211831093,0.010222401934629305,-0.02781713186870329
1761316513172980700,4.569980712890625,-0.07138239769041538,-0.016580666653858496,-0.024086562471673824
1761316513182963000,4.579962890625,-0.07691840450763703,-0.03812554071950726,0.003069096113881096
1761316513192945700,4.589945556640625,-0.08649521114826202,-0.061786036965949455,0.02550366729456
1761316513202927900,4.599927978515625,-0.06943593979775906,-0.0633633327526506,0.03769765699652489
1761316513212910800,4.609910888671875,-0.07227905426919459,-0.04821893684645183,0.031170387819362804
1761316513222892800,4.619892822265625,-0.08035890035033226,-0.022609836416039614,0.010411307536275125
1761316513232875800,4.629875732421875,-0.08395078736245631,-0.009259639583388343,-0.005715500703128054
1761316513242857700,4.639857666015625,-0.0680874477982521,0.0147282437202055,-0.010017303250008262
1761316513252840700,4.6498408203125,-0.0763181005269289,0.022410249590175225,-0.028738580395444295
1761316513262823000,4.659822998046875,-0.07287585111856461,0.013540687036607414,-0.027698391726706174
1761316513272805600,4.6698056640625,-0.07512041517496108,-0.00696749179190956,-0.017767638815566898
1761316513282787800,4.679787841796875,-0.07811550533771515,-0.02669419225337915,-0.009713721760129556
1761316513292770800,4.689770751953125,-0.08395254092812537,-0.026759211180452255,0.007792877799342386
1761316513302753800,4.69975390625,-0.07138415125608444,-0.024907254037680102,0.015300508916517718
1761316513312735700,4.70973583984375,-0.07617197005450725,-0.01764414030006155,0.02452370264676865
1761316513322719000,4.719718994140625,-0.08260580249428749,-0.011718577042827381,0.021031019959109835
1761316513332700700,4.72970068359375,-0.06285422331988812,-0.009874803206510841,0.010441218617348931
1761316513342684000,4.739683837890625,-0.07213175475299358,-0.008966748450882732,-0.0054469128948170685
1761316513352665900,4.749665771484375,-0.08096154241859913,-0.010703664379240944,-0.005014001370267942
1761316513362648800,4.75964892578125,-0.07811901246905327,-0.015873002441693096,-0.005029710396053269
1761316513372630800,4.769630859375,-0.07557692677080631,-0.025625010385597124,-0.01357918328293599
1761316513382614000,4.779614013671875,-0.08336042025387287,-0.019646036440692842,-0.022466212994535453
1761316513392595700,4.789595703125,-0.07932078947424888,-0.02845808752020821,-0.027354158566030674
1761316513402579000,4.799578857421875,-0.08036825270056724,-0.028768094184296204,-0.0186900919893058
1761316513412562000,4.80956201171875,-0.07797463556230068,-0.02057848585206084,0.004885730781522579
1761316513422544000,4.8195439453125,-0.08321253621578216,-0.017547593723563477,0.007585107667022384
1761316513432526800,4.82952685546875,-0.07707739446163177,-0.021743931168550622,0.014572546268417499
1761316513442508800,4.8395087890625,-0.07139116551876068,-0.01519207097282633,0.027613001298462038
1761316513452491800,4.84949169921875,-0.07991992441117764,-0.010267263989662751,0.017371547603490762
1761316513462474000,4.859473876953125,-0.07512976752519607,-0.007188048340566456,0.0090898222747026
1761316513472456700,4.869456787109375,-0.0836596954613924,0.009641204513190314,-0.013251335001480765
1761316513482439000,4.87943896484375,-0.0727361503869295,0.009555051466543226,-0.027288792579085563
1761316513492422000,4.889421875,-0.06675123075842856,0.0003226378167979419,-0.030163603663304818
1761316513502403800,4.89940380859375,-0.06765022542476654,-0.014940799625497311,-0.027638816159730774
1761316513512386800,4.90938671875,-0.08007190010249614,-0.029130506889056412,-0.012768793915235437
1761316513522369000,4.919369140625,-0.07752747631669044,-0.044570588673045856,0.0003169158954871818
1761316513532351700,4.929351806640625,-0.08141980758011341,-0.046853183184890075,0.018713646394829263
1761316513542334700,4.939334716796875,-0.07468611541092396,-0.04488863251311704,0.031020330090494826
1761316513552317000,4.94931689453125,-0.0800742381900549,-0.027179034894565118,0.031116009017312898
1761316513562299600,4.959299560546875,-0.08022504483759403,-0.013930124745611101,0.017926898197620174
1761316513572281900,4.96928173828125,-0.07408873403966426,0.003944381111068651,-0.015354969916958361
1761316513582264800,4.979264892578125,-0.07154489477574826,0.019063925703801214,-0.021164738474530168
1761316513592246800,4.989246826171875,-0.07902677496373653,0.011733573682559654,-0.02042691658611875
1761316513602229800,4.999229736328125,-0.06750409495234488,0.0013439710880164056,-0.025937784395506605
1761316513612211700,5.009211669921875,-0.06630757864415646,-0.0145858030422125,-0.005039880163618363
1761316513622194700,5.019194580078125,-0.08590952021479606,-0.025363318108953533,-0.0046483007298782466
1761316513632177000,5.029177001953125,-0.07543547247350216,-0.031786574355792255,0.009215850674011743
1761316513642159600,5.03915966796875,-0.06630757864415646,-0.028318943910999223,0.02493758524386212
1761316513652142800,5.049142822265625,-0.07543605699539184,-0.017075446167169137,0.02127532727611251
1761316513662124800,5.059124755859375,-0.07812894934117794,-0.013220378174213692,0.014520596885471604
1761316513672107800,5.069107666015625,-0.08710662104487418,-0.012378995446627959,0.01588738259349484
1761316513682089700,5.07908984375,-0.08560966048538685,-0.0013585476026404648,-0.004906042917189188
1761316513692073000,5.089072998046875,-0.06899871742427349,-0.009557343888329342,-0.0070470826670294626
1761316513702054700,5.0990546875,-0.07139175004065036,-0.017866907072113827,-0.0010836853171698748
1761316513712038000,5.109037841796875,-0.07842530193924903,-0.023670670580584554,-0.01164439299518708
1761316513722019800,5.119019775390625,-0.07737959227859974,-0.02837303958525881,-0.011953395012277178
1761316513732002800,5.1290029296875,-0.07648468926548957,-0.018929348671855403,-0.013833381806290708
1761316513741984800,5.13898486328125,-0.06825520558059216,-0.019787518137460575,-0.0030910385176306588
1761316513751968000,5.148968017578125,-0.08037877409458159,-0.017468272276502102,0.006954728208458982
1761316513761950700,5.15895068359375,-0.08426993631422519,-0.012300815643882378,0.015268743805075063
1761316513771933000,5.168932861328125,-0.07753507510125636,-0.007722310480894521,0.006634236682974733
1761316513781916000,5.178916015625,-0.07185059972405433,-0.008978137494577095,0.0058831443210365245
1761316513791897900,5.18889794921875,-0.07259761869907379,-0.007385013951081782,0.010338164668250828
1761316513801880800,5.198880859375,-0.07559095529615878,-0.0069837944727391,0.0027361971979727967
1761316513811862800,5.20886279296875,-0.0688584321707487,-0.011663321457942947,-0.004296231322619132
1761316513821845800,5.218845703125,-0.06556640488803386,-0.012801723503880202,-0.012485437796055338
1761316513831828000,5.228827880859375,-0.07873451401889324,-0.01173618576475419,-0.020870052677160127
1761316513841810700,5.238810791015625,-0.08053191882967949,-0.013289570952905342,-0.011091371355461887
1761316513851793000,5.24879296875,-0.08711538887321948,-0.02469883545138873,-0.000006744834617711603
1761316513861776000,5.25877587890625,-0.07679039421379566,-0.0367202770314645,0.004167184415739029
1761316513871757800,5.2687578125,-0.06915829190015793,-0.02904847289510071,0.017781968735018742
1761316513881740800,5.27874072265625,-0.07020750869214534,-0.035542200562264765,0.026328920871252194
1761316513891723800,5.288723876953125,-0.07739303628206252,-0.023262108046002684,0.020545181804080492
1761316513901705700,5.298705810546875,-0.07380231831371784,-0.007498913521179929,0.01398322947260458
1761316513911688700,5.308688720703125,-0.0788888277977705,-0.0018799776608590035,0.0047937918814830475
1761316513921671200,5.318671142578125,-0.071703884729743,0.0067987019631080324,-0.012981432018917985
1761316513931654000,5.32865380859375,-0.06392506742179394,0.012955251831468194,-0.01973953711015638
1761316513941636000,5.338635986328125,-0.08921382245719432,0.0022200598028022794,-0.01903359906419646
1761316513951619000,5.348619140625,-0.07754442745149136,-0.009752035343367606,-0.013737616114504634
1761316513961601000,5.35860107421875,-0.07186229016184806,-0.024336897670663892,-0.007939857655134983
1761316513971584000,5.368583984375,-0.07291209147572517,-0.030357217406108975,0.0004177870206534862
1761316513981566000,5.37856591796875,-0.06887070713043213,-0.030636253543198107,0.001546635786956176
1761316513991549000,5.388548828125,-0.08054302474558353,-0.02825817190078087,0.010082239978690632
1761316514001531100,5.39853125,-0.08084288447499274,-0.019536721714166923,0.005911329235904849
1761316514011513900,5.408513916015625,-0.06782382842600346,-0.004167641073465347,-0.005748361793113872
1761316514021497000,5.4184970703125,-0.07365911045074462,-0.011349908127216621,-0.0022288139314157887
1761316514031479000,5.42847900390625,-0.07695172225534916,-0.01071524521918036,-0.00495098717061337
1761316514041462000,5.4384619140625,-0.07306231360137462,-0.00300029606083408,-0.0014132323653670027
1761316514051444000,5.44844384765625,-0.07291267599761486,-0.00854872396821156,-0.0017465011740336195
1761316514061427200,5.45842724609375,-0.07560615286529064,-0.018421718810126185,0.000044122269516810774
1761316514071409000,5.468408935546875,-0.08129296633005141,-0.013769865283137186,0.004696300023491494
1761316514081392000,5.47839208984375,-0.06632979047596455,-0.01817666714102961,0.0025093159398064018
1761316514091374000,5.4883740234375,-0.07994622789621353,-0.017343120660027488,0.0016055126676103098
1761316514101357000,5.498357177734375,-0.08114274420440197,-0.016921561646554617,0.0037614166264422237
1761316514111339000,5.508339111328125,-0.07680208465158939,-0.010986682571703568,0.0035223974059103054
1761316514121322200,5.518322265625,-0.09071955084502696,-0.017642478065937755,-0.00009449161672964691
1761316514131305000,5.528304931640625,-0.08338730826079845,-0.01851656661988236,0.0018085609590401872
1761316514141287200,5.538287109375,-0.06812544172108173,-0.005810375912347808,0.004268790759844705
1761316514151270100,5.548270263671875,-0.06318798531889915,-0.0048577604957856235,0.0010800777211319654
1761316514161252000,5.558252197265625,-0.08488660690784454,-0.009873086173459887,-0.01034338426606264
1761316514171235000,5.568235107421875,-0.08144669558703899,-0.013641644926741718,0.0013017804806819185
1761316514181217000,5.578217041015625,-0.08413549627959728,-0.01474111233493313,-0.009295299985236488
1761316514191200000,5.588199951171875,-0.07769991027414798,-0.015530691810045391,-0.002792804489727132
1761316514201182200,5.59818212890625,-0.07171206803619862,-0.022291728643886743,0.0022263571128482
1761316514211165000,5.6081650390625,-0.08278583523631096,-0.027000372125720602,0.0023418321521021424
1761316514221147100,5.618147216796875,-0.07964344555735588,-0.02185570271364413,0.0061569517271593205
1761316514231130000,5.628130126953125,-0.0775508571922779,-0.01671290559824556,0.0074906982486834745
1761316514241112000,5.638112060546875,-0.08039455618560314,-0.008465877123503013,0.002480414072307758
1761316514251095000,5.648094970703125,-0.06722761609852314,0.0031456410819664595,-0.00642670857924968
1761316514261078000,5.658078125,-0.07366203306019306,0.010039948906656354,-0.00591122877120506
1761316514271060000,5.66806005859375,-0.06962474036812782,0.0012811075854115188,-0.010538984469976276
1761316514281043000,5.67804296875,-0.06543605650663376,-0.008049496608646586,-0.0014896083700936286
1761316514291025200,5.688025146484375,-0.0796510443419218,-0.019596635207859796,-0.0030430711900582535
1761316514301008000,5.6980078125,-0.07905249392688274,-0.023314139627339317,0.007911065385490655
1761316514310990000,5.707989990234375,-0.07441197464466094,-0.03329770043794997,0.011441344703757203
1761316514320973000,5.71797314453125,-0.06363689813017845,-0.02958810533029027,0.013053734636725857
1761316514330955000,5.727955078125,-0.06408581094145774,-0.020611374341510235,0.002225717792031355
1761316514340938000,5.73793798828125,-0.07216624154448509,-0.019841896939510478,-0.0016062707194359972
1761316514350920000,5.747919921875,-0.07800035452544689,-0.012865756050264462,-0.0007329995828215032
1761316514360903000,5.75790283203125,-0.07276420743763447,-0.006028018984710798,-0.001542101175733842
1761316514370886100,5.76788623046875,-0.06842588597238064,-0.0024952874144539236,-0.00445481485123746
1761316514380867800,5.777867919921875,-0.0733639268964529,-0.006831526520475745,-0.003148390161478892
1761316514390851000,5.78785107421875,-0.0718693044245243,-0.00846300931298174,0.0000890482566319406
1761316514400833000,5.7978330078125,-0.07561024451851844,-0.02400504450094886,0.0016467488602967932
1761316514410816000,5.80781591796875,-0.06962590941190719,-0.027651410779822617,0.004696432454232126
1761316514420798000,5.8177978515625,-0.06708265466988086,-0.019720827843109145,-0.0004873222926398739
1761316514430781200,5.82778125,-0.06977613153755664,-0.020296718901768325,-0.0018354809320066123
1761316514440763000,5.837762939453125,-0.06917758112251758,-0.015197815727023407,-0.0026389793346170334
1761316514450746000,5.84774609375,-0.07650807014107704,-0.017001860341150313,0.00490276868129149
1761316514460727800,5.857727783203125,-0.07127075400948524,-0.009967239863472059,0.0024212540638633073
1761316514470711000,5.8677109375,-0.07501344766914844,-0.00284894142402336,0.0015201724717160685
1761316514480693000,5.87769287109375,-0.07426642869412899,-0.011036129470309242,-0.0020139108054107054
1761316514490676200,5.88767626953125,-0.08070259922146797,-0.012262127601308747,-0.004306798382406123
1761316514500659000,5.897658935546875,-0.07636661584377288,-0.009652392627485096,-0.0027726658839965237
1761316514510641200,5.90764111328125,-0.07756430119574069,-0.01945035860496573,-0.004397723502293229
1761316514520624000,5.9176240234375,-0.07173077273666859,-0.014032206013752147,-0.0006110674033174291
1761316514530606000,5.927606201171875,-0.07951251265406609,-0.019076876516919583,0.0027523948475252835
1761316514540589000,5.937589111328125,-0.07921265292465686,-0.02043048308296129,0.0056165703732986
1761316514550571000,5.947571044921875,-0.07233049219548701,-0.008434093745751306,0.002539560381020419
1761316514560554000,5.957553955078125,-0.07278115857243538,-0.0038350663845427334,-0.0011472612058278174
1761316514570536200,5.9675361328125,-0.07352876206934451,-0.008127585079846903,0.005699271087534726
1761316514580519000,5.977518798828125,-0.07936521313786506,-0.0007736421204637736,-0.002299678077385761
1761316514590501000,5.987501220703125,-0.07831658086776733,0.00502532648188062,-0.008462671386264263
1761316514600484000,5.997484130859375,-0.0726321054905653,-0.006981017993763089,-0.010710048454254864
1761316514610466000,6.007466064453125,-0.06784487121403217,-0.005915626385109498,-0.010869517898862249
1761316514620449000,6.017448974609375,-0.07667290531396866,-0.01939584280559793,-0.003835810736636631
1761316514630432300,6.027432373046875,-0.06515022530257701,-0.020337964227609334,0.004394965289626271
1761316514640414000,6.0374140625,-0.07233458384871483,-0.026485517938761038,0.012233787422813475
1761316514650397200,6.047397216796875,-0.07817103491723537,-0.03214905099263415,0.0012749153066426515
1761316514660379000,6.05737890625,-0.077123571690917,-0.012652250296901911,0.010751668239431455
1761316514670362000,6.067362060546875,-0.07293313426375389,-0.017600456421962007,0.006635602089576423
1761316514680344000,6.077343994140625,-0.0780219818353653,-0.012288385420572012,-0.004385886934027076
1761316514690327000,6.0873271484375,-0.06934300081729888,-0.007947141345869749,-0.0003224505871301517
1761316514700309000,6.09730908203125,-0.08266074755191803,-0.003698206063965335,0.0008303772763814777
1761316514710292200,6.107292236328125,-0.07622808415591717,-0.010603610671404749,-0.0019049111727159468
1761316514720274000,6.11727392578125,-0.07622983772158622,-0.016161765388352796,-0.009095142337214202
1761316514730257200,6.127257080078125,-0.08161737597882747,-0.016115158900804817,0.005392990750493481
1761316514740240100,6.137240234375,-0.07518412806093693,-0.017789658851129934,0.0032144822342088444
1761316514750222000,6.14722216796875,-0.07982347829937934,-0.014685454891249537,0.00042903906702995297
1761316514760205000,6.157205078125,-0.06620411826968192,-0.008855031704716384,-0.004229646059544756
1761316514770187300,6.167187255859375,-0.06126724638938903,-0.017978404622571543,0.0014116751625202594
1761316514780170000,6.177169921875,-0.06381225469708442,-0.019567518711229786,-0.001396075734589249
1761316514790152200,6.187152099609375,-0.08087386413514613,-0.010734625773085281,0.0030929153808858245
1761316514800135200,6.19713525390625,-0.08326865031719208,-0.017882259904872626,-0.004573605225584469
1761316514810117000,6.2071171875,-0.07234393619894981,-0.011523556794226168,0.005718363947072066
1761316514820100000,6.21710009765625,-0.07743219924867152,-0.020485994396172463,-0.0080660504512256
1761316514830082000,6.22708203125,-0.07503916663229465,-0.02100658420417458,0.001867232343717478
1761316514840065000,6.23706494140625,-0.08955401419699191,-0.023229429619107393,0.0019216111457673831
1761316514850047200,6.247047119140625,-0.08461480422914028,-0.019415990544483064,0.005675734948320314
1761316514860030000,6.257030029296875,-0.07683306431174278,-0.0190319322634954,0.008532759214099496
1761316514870013000,6.267012939453125,-0.07862813103497028,-0.006656462214514613,0.0034459163699066264
1761316514879995100,6.2769951171875,-0.07832944034934043,-0.0022650679883081466,-0.0017660506912972778
1761316514889977900,6.286977783203125,-0.08506313251852989,-0.008496683253720402,-0.0009729458185378461
1761316514899960000,6.2969599609375,-0.08401450024843216,-0.005100081351678818,0.000950450858939439
1761316514909943000,6.306943115234375,-0.07922492788434028,-0.0029084347926080227,-0.006610782742151058
1761316514919925000,6.316925048828125,-0.07623159128725528,-0.016257252518925815,-0.01333295800348278
1761316514929907700,6.32690771484375,-0.06575754354596137,-0.024580743763362986,-0.02980223670473788
1761316514939889700,6.3368896484375,-0.07503507497906685,-0.027871693333843723,-0.026452515284880063
1761316514949872600,6.34687255859375,-0.07713058595359325,-0.02203821054054424,-0.0028982832913519814
1761316514959854600,6.3568544921875,-0.0786275465130806,-0.019018451727414502,0.02890720582746435
1761316514969837600,6.366837646484375,-0.07368892106711863,-0.017673503391863778,0.039479311682330445
1761316514979819800,6.37681982421875,-0.06605740327537059,-0.015241335208341478,0.03664706566478126
1761316514989802500,6.386802490234375,-0.0683013828098774,-0.015868216668721288,0.03278458155035041
1761316514999785700,6.39678564453125,-0.07518412806093693,-0.0033230069428682326,0.019130967624601907
1761316515009767700,6.406767578125,-0.0732376701682806,0.00542454579938203,-0.0015294928559102118
1761316515019751000,6.4167509765625,-0.08356208030581473,-0.008131558002065867,-0.0314664435899118
1761316515029732600,6.426732666015625,-0.0632119507163763,-0.015425560068292543,-0.04285400771324057
1761316515039715800,6.4367158203125,-0.07488193024396896,-0.016591516841435804,-0.0320414761320455
1761316515049697500,6.446697509765625,-0.08101765652000903,-0.02511704259715043,-0.013731967258430086
1761316515059680800,6.4566806640625,-0.07892273006737231,-0.02615651431325823,-0.0032669522069627417
1761316515069662700,6.466662841796875,-0.07413257318139076,-0.018792296555032954,0.013325354652339591
1761316515079645700,6.476645751953125,-0.06829962924420833,-0.012480894051678479,0.02120758210241329
1761316515089627600,6.486627685546875,-0.07608136916160584,-0.009492498491192236,0.027455184954823925
1761316515099611000,6.49661083984375,-0.0780260734885931,-0.008335702272038906,0.022485209955950266
1761316515109593600,6.506593505859375,-0.07443652456402779,0.0007579513609874993,0.008758969185408205
1761316515119575800,6.516575927734375,-0.07698153287172317,-0.009468478294787927,0.00007351276078261435
1761316515129558800,6.526558837890625,-0.07533493470847606,-0.00636257556816563,-0.017787407528539186
1761316515139540700,6.536540771484375,-0.08236848660707473,-0.016822412121016532,-0.02024133545272052
1761316515149523700,6.546523681640625,-0.07279167996644974,-0.01262743551605381,-0.028610592934489247
1761316515159505700,6.556505615234375,-0.07249182023704051,-0.012393352765543385,-0.02224590760762803
1761316515169488600,6.566488525390625,-0.07294190209209919,-0.018031586981378495,-0.0033679374965606256
1761316515179470800,6.576470947265625,-0.07698270191550255,-0.008617779749585315,0.008202915338380261
1761316515189453600,6.58645361328125,-0.07877835316061974,-0.015038542645238339,0.01984245862851385
1761316515199435800,6.596435791015625,-0.07713350856304169,-0.010130732462648302,0.025767492162785493
1761316515209418800,6.606418701171875,-0.0750415047198534,-0.00874463013280183,0.017243802171130664
1761316515219400700,6.616400634765625,-0.0832715729266405,-0.012159041686169802,0.010951835020608269
1761316515229383700,6.6263837890625,-0.0736953508079052,-0.01525913572651334,-0.002865947357751429
1761316515239366700,6.63636669921875,-0.07743512185811996,-0.012453458055481315,-0.013839806980499997
1761316515249348600,6.6463486328125,-0.08042787393331527,-0.013178904519509524,-0.025538154086051507
1761316515259331600,6.65633154296875,-0.08746142583191395,-0.009697172484127804,-0.02151496755115222
1761316515269313800,6.666313720703125,-0.0804267048895359,-0.014087534663872792,-0.021525753806647844
1761316515279296500,6.676296630859375,-0.06695815150737762,-0.024778659221949054,-0.006195662602619267
1761316515289278700,6.68627880859375,-0.07907821289002895,-0.02659407461346127,0.013408621622156352
1761316515299261700,6.69626171875,-0.06501286265850066,-0.027544936464354394,0.01485793451447971
1761316515309243600,6.70624365234375,-0.07384206580221653,-0.017233486273093148,0.03166666517001576
1761316515319226600,6.7162265625,-0.0807271491408348,-0.020563014288293196,0.0224898313321406
1761316515329208600,6.72620849609375,-0.07743570638000964,-0.012894863413739948,0.010619634791021234
1761316515339191600,6.736191650390625,-0.07593582321107387,-0.0032102764165494587,-0.0015859403174603357
1761316515349173800,6.746173828125,-0.08236848660707473,0.0034208412941545245,-0.008237931852834298
1761316515359156700,6.75615673828125,-0.07024667165875434,0.0011092490166891365,-0.014468158878758549
1761316515369139700,6.7661396484375,-0.07653262006044387,-0.0116827476776205,-0.020579992822557687
1761316515379121700,6.77612158203125,-0.062167994621396064,-0.011321193489385768,-0.02209071247933898
1761316515389104600,6.786104736328125,-0.07743219924867152,-0.020716807477362452,-0.00487387138037011
1761316515399086600,6.796086669921875,-0.07638648958802223,-0.023651335692452265,0.006764795126928947
1761316515409069800,6.80606982421875,-0.07578793917298317,-0.015302015887014566,0.022311944881430824
1761316515419051500,6.816051513671875,-0.06650982321798801,-0.020182061279844492,0.02024120758855715
1761316515429034800,6.82603466796875,-0.07444120073914527,-0.009098923463188111,0.021229113514209166
1761316515439016700,6.8360166015625,-0.06172025085389614,-0.005728771176654845,0.018098656301642767
1761316515448999700,6.845999755859375,-0.06740647979676723,-0.006894992811279371,-0.002549081694614142
1761316515458981600,6.855981689453125,-0.07608487629294396,0.0025932952956762164,-0.005924649941781535
1761316515468964900,6.86596484375,-0.07773030541241169,-0.01359756832299754,-0.019151234094495883
1761316515478947600,6.875947509765625,-0.08251637064516544,-0.01959757592277601,-0.019599895744025705
1761316515488929800,6.8859296875,-0.07638181341290473,-0.01519418073152192,-0.02236820511331316
1761316515498912800,6.895912841796875,-0.0786269619911909,-0.018386181705864146,-0.008483700474561191
1761316515508894700,6.905894775390625,-0.07039572474062443,-0.015028806702513248,0.007113115374254994
1761316515518877700,6.915877685546875,-0.08326631222963332,-0.0097882848336827,0.015241316942032426
1761316515528859600,6.925859619140625,-0.08236731756329536,-0.009259429520834236,0.016986311145569196
1761316515538842600,6.935842529296875,-0.07413608031272888,-0.010914210990536957,0.02619694222176913
1761316515548824800,6.945824951171875,-0.0700964495331049,-0.002144008025061339,0.0075997846463462335
1761316515558807600,6.9558076171875,-0.08012509159445762,-0.01277551135038957,0.0006857446413021534
1761316515568789800,6.965789794921875,-0.08102467078268527,-0.014754638536786659,0.0001428562365239486
1761316515578772700,6.975772705078125,-0.07219722120463848,-0.008332615265809,-0.006166865766397677
1761316515588754700,6.985754638671875,-0.07204933716654777,-0.010179877967154607,-0.02225266614197753
1761316515598737700,6.995737548828125,-0.08252513847351074,-0.007708546817023307,-0.013665537258982658
1761316515608720000,7.005719970703125,-0.0801303522914648,-0.011808776076929643,-0.011614390582568012
1761316515618702600,7.01570263671875,-0.07459376095235347,-0.017806573453312737,-0.0063185994291212405
1761316515628685800,7.025685791015625,-0.07294716278910636,-0.009932853536680341,0.011410045383195393
1761316515638667800,7.035667724609375,-0.07070376777648925,-0.009710424691345542,0.014867560859350487
1761316515648650800,7.045650634765625,-0.08267419155538082,-0.016649229244887827,0.016019443441368637
1761316515658632700,7.0556328125,-0.06666179890930653,-0.013179854367580264,0.012914234834490343
1761316515668616000,7.065615966796875,-0.07115151154398917,-0.007288248178875073,0.00651801272504963
1761316515678597600,7.07559765625,-0.0727975251853466,-0.006245461127674207,-0.004739326314465143
1761316515688580900,7.085580810546875,-0.0763876586318016,-0.008157076035812496,-0.009555604022392071
1761316515698562600,7.0955625,-0.07638707410991191,-0.008511899089161307,-0.013800141690392046
1761316515708545800,7.1055458984375,-0.07189911504089831,-0.011614130287664011,-0.012461778359254822
1761316515718527700,7.11552783203125,-0.07728723782002925,-0.015728917795885353,-0.009770251420070417
1761316515728510700,7.1255107421875,-0.0787841983795166,-0.017952977920370174,0.0029072155164787546
1761316515738493700,7.13549365234375,-0.07025368592143058,-0.015752380869863553,0.012960407497198321
1761316515748476000,7.145475830078125,-0.08297463580667971,-0.021186132889008148,0.016661517904303036
1761316515758458600,7.155458740234375,-0.07564239322245121,-0.020485419007437302,0.014459518914576619
1761316515768440800,7.16544091796875,-0.06591536445617675,-0.011231652042409404,0.01765533754751086
1761316515778423800,7.175423828125,-0.06920563817322253,-0.0063946877394802865,0.013928654307732357
1761316515788405800,7.18540576171875,-0.08626432500183581,-0.013864694826584308,0.008855954153323546
1761316515798388700,7.195388671875,-0.08297288224101067,-0.003512026708945632,-0.007281197383580729
1761316515808371000,7.205370849609375,-0.07579203082621097,-0.0072537796536926175,-0.006455688078561797
1761316515818353700,7.215353759765625,-0.06845920372009277,-0.017627289629960432,-0.011001304752100259
1761316515828335900,7.2253359375,-0.07309855395853519,-0.02269459209004417,-0.008212998340977355
1761316515838318800,7.23531884765625,-0.07968260852396487,-0.016840559699060394,0.007439137024804949
1761316515848300800,7.24530078125,-0.08252572299540042,-0.0032442700176965444,0.010234233936318195
1761316515858283800,7.25528369140625,-0.07444295430481433,-0.009960490462277084,0.00726272557855118
1761316515868266800,7.265266845703125,-0.06800795282125473,-0.016764297858765348,0.011546773273032157
1761316515878248700,7.275248779296875,-0.07159867078959942,-0.013467813596641644,0.017531523938174358
1761316515888231700,7.285231689453125,-0.08401917642354964,-0.017628486073203383,0.007167110583814792
1761316515898213600,7.295213623046875,-0.07953180187642574,-0.021112519663525744,-0.003885842157131992
1761316515908196600,7.305196533203125,-0.07309972300231456,-0.007566115272184834,-0.007723461258364841
1761316515918178800,7.3151787109375,-0.07399813314676285,-0.008740456281183287,-0.008954939282080158
1761316515928162000,7.325162109375,-0.07714110734760761,-0.009030780997266992,-0.01261160775925964
1761316515938144000,7.33514404296875,-0.07370002698302268,-0.010204300022358075,-0.009754336898308246
1761316515948127000,7.345126953125,-0.08267828320860862,-0.012328808762505649,-0.0010623959339689463
1761316515958109200,7.355109130859375,-0.07040741517841816,-0.007250089859263971,0.002304011759208515
1761316515968092000,7.365091796875,-0.06681669721007347,-0.008979872793937102,0.008456319277291185
1761316515978074000,7.37507421875,-0.06980769571959972,-0.010314409333327784,0.01862456160557922
1761316515988057000,7.38505712890625,-0.07070552134215831,-0.008684999766899272,0.010935998130659572
1761316515998040000,7.3950400390625,-0.07250234163105487,-0.010005133321601897,0.013218012687191366
1761316516008022000,7.40502197265625,-0.07519640302062035,-0.013878522422537207,-0.009183126581343822
1761316516018005200,7.415005126953125,-0.07759177372455596,-0.01128315390078351,-0.017686956528481096
1761316516027987000,7.424987060546875,-0.07788987988829613,-0.008695438962522894,-0.010857909659459255
1761316516037970200,7.43497021484375,-0.07474807473123073,-0.008979270005738362,-0.01109344458153937
1761316516047952000,7.444951904296875,-0.07370061150491238,-0.013482408377574756,-0.004301797980302944
1761316516057935000,7.45493505859375,-0.08088613909482956,-0.01361417239792645,0.004865715473378077
1761316516067917000,7.4649169921875,-0.07340425890684127,-0.015985093647195026,0.0021315686685964464
1761316516077900000,7.474900146484375,-0.07041326039731502,-0.01544680378572084,0.007361797472275793
1761316516087882000,7.484882080078125,-0.07804653175473213,-0.015874929537298157,0.010276296679489315
1761316516097865200,7.494865234375,-0.07535247036516667,-0.01021169787752442,0.004147182807326316
1761316516107848000,7.504847900390625,-0.0781961693584919,-0.01393525757845491,-0.00047465917388908564
1761316516117830100,7.514830078125,-0.07220832712054252,-0.011250000549852847,-0.006695711946091614
1761316516127813000,7.524813232421875,-0.0735556500762701,-0.009196447287220508,-0.020604401178029363
1761316516137795000,7.534795166015625,-0.07400514740943909,-0.005698997092898935,-0.00751159490623977
1761316516147778000,7.544778076171875,-0.07355506555438042,-0.0054285187216009945,-0.002930445695016533
1761316516157760300,7.55476025390625,-0.07041267587542534,-0.012660113942949101,-0.00824282265708316
1761316516167743000,7.564742919921875,-0.07819441579282284,-0.013487723873509093,0.000763792013307102
1761316516177725200,7.57472509765625,-0.07430325357317924,-0.01859579673539847,0.010551021967642009
1761316516187708200,7.584708251953125,-0.08208616253435612,-0.014921756998309865,0.008698818229697643
1761316516197690000,7.594690185546875,-0.07909165689349174,-0.012756687918910756,0.006873813025932759
1761316516207673000,7.604673095703125,-0.07071078203916549,-0.010835108739184215,0.005893830111832358
1761316516217655000,7.614655029296875,-0.07296177583634852,-0.013956355165410786,0.0004291532314615324
1761316516227638000,7.624637939453125,-0.1300064360946417,-0.005494268301036208,-0.02809556065101642
1761316516237620200,7.6346201171875,-0.1615367158681154,-0.0036108017751481382,-0.03316740685547702
1761316516247603000,7.64460302734375,-0.3893716580301523,0.01603245818656869,-0.08507696011448279
1761316516257586000,7.6545859375,-0.17506313691735267,0.00704522407008335,-0.0352967013685964
1761316516267568000,7.664568115234375,0.18998247362971304,-0.024762155611719936,0.031463169354014095
1761316516277550800,7.67455078125,0.6513765808194876,-0.06723342478480189,0.13734994899155573
1761316516287533000,7.684532958984375,0.686049834793806,-0.09197350556203164,0.18900939081385731
1761316516297516000,7.69451611328125,-1.5162772543758154,0.08832723061470314,-0.2914070496940054
1761316516307498000,7.704498046875,0.21825813552141188,-0.04173120052865706,0.07227484845153521
1761316516317481000,7.71448095703125,-0.09240355840921402,-0.0163444102125708,0.008977087181806565
