time,seconds_elapsed,z,y,x
1761315477392337000,0.0813369140625,0.2695074677467346,-0.14543825387954712,0.23133772611618042
1761315477402318600,0.091318603515625,0.23297013342380524,-0.1350317746400833,0.2509254515171051
1761315477412300800,0.10130078125,0.1857597529888153,-0.13144636154174805,0.2850450873374939
1761315477422282800,0.11128271484375,0.14675918221473694,-0.1298438459634781,0.30896034836769104
1761315477432265700,0.121265625,0.1292712688446045,-0.11803512275218964,0.3139016032218933
1761315477442247700,0.13124755859375,0.13277634978294373,-0.09773430973291397,0.2706362307071686
1761315477452229600,0.141229736328125,0.14194267988204956,-0.045092932879924774,0.20271629095077515
1761315477462211800,0.1512119140625,0.15398596227169037,0.0116569884121418,0.12790514528751373
1761315477472193800,0.16119384765625,0.15919643640518188,0.04023829475045204,0.0616624690592289
1761315477482176800,0.1711767578125,0.1550654172897339,0.013235313817858696,-0.0016402800101786852
1761315477492158700,0.18115869140625,0.145453542470932,-0.04426180198788643,-0.056451331824064255
1761315477502140700,0.191140625,0.1451958566904068,-0.12140151858329773,-0.08831490576267242
1761315477512122600,0.20112255859375,0.1429486870765686,-0.19630026817321777,-0.09727004915475845
1761315477522104800,0.211104736328125,0.14246724545955658,-0.2544800639152527,-0.07834076881408691
1761315477532087800,0.221087890625,0.13620242476463318,-0.2868334949016571,-0.05153445899486542
1761315477542069800,0.23106982421875,0.1227431446313858,-0.32865169644355774,-0.030307605862617493
1761315477552051700,0.2410517578125,0.0968465656042099,-0.3614722192287445,-0.03391619026660919
1761315477562033700,0.25103369140625,0.07704427093267441,-0.3859086334705353,-0.057066939771175385
1761315477572015900,0.261015869140625,0.05519196391105652,-0.38532352447509766,-0.09147923439741135
1761315477581998800,0.270998779296875,0.03231203556060791,-0.3528326153755188,-0.12084579467773438
1761315477591980800,0.280980712890625,0.0012910021468997002,-0.27888914942741394,-0.13181614875793457
1761315477601962800,0.290962646484375,-0.01900545321404934,-0.1740597039461136,-0.12486638128757477
1761315477611944700,0.30094482421875,-0.029622409492731094,-0.04980086907744408,-0.10038153827190399
1761315477621927000,0.310927001953125,-0.029273787513375282,0.058801427483558655,-0.07408647984266281
1761315477631910000,0.320909912109375,-0.026443378999829292,0.1311057060956955,-0.0446135476231575
1761315477641891800,0.330891845703125,-0.02098137140274048,0.17354407906532288,-0.0069409520365297794
1761315477651873800,0.340873779296875,-0.005626383703202009,0.19916954636573792,0.04104787856340408
1761315477661855700,0.350855712890625,0.020591622218489647,0.23246033489704132,0.09685289114713669
1761315477671837700,0.360837646484375,0.05754857510328293,0.24232256412506104,0.14949452877044678
1761315477681820700,0.370820556640625,0.07956581562757492,0.24998462200164795,0.19996517896652222
1761315477691802600,0.380802734375,0.08728206157684326,0.2508898377418518,0.23119527101516724
1761315477701784600,0.39078466796875,0.08917887508869171,0.25716352462768555,0.2058521956205368
1761315477711766800,0.400766845703125,0.10825537145137787,0.28074368834495544,0.1573917120695114
1761315477721748700,0.410748779296875,0.14641711115837097,0.31331920623779297,0.10076172649860382
1761315477731730700,0.420730712890625,0.19144903123378754,0.32265517115592957,0.05856446549296379
1761315477741713700,0.430713623046875,0.20913682878017426,0.3209909200668335,0.04183999449014664
1761315477751695600,0.440695556640625,0.1919541209936142,0.2983580529689789,0.04685020446777344
1761315477761677800,0.450677734375,0.14609141647815704,0.24899126589298248,0.06884460151195526
1761315477771659500,0.460659423828125,0.10416393727064133,0.17728354036808014,0.09970131516456604
1761315477781641700,0.470641845703125,0.06396788358688354,0.08986565470695496,0.12909521162509918
1761315477791624700,0.480624755859375,0.031286101788282394,-0.0002453322522342205,0.15595264732837677
1761315477801606700,0.490606689453125,-0.006868555210530758,-0.08769271522760391,0.15945248305797577
1761315477811588900,0.5005888671875,-0.03439818322658539,-0.14135941863059998,0.1298155039548874
1761315477821570600,0.510570556640625,-0.045531030744314194,-0.15069371461868286,0.06324896961450577
1761315477831552800,0.520552734375,-0.03751864656805992,-0.13844504952430725,-0.032743606716394424
1761315477841535700,0.53053564453125,-0.03550899028778076,-0.09678177535533905,-0.1398751139640808
1761315477851517700,0.540517578125,-0.04423856735229492,-0.046153221279382706,-0.24502630531787872
1761315477861500000,0.5505,-0.061579618602991104,-0.022558998316526413,-0.34248077869415283
1761315477871481600,0.560481689453125,-0.07279472053050995,-0.025458915159106255,-0.41649293899536133
1761315477881463800,0.5704638671875,-0.07006673514842987,-0.048986803740262985,-0.45632070302963257
1761315477891446800,0.58044677734375,-0.06090119853615761,-0.0966789573431015,-0.44049325585365295
1761315477901428700,0.5904287109375,-0.04068663343787193,-0.14670449495315552,-0.3839087188243866
1761315477911410700,0.60041064453125,-0.006724405102431774,-0.18325692415237427,-0.2850625813007355
1761315477921391900,0.610391845703125,0.04036024212837219,-0.20860305428504944,-0.16443808376789093
1761315477931373800,0.620373779296875,0.08077291399240494,-0.20662246644496918,-0.047639843076467514
1761315477941356800,0.630356689453125,0.12282031029462814,-0.14731526374816895,0.0456131286919117
1761315477951338800,0.6403388671875,0.15080614387989044,-0.0463431142270565,0.09689789265394211
1761315477961321000,0.650321044921875,0.16438427567481995,0.05878858640789986,0.08155784755945206
1761315477971302700,0.660302734375,0.17312130331993103,0.15136486291885376,0.023546742275357246
1761315477981284900,0.670284912109375,0.1728411316871643,0.23979038000106812,-0.04493940621614456
1761315477991267000,0.68026708984375,0.15671730041503906,0.28148746490478516,-0.10317128151655197
1761315478001249800,0.690249755859375,0.12534697353839874,0.2613399028778076,-0.13209256529808044
1761315478011232000,0.70023193359375,0.08803048729896545,0.20623670518398285,-0.13264624774456024
1761315478021213700,0.710213623046875,0.04451625421643257,0.11003229022026062,-0.12285521626472473
1761315478031196000,0.72019580078125,0.015702450647950172,-0.002738731214776635,-0.10178987681865692
1761315478041177900,0.730177734375,0.004959160927683115,-0.09001707285642624,-0.08398827165365219
1761315478051160800,0.740160888671875,0.00028051959816366434,-0.16197675466537476,-0.05585676431655884
1761315478061143000,0.75014306640625,0.0036389604210853577,-0.21022216975688934,-0.039604347199201584
1761315478071124700,0.760124755859375,0.003845355473458767,-0.24233323335647583,-0.033900924026966095
1761315478081107000,0.77010693359375,0.008208641782402992,-0.25406599044799805,-0.043720029294490814
1761315478091089000,0.7800888671875,0.016396263614296913,-0.24937297403812408,-0.07690674066543579
1761315478101072000,0.79007177734375,0.011013318784534931,-0.23378537595272064,-0.11822856217622757
1761315478111053800,0.8000537109375,0.013510564342141151,-0.2013544738292694,-0.13023702800273895
1761315478121035800,0.810035888671875,0.012907855212688446,-0.1431925743818283,-0.11534012854099274
1761315478131018000,0.82001806640625,0.018318599089980125,-0.06989544630050659,-0.08152331411838531
1761315478140999700,0.829999755859375,0.01167646050453186,-0.029269609600305557,-0.03384224697947502
1761315478150983000,0.83998291015625,0.008694784715771675,-0.016850221902132034,-0.0032707538921386003
1761315478160964900,0.84996484375,0.011091578751802444,-0.027225486934185028,0.01810874417424202
1761315478170946800,0.85994677734375,0.013526241295039654,-0.049589116126298904,0.024085676297545433
1761315478180929000,0.869928955078125,0.015115061774849892,-0.07578904181718826,0.01927551068365574
1761315478190910700,0.87991064453125,0.013655916787683964,-0.10531124472618103,0.017102904617786407
1761315478200894000,0.88989404296875,0.009786156937479973,-0.13404320180416107,0.009031219407916069
1761315478210875600,0.899875732421875,0.007960560731589794,-0.13944968581199646,-0.01822090893983841
1761315478220857900,0.90985791015625,0.005118151661008596,-0.1288137286901474,-0.04831016808748245
1761315478230840000,0.919840087890625,-0.017438823357224464,-0.10732655227184296,-0.08494141697883606
1761315478240821800,0.92982177734375,-0.05013183876872063,-0.08797663450241089,-0.11761080473661423
1761315478250805000,0.939804931640625,-0.08847949653863907,-0.058274395763874054,-0.1344744712114334
1761315478260786700,0.94978662109375,-0.11285269260406494,-0.035219866782426834,-0.1332271844148636
1761315478270769000,0.959768798828125,-0.12380494177341461,-0.018519718199968338,-0.1202155128121376
1761315478280750800,0.969750732421875,-0.1271575689315796,0.003763992805033922,-0.09567208588123322
1761315478290732800,0.97973291015625,-0.1272723525762558,0.04296199604868889,-0.06905672699213028
1761315478300716000,0.989716064453125,-0.12649954855442047,0.08528442680835724,-0.04434415325522423
1761315478310697700,0.99969775390625,-0.13541661202907562,0.11765382438898087,-0.03171224519610405
1761315478320680000,1.009679931640625,-0.13869744539260864,0.136250838637352,-0.03823840990662575
1761315478330662000,1.019661865234375,-0.13508139550685883,0.15493237972259521,-0.05485200881958008
1761315478340643800,1.029643798828125,-0.12727224826812744,0.14649148285388947,-0.06900716572999954
1761315478350625800,1.039625732421875,-0.11317133903503418,0.11205201596021652,-0.07899269461631775
1761315478360608800,1.04960888671875,-0.09545017033815384,0.062230274081230164,-0.08562302589416504
1761315478370591000,1.059591064453125,-0.08296740055084229,0.005768062546849251,-0.08606511354446411
1761315478380572700,1.06957275390625,-0.07793132215738297,-0.04054831340909004,-0.0792703628540039
1761315478390555000,1.079554931640625,-0.08108290284872055,-0.08167657256126404,-0.06869255006313324
1761315478400536800,1.089536865234375,-0.08133107423782349,-0.10007477551698685,-0.05099158734083176
1761315478410519800,1.099519775390625,-0.08302244544029236,-0.09980499744415283,-0.031091919168829918
1761315478420502000,1.109501953125,-0.07445070892572403,-0.07655319571495056,-0.008101493120193481
1761315478430483700,1.119483642578125,-0.06374932825565338,-0.043235983699560165,-0.0032524100970476866
1761315478440466000,1.1294658203125,-0.04897881671786308,-0.00812667515128851,-0.002817393746227026
1761315478450448000,1.13944775390625,-0.040981076657772064,0.023290636017918587,0.0009400604758411646
1761315478460430800,1.149430908203125,-0.037729933857917786,0.04156774654984474,0.00009098346345126629
1761315478470413000,1.1594130859375,-0.03679756075143814,0.04239918664097786,-0.0015231587458401918
1761315478480394800,1.169394775390625,-0.02894403040409088,0.03357112407684326,-0.005260288715362549
1761315478490377000,1.179376953125,-0.026214024052023888,0.02827809378504753,-0.007940760813653469
1761315478500359000,1.18935888671875,-0.02104651927947998,0.019985120743513107,-0.006609468720853329
1761315478510342000,1.199341796875,-0.02411741018295288,0.014663325622677803,-0.005381750874221325
1761315478520323800,1.20932373046875,-0.024308713153004646,0.027829136699438095,-0.002586619695648551
1761315478530305800,1.219305908203125,-0.015118942596018314,0.035766422748565674,0.010299883782863617
1761315478540288000,1.2292880859375,-0.011585503816604614,0.036038435995578766,0.023672353476285934
1761315478550270000,1.23927001953125,-0.005735870450735092,0.0187382772564888,0.0482056587934494
1761315478560252000,1.249251953125,-0.0020391466096043587,0.004412153735756874,0.08141627907752991
1761315478570235000,1.25923486328125,-0.004030125681310892,-0.0014595836400985718,0.10470561683177948
1761315478580216800,1.269216796875,0.0011706359218806028,0.000290511641651392,0.09853346645832062
1761315478590198800,1.27919873046875,0.013709330931305885,0.019418399780988693,0.06471051275730133
1761315478600181000,1.289180908203125,0.024005945771932602,0.022319583222270012,0.02044587954878807
1761315478610163000,1.299162841796875,0.019861800596117973,0.01556340977549553,-0.02143818512558937
1761315478620146000,1.30914599609375,0.013787684962153435,0.014128249138593674,-0.04176400229334831
1761315478630127900,1.3191279296875,0.0073311165906488895,0.012089066207408905,-0.04567618668079376
1761315478640109800,1.32910986328125,0.002686117310076952,0.007691177073866129,-0.03915850818157196
1761315478650091800,1.339091796875,-0.008625127375125885,0.007138571236282587,-0.03434750810265541
1761315478660073700,1.34907373046875,-0.018064621835947037,-0.002512894105166197,-0.026457270607352257
1761315478670056700,1.359056640625,-0.028542563319206238,-0.018044982105493546,-0.022649217396974564
1761315478680039000,1.369038818359375,-0.040500327944755554,-0.023839861154556274,-0.029039982706308365
1761315478690020900,1.379020751953125,-0.05245126038789749,-0.012275618501007557,-0.04934472218155861
1761315478700002800,1.3890029296875,-0.055236347019672394,0.014685275964438915,-0.0722145289182663
1761315478709984800,1.39898486328125,-0.0547252893447876,0.042822904884815216,-0.0910089835524559
1761315478719967700,1.4089677734375,-0.04948217049241066,0.05655492842197418,-0.09205199778079987
1761315478729950000,1.418949951171875,-0.03362224996089935,0.05894112586975098,-0.08150029182434082
1761315478739932000,1.428931884765625,-0.015390266664326191,0.05198679119348526,-0.05667479336261749
1761315478749913900,1.438913818359375,0.009046632796525955,0.03719985857605934,-0.031710587441921234
1761315478759895800,1.448895751953125,0.03201490640640259,0.01483417209237814,-0.010197487659752369
1761315478769878800,1.458878662109375,0.04657520726323128,-0.016409501433372498,0.013703051023185253
1761315478779861000,1.468861083984375,0.05278494581580162,-0.04049363732337952,0.04207935929298401
1761315478789843000,1.478843017578125,0.04880724847316742,-0.05531599000096321,0.06140964850783348
1761315478799825000,1.488824951171875,0.04319261014461517,-0.06428305059671402,0.06860799342393875
1761315478809806800,1.498806884765625,0.04454762861132622,-0.06262070685625076,0.05963127687573433
1761315478819789000,1.5087890625,0.04801812767982483,-0.0591185986995697,0.04141081124544144
1761315478829771800,1.518771728515625,0.04611982777714729,-0.05409028381109238,0.022691451013088226
1761315478839754000,1.52875390625,0.04956072196364403,-0.04496978968381882,0.013412955217063427
1761315478849735700,1.538735595703125,0.04281626641750336,-0.023536136373877525,0.010763642378151417
1761315478859718000,1.5487177734375,0.03167572617530823,-0.004371408838778734,0.007700106129050255
1761315478869699800,1.558699951171875,0.022712858393788338,0.009710853919386864,-0.003145883558318019
1761315478879682800,1.568682861328125,0.01801849715411663,0.007922050543129444,-0.01635466329753399
1761315478889664800,1.578664794921875,0.018174290657043457,-0.004457920324057341,-0.01750355027616024
1761315478899646700,1.588646728515625,0.012481827288866043,-0.0200702752918005,-0.0027852626517415047
1761315478909629000,1.59862890625,0.003852653317153454,-0.026773450896143913,0.024426383897662163
1761315478919610600,1.608610595703125,-0.012772805988788605,-0.031389251351356506,0.043226584792137146
1761315478929594600,1.6185947265625,-0.024382058531045914,-0.031127195805311203,0.05149650573730469
1761315478939576300,1.628576416015625,-0.039396967738866806,-0.0248066745698452,0.04486812651157379
1761315478949558500,1.63855859375,-0.04597843810915947,-0.025820273905992508,0.0186248067766428
1761315478959540500,1.64854052734375,-0.04553024470806122,-0.022847402840852737,-0.014870265498757362
1761315478969522400,1.6585224609375,-0.04684371501207352,-0.021220477297902107,-0.05229274183511734
1761315478979505700,1.668505615234375,-0.040273893624544144,-0.023262985050678253,-0.07956638187170029
1761315478989487400,1.6784873046875,-0.03693162649869919,-0.01890578679740429,-0.09057296067476273
1761315478999469600,1.688469482421875,-0.02943294495344162,-0.021841906011104584,-0.08286527544260025
1761315479009451300,1.698451171875,-0.02738976664841175,-0.037124987691640854,-0.06595633178949356
1761315479019433500,1.70843359375,-0.028384948149323463,-0.052142392843961716,-0.04438679665327072
1761315479029415400,1.71841552734375,-0.026466406881809235,-0.06893362104892731,-0.020360024645924568
1761315479039398400,1.7283984375,-0.028097910806536674,-0.08757543563842773,-0.0024023212026804686
1761315479049380600,1.738380615234375,-0.025553792715072632,-0.09821343421936035,-0.0017146931495517492
1761315479059362300,1.7483623046875,-0.02833693102002144,-0.09281489253044128,-0.01259628776460886
1761315479069344500,1.758344482421875,-0.022949088364839554,-0.08440569788217545,-0.03470372036099434
1761315479079326500,1.768326416015625,-0.01856456883251667,-0.061092719435691833,-0.0591292530298233
1761315479089309400,1.778309326171875,-0.005409617908298969,-0.03268611431121826,-0.0672801211476326
1761315479099291600,1.788291748046875,0.0041697281412780285,-0.007819807156920433,-0.07308348268270493
1761315479109273300,1.7982734375,0.01599149964749813,0.014113188721239567,-0.07134097069501877
1761315479119255600,1.808255615234375,0.02893141098320484,0.02808680199086666,-0.0595204159617424
1761315479129237500,1.818237548828125,0.043514881283044815,0.027941128239035606,-0.045405663549900055
1761315479139220500,1.828220458984375,0.06192091107368469,0.015613612718880177,-0.01997552067041397
1761315479149202700,1.83820263671875,0.06838040798902512,0.00480384286493063,0.007131197489798069
1761315479159184400,1.848184326171875,0.07087267190217972,-0.01924334093928337,0.036544833332300186
1761315479169166600,1.85816650390625,0.05717337131500244,-0.05233551189303398,0.047015320509672165
1761315479179148500,1.8681484375,0.03772067278623581,-0.07569687068462372,0.04157903045415878
1761315479189130500,1.878130615234375,0.0162513330578804,-0.097455695271492,0.019694771617650986
1761315479199113500,1.888113525390625,-0.007465081289410591,-0.11363842338323593,-0.006962218787521124
1761315479209095400,1.898095458984375,-0.02822495438158512,-0.10407234728336334,-0.03283216431736946
1761315479219077600,1.90807763671875,-0.047173723578453064,-0.07274535298347473,-0.06316035985946655
1761315479229059600,1.9180595703125,-0.057297464460134506,-0.04066704213619232,-0.07918860018253326
1761315479239041500,1.92804150390625,-0.059696439653635025,-0.011545907706022263,-0.08212180435657501
1761315479249024500,1.9380244140625,-0.05657707899808884,0.013236936181783676,-0.061550747603178024
1761315479259006500,1.94800634765625,-0.04939129576086998,0.021717403084039688,-0.0392264723777771
1761315479268988400,1.957988525390625,-0.037872057408094406,0.02059248276054859,-0.015297170728445053
1761315479278970400,1.967970458984375,-0.02591082826256752,0.003989213611930609,0.0025954199954867363
1761315479288952600,1.97795263671875,-0.017084311693906784,-0.010219816118478775,0.022975793108344078
1761315479298935300,1.987935302734375,-0.015673058107495308,-0.008791400119662285,0.03795134276151657
1761315479308917500,1.99791748046875,-0.01840226724743843,-0.014087095856666565,0.04649342969059944
1761315479318899500,2.0078994140625,-0.026953764259815216,-0.015968143939971924,0.03566329553723335
1761315479328881400,2.01788134765625,-0.03589053452014923,0.0028662639670073986,0.0234345942735672
1761315479338863400,2.02786328125,-0.0433204211294651,0.02463405765593052,0.007033542729914188
1761315479348845600,2.037845458984375,-0.03969426080584526,0.03475646302103996,-0.010789662599563599
1761315479358828500,2.04782861328125,-0.036595627665519714,0.037702079862356186,-0.024398887529969215
1761315479368810500,2.057810546875,-0.03069167025387287,0.02329997345805168,-0.02792331576347351
1761315479378792400,2.06779248046875,-0.029743870720267296,0.0015240879729390144,-0.02211971953511238
1761315479388774400,2.0777744140625,-0.02645513229072094,-0.02145792730152607,-0.007495768368244171
1761315479398756600,2.087756591796875,-0.02645799145102501,-0.03013729676604271,0.013477747328579426
1761315479408739600,2.097739501953125,-0.023948760703206062,-0.028131406754255295,0.03500887006521225
1761315479418721500,2.107721435546875,-0.019112324342131615,-0.022586215287446976,0.032744571566581726
1761315479428703500,2.117703369140625,-0.006441270466893911,-0.017955511808395386,0.007500466890633106
1761315479438685400,2.127685546875,0.002547916956245899,-0.01002185232937336,-0.02587832324206829
1761315479448667600,2.137667724609375,-0.001277980045415461,0.011609675362706184,-0.05326227843761444
1761315479458650600,2.147650634765625,-0.006586628500372171,0.03162823244929314,-0.06441926956176758
1761315479468632600,2.157632568359375,-0.023856695741415024,0.0472564622759819,-0.06210498511791229
1761315479478614500,2.167614501953125,-0.031984735280275345,0.050893671810626984,-0.056610941886901855
1761315479488596500,2.177596435546875,-0.02984195575118065,0.04781585559248924,-0.03605586662888527
1761315479498578400,2.187578369140625,-0.017271993681788445,0.04595411196351051,-0.006086427718400955
1761315479508560400,2.197560302734375,-0.0030334030743688345,0.03606446459889412,0.029842810705304146
1761315479518543400,2.20754345703125,0.02235141582787037,0.01498902402818203,0.051820434629917145
1761315479528525600,2.217525634765625,0.03957833722233772,-0.016082875430583954,0.05847327783703804
1761315479538507500,2.227507568359375,0.05187642574310303,-0.03559238836169243,0.044177014380693436
1761315479548489500,2.237489501953125,0.06339193135499954,-0.0448434092104435,0.01676110178232193
1761315479558471400,2.247471435546875,0.06181911751627922,-0.037264689803123474,-0.0134782325476408
1761315479568454400,2.257454345703125,0.04897309094667435,-0.031064318493008614,-0.04123210161924362
1761315479578436400,2.267436279296875,0.034612126648426056,-0.018082426860928535,-0.05092326179146767
1761315479588418600,2.27741845703125,0.015043219551444054,-0.0033873708453029394,-0.05284472927451134
1761315479598400500,2.287400390625,-0.0009461683803237975,0.012039054185152054,-0.05241252854466438
1761315479608382500,2.297382568359375,-0.015233761630952358,0.031655896455049515,-0.05202477052807808
1761315479618364700,2.30736474609375,-0.01738668791949749,0.04024834930896759,-0.05881210044026375
1761315479628347400,2.317347412109375,-0.01191442459821701,0.027504852041602135,-0.06172346696257591
1761315479638329600,2.32732958984375,-0.015197585336863995,-0.0003879489377140999,-0.04698719456791878
1761315479648311300,2.337311279296875,-0.01393071934580803,-0.024274371564388275,-0.013378903269767761
1761315479658293500,2.34729345703125,-0.01423671655356884,-0.052799493074417114,0.006495468318462372
1761315479668275700,2.357275634765625,-0.003144118469208479,-0.07507549971342087,0.019511401653289795
1761315479678258400,2.367258544921875,0.002104748971760273,-0.07530490309000015,0.019776713103055954
1761315479688240600,2.37724072265625,0.008896341547369957,-0.06569675356149673,0.007552271708846092
1761315479698222300,2.387222412109375,0.013670057989656925,-0.04923389106988907,-0.006794443354010582
1761315479708204500,2.39720458984375,0.012910524383187294,-0.007470198906958103,-0.012537816539406776
1761315479718186500,2.4071865234375,0.012348013930022717,0.03363015130162239,-0.010706352069973946
1761315479728168400,2.41716845703125,0.007467771414667368,0.07379834353923798,-0.007984069176018238
1761315479738151400,2.4271513671875,0.010122692212462425,0.08431970328092575,-0.0018689553253352642
1761315479748133400,2.43713330078125,0.009788199327886105,0.07393177598714828,0.00623717438429594
1761315479758115600,2.447115478515625,0.021590061485767365,0.05812441185116768,0.01807372085750103
1761315479768097300,2.45709716796875,0.03378813713788986,0.03803751617670059,0.028621967881917953
1761315479778079500,2.46707958984375,0.03571336343884468,0.0034880326129496098,0.02485066093504429
1761315479788062500,2.4770625,0.03649100661277771,-0.02600540965795517,0.015918686985969543
1761315479798044400,2.48704443359375,0.030346019193530083,-0.04847605898976326,0.014280010014772415
1761315479808026600,2.497026611328125,0.026091085746884346,-0.06471575051546097,0.0028726262971758842
1761315479818008300,2.50700830078125,0.023980170488357544,-0.06043659523129463,-0.010819904506206512
1761315479827990500,2.516990478515625,0.021933531388640404,-0.0345541313290596,-0.03444480523467064
1761315479837972500,2.526972412109375,0.022511424496769905,0.011893467977643013,-0.056516747921705246
1761315479847955500,2.53695556640625,0.03152409568428993,0.04989065229892731,-0.0701872929930687
1761315479857937700,2.546937744140625,0.03723188117146492,0.055278338491916656,-0.06209202855825424
1761315479867919400,2.55691943359375,0.040931809693574905,0.03374321758747101,-0.0346798412501812
1761315479877901600,2.566901611328125,0.05050627514719963,0.01378437876701355,-0.011051027104258537
1761315479887883500,2.576883544921875,0.05637481436133385,-0.0021932560484856367,0.016238117590546608
1761315479897866500,2.586866455078125,0.06276683509349823,-0.01730538159608841,0.04239952564239502
1761315479907848700,2.5968486328125,0.06734081357717514,-0.024418683722615242,0.05858222395181656
1761315479917830400,2.606830322265625,0.07980228215456009,-0.02324000932276249,0.06430511921644211
1761315479927811800,2.616811767578125,0.08048564940690994,-0.024523386731743813,0.0530194453895092
1761315479937794000,2.6267939453125,0.07346754521131516,-0.02398570254445076,0.03876423090696335
1761315479947776000,2.63677587890625,0.055608924478292465,-0.01820983737707138,0.021600155159831047
1761315479957759000,2.646759033203125,0.04117380455136299,-0.005806736182421446,0.011837040074169636
1761315479967741000,2.656740966796875,0.026742666959762573,0.010920045897364616,0.005086459219455719
1761315479977723000,2.666722900390625,0.019134094938635826,0.02195850759744644,0.006547990720719099
1761315479987705000,2.676705078125,0.01178510207682848,0.029729079455137253,0.01559341698884964
1761315479997686800,2.686686767578125,0.011958763934671879,0.03386911004781723,0.026079710572957993
1761315480007670000,2.696669921875,0.006531242746859789,0.030715126544237137,0.03304440900683403
1761315480017652000,2.70665185546875,0.004710386041551828,0.017111310735344887,0.033983878791332245
1761315480027634000,2.716634033203125,0.0043761590495705605,0.0006686877459287643,0.026589080691337585
1761315480037616000,2.7266162109375,0.0023815277963876724,-0.009963934309780598,0.018662873655557632
1761315480047597800,2.736597900390625,-0.0053871795535087585,-0.02258731797337532,0.014090758748352528
1761315480057580000,2.746580078125,-0.011879430152475834,-0.02180163562297821,0.00583941675722599
1761315480067563000,2.75656298828125,-0.008427973836660385,-0.006837867666035891,-0.010628772899508476
1761315480077545000,2.766544921875,0.009941180236637592,0.010314222425222397,-0.02942696027457714
1761315480087527000,2.77652685546875,0.022275343537330627,0.01448792777955532,-0.04507675766944885
1761315480097508900,2.7865087890625,0.03514242544770241,0.011438797228038311,-0.04076317325234413
1761315480107491000,2.796490966796875,0.044707704335451126,0.005468789488077164,-0.022212393581867218
1761315480117474000,2.80647412109375,0.04741274565458298,-0.007309454493224621,-0.006323383189737797
1761315480127456000,2.8164560546875,0.048785604536533356,-0.02255099266767502,0.006428896449506283
1761315480137438000,2.82643798828125,0.0485105887055397,-0.027326511219143867,0.016603894531726837
1761315480147420000,2.836419921875,0.04879741370677948,-0.021063022315502167,0.019052669405937195
1761315480157402000,2.846402099609375,0.042481761425733566,-0.019470252096652985,0.010896235704421997
1761315480167383800,2.8563837890625,0.03300436958670616,-0.02310360223054886,-0.0004075518809258938
1761315480177367000,2.866366943359375,0.028327027335762978,-0.02030029334127903,-0.012613646686077118
1761315480187349000,2.876348876953125,0.02821943536400795,-0.014150789007544518,-0.027562769129872322
1761315480197331000,2.8863310546875,0.024091003462672234,-0.007320579141378403,-0.04065939411520958
1761315480207313200,2.896313232421875,0.02574802190065384,0.006000818219035864,-0.037566665560007095
1761315480217294800,2.906294921875,0.02244059555232525,0.01630176231265068,-0.03286438435316086
1761315480227278000,2.916278076171875,0.023971913382411003,0.01803414896130562,-0.02011183835566044
1761315480237259800,2.926259765625,0.017671486362814903,0.020223364233970642,-0.004945844877511263
1761315480247242000,2.936241943359375,0.011133161373436451,0.007786136120557785,0.0069864485412836075
1761315480257224200,2.94622412109375,0.011005955748260021,-0.019514085724949837,0.016318216919898987
1761315480267206000,2.956205810546875,0.010943638160824776,-0.0694667249917984,0.025467507541179657
1761315480277188000,2.96618798828125,0.010750163346529007,-0.12458115816116333,0.02437739446759224
1761315480287170800,2.9761708984375,0.010508082807064056,-0.16944369673728943,0.012124722823500633
1761315480297153000,2.986153076171875,0.0020653982646763325,-0.18835040926933289,-0.0007342931348830462
1761315480307135000,2.996135009765625,0.0002706940285861492,-0.16108150780200958,-0.013120921328663826
1761315480317117000,3.006116943359375,0.004705947823822498,-0.12698858976364136,-0.02219930663704872
1761315480327099100,3.01609912109375,0.015520778484642506,-0.08190926909446716,-0.03393106162548065
1761315480337081900,3.026081787109375,0.024508493021130562,-0.03511472046375275,-0.04500739648938179
1761315480347064000,3.03606396484375,0.038195278495550156,-0.001148231327533722,-0.04321642220020294
1761315480357046000,3.0460458984375,0.04018843546509743,0.01846424862742424,-0.02547544427216053
1761315480367028000,3.056028076171875,0.04538213089108467,0.01087930053472519,-0.00044439383782446384
1761315480377010000,3.066010009765625,0.05037989094853401,-0.005551735870540142,0.013422477059066296
1761315480386991900,3.075991943359375,0.05655656009912491,-0.03413091599941254,0.016415603458881378
1761315480396975000,3.08597509765625,0.05546047165989876,-0.059353578835725784,0.005939051508903503
1761315480406956800,3.095956787109375,0.052558425813913345,-0.08257155120372772,-0.007471296004951
1761315480416939000,3.10593896484375,0.04892455041408539,-0.09681976586580276,-0.028409035876393318
1761315480426921000,3.1159208984375,0.052225805819034576,-0.09391026198863983,-0.04772787168622017
1761315480436903000,3.12590283203125,0.05979163944721222,-0.07625231146812439,-0.062143731862306595
1761315480446886100,3.13588623046875,0.06214161217212677,-0.048126403242349625,-0.0556701235473156
1761315480456867800,3.145867919921875,0.0673355981707573,-0.02206517569720745,-0.03085196390748024
1761315480466850000,3.15585009765625,0.07213274389505386,0.00886930525302887,-0.014299352653324604
1761315480476832000,3.16583203125,0.08393799513578415,0.02093629725277424,0.0017963279969990253
1761315480486814000,3.17581396484375,0.08879267424345016,0.013337500393390656,0.018253065645694733
1761315480496796000,3.1857958984375,0.09239955246448517,-0.005027462262660265,0.036775264889001846
1761315480506779000,3.19577880859375,0.08692488819360733,-0.014219895005226135,0.04901542142033577
1761315480516761000,3.205760986328125,0.08019568026065826,-0.021975379437208176,0.054034970700740814
1761315480526743000,3.215742919921875,0.0742160826921463,-0.022076845169067383,0.04924847185611725
1761315480536725000,3.22572509765625,0.06528404355049133,-0.020064201205968857,0.03939475119113922
1761315480546707000,3.23570703125,0.057314272969961166,-0.023124173283576965,0.029433196410536766
1761315480556690000,3.24568994140625,0.04092283919453621,-0.023304609581828117,0.01332755945622921
1761315480566672100,3.255672119140625,0.03486042097210884,-0.017815833911299706,-0.0016628424637019634
1761315480576654000,3.265654052734375,0.036758050322532654,-0.012164033018052578,-0.01381849404424429
1761315480586636000,3.275635986328125,0.04023001343011856,-0.021134091541171074,-0.01644250750541687
1761315480596618000,3.285617919921875,0.04445764049887657,-0.03568693995475769,-0.007479219697415829
1761315480606600000,3.295599853515625,0.048570360988378525,-0.03304268792271614,0.007075222209095955
1761315480616583000,3.3055830078125,0.050607357174158096,-0.033623382449150085,0.019432194530963898
1761315480626564900,3.31556494140625,0.04279710724949837,-0.04366030544042587,0.01895548775792122
1761315480636547000,3.325547119140625,0.033873189240694046,-0.04234909266233444,0.01411045715212822
1761315480646529000,3.335529052734375,0.02240508422255516,-0.031348906457424164,0.017446864396333694
1761315480656511000,3.345510986328125,0.0028642085380852222,-0.017823155969381332,0.01965288817882538
1761315480666494000,3.355493896484375,-0.01606873609125614,-0.009556704200804234,0.010783231817185879
1761315480676476000,3.365475830078125,-0.031072847545146942,-0.004951828625053167,-0.006264080293476582
1761315480686457900,3.375457763671875,-0.028735125437378883,0.00347041804343462,-0.015163565054535866
1761315480696440000,3.385440185546875,-0.021083666011691093,0.008671436458826065,-0.022397568449378014
1761315480706422000,3.395422119140625,-0.006759321317076683,0.0132795050740242,-0.015428874641656876
1761315480716404000,3.405404052734375,0.013489886187016964,0.019014131277799606,-0.0007297415286302567
1761315480726387000,3.415386962890625,0.0381598137319088,-0.003837387776002288,0.01903730444610119
1761315480736369000,3.425368896484375,0.0574028417468071,-0.027533069252967834,0.03613998368382454
1761315480746351000,3.43535107421875,0.07096951454877853,-0.05126822739839554,0.048509567975997925
1761315480756332800,3.445332763671875,0.07521460950374603,-0.07994566857814789,0.05015137046575546
1761315480766315000,3.45531494140625,0.06897162646055222,-0.07478845864534378,0.04632334038615227
1761315480776298000,3.465298095703125,0.04987040162086487,-0.04672977328300476,0.03738081082701683
1761315480786280000,3.475280029296875,0.03945983573794365,-0.011488692834973335,0.008054347708821297
1761315480796262100,3.48526220703125,0.03768106922507286,0.021819831803441048,-0.03022918850183487
1761315480806243800,3.495243896484375,0.048042893409729004,0.04126090556383133,-0.056444279849529266
1761315480816226000,3.50522607421875,0.05654064193367958,0.028061525896191597,-0.06872615963220596
1761315480826208000,3.5152080078125,0.06057612970471382,-0.0000872868113219738,-0.06889686733484268
1761315480836191000,3.52519091796875,0.06657325476408005,-0.04278404638171196,-0.05088411271572113
1761315480846173000,3.5351728515625,0.07033896446228027,-0.0724005252122879,-0.020813561975955963
1761315480856155000,3.54515478515625,0.07653417438268661,-0.07175371795892715,0.009213227778673172
1761315480866137000,3.55513720703125,0.08069003373384476,-0.07131429761648178,0.033352386206388474
1761315480876118800,3.565118896484375,0.08837345242500305,-0.06907129287719727,0.04543778672814369
1761315480886101000,3.57510107421875,0.0945887416601181,-0.05809347331523895,0.04488437995314598
1761315480896084000,3.585083984375,0.1002262532711029,-0.04462534189224243,0.043539904057979584
1761315480906066000,3.59506591796875,0.09668531268835068,-0.03467630222439766,0.04723051190376282
1761315480916048100,3.605048095703125,0.08731786161661148,-0.025197744369506836,0.04915458336472511
1761315480926029800,3.61502978515625,0.08919458836317062,-0.0051095206290483475,0.03866252675652504
1761315480936012000,3.625011962890625,0.09178668260574341,0.019612006843090057,0.021238824352622032
1761315480945995000,3.6349951171875,0.09336859732866287,0.03207346796989441,0.0034315993543714285
1761315480955977000,3.64497705078125,0.09053584933280945,0.04467221349477768,-0.01319149136543274
1761315480965959200,3.654959228515625,0.07997003197669983,0.05211921036243439,-0.02642580308020115
1761315480975940900,3.66494091796875,0.07099991291761398,0.042276304215192795,-0.029182005673646927
1761315480985923000,3.674923095703125,0.0669841319322586,0.023687174543738365,-0.03248964995145798
1761315480995905000,3.684905029296875,0.06214086338877678,0.006219338160008192,-0.035278573632240295
1761315481005888000,3.694887939453125,0.042256634682416916,-0.011396672576665878,-0.03301035985350609
1761315481015870200,3.7048701171875,0.030521728098392487,-0.021132761612534523,-0.020506491884589195
1761315481025852000,3.714851806640625,0.020999062806367874,-0.026378389447927475,-0.010457584634423256
1761315481035834000,3.724834228515625,0.018811319023370743,-0.02095017209649086,-0.014578231610357761
1761315481045816000,3.734816162109375,0.02319861203432083,-0.012077583000063896,-0.017085596919059753
1761315481055799000,3.744799072265625,0.029964661225676537,0.0034257150255143642,-0.02495497837662697
1761315481065781000,3.754781005859375,0.0365581177175045,0.010528897866606712,-0.03705265000462532
1761315481075763000,3.764762939453125,0.041430674493312836,0.024048637598752975,-0.039789821952581406
1761315481085745200,3.7747451171875,0.044368140399456024,0.02300015091896057,-0.03281526640057564
1761315481095726800,3.784726806640625,0.045536842197179794,0.011789645068347454,-0.023635799065232277
1761315481105709000,3.794708984375,0.042349036782979965,0.0012621697969734669,-0.01739734411239624
1761315481115691800,3.80469189453125,0.03389642760157585,-0.001478271558880806,-0.008088726550340652
1761315481125674000,3.814674072265625,0.026886453852057457,-0.00024016806855797768,0.00020808540284633636
1761315481135656000,3.824656005859375,0.017161983996629715,0.0033959755674004555,0.0005445380229502916
1761315481145638000,3.834637939453125,0.012493728660047054,0.002954689785838127,-0.0016009046230465174
1761315481155620000,3.8446201171875,0.010568756610155106,-0.0011968044564127922,-0.010830988176167011
1761315481165602000,3.85460205078125,0.018310032784938812,-0.003617085050791502,-0.016718704253435135
1761315481175585000,3.8645849609375,0.02826371230185032,0.0025199363008141518,-0.020987100899219513
1761315481185567000,3.87456689453125,0.0403459407389164,0.004282948561012745,-0.018403567373752594
1761315481195549000,3.884548828125,0.04948210343718529,0.004206950310617685,-0.006382947787642479
1761315481205531000,3.89453076171875,0.05587821453809738,-0.0004991213791072369,0.008152318187057972
1761315481215513000,3.90451318359375,0.051442455500364304,-0.008427884429693222,0.023255636915564537
1761315481225496000,3.91449609375,0.0443592444062233,-0.001303662545979023,0.026447435840964317
1761315481235478000,3.92447802734375,0.040428515523672104,0.007886217907071114,0.020595192909240723
1761315481245460000,3.9344599609375,0.03083154745399952,0.005877661053091288,0.01056040171533823
1761315481255442000,3.94444189453125,0.029969610273838043,0.0030501321889460087,0.0003988009411841631
1761315481265424100,3.954424072265625,0.02779007889330387,0.0028615803457796574,-0.0016244025900959969
1761315481275405800,3.96440576171875,0.021999692544341087,0.0009526661597192287,-0.010836461558938026
1761315481285389000,3.97438916015625,0.016199326142668724,-0.004853557795286179,-0.026343517005443573
1761315481295371000,3.98437109375,0.025524547323584557,-0.002802460454404354,-0.044430460780858994
1761315481305353000,3.99435302734375,0.03137098625302315,0.0007624467834830284,-0.05219224467873573
1761315481315335000,4.0043349609375,0.035840291529893875,0.004381453152745962,-0.060170575976371765
1761315481325316900,4.01431689453125,0.03279203549027443,-0.0030506309121847153,-0.05694042518734932
1761315481335299000,4.024299072265625,0.029846591874957085,-0.01095919031649828,-0.042450133711099625
1761315481345282000,4.034281982421875,0.028281718492507935,-0.018061574548482895,-0.030400926247239113
1761315481355264000,4.044263916015625,0.024327492341399193,-0.022610852494835854,-0.018062207847833633
1761315481365246000,4.054245849609375,0.022907227277755737,-0.02476508356630802,-0.014861354604363441
1761315481375228000,4.064227783203125,0.014580612070858479,-0.015420878306031227,-0.013830715790390968
1761315481385210000,4.074210205078125,0.009451096877455711,-0.0093272989615798,-0.014514349400997162
1761315481395192800,4.08419287109375,0.009480760432779789,-0.011134497821331024,-0.0004681095015257597
1761315481405175000,4.094175048828125,0.007572605274617672,-0.020170602947473526,0.003711455501616001
1761315481415157000,4.104156982421875,0.015753572806715965,-0.026096399873495102,-0.0034876405261456966
1761315481425139000,4.114138916015625,0.02420431561768055,-0.023350415751338005,-0.010131428018212318
1761315481435121200,4.12412109375,0.02861987054347992,-0.021356837823987007,-0.016010859981179237
1761315481445102800,4.134102783203125,0.024370796978473663,-0.02937987633049488,-0.012247014790773392
1761315481455086000,4.144086181640625,0.014346311800181866,-0.022376129403710365,-0.003365197218954563
1761315481465067800,4.15406787109375,0.003996468614786863,-0.00011689634993672371,-0.0015478557907044888
1761315481475050000,4.164050048828125,-0.0075670648366212845,0.008077014237642288,0.003209297079592943
1761315481485032200,4.1740322265625,-0.01367262750864029,0.00597977451980114,0.0042005255818367004
1761315481495014000,4.184013916015625,-0.011689698323607445,-0.003851898480206728,-0.006391830742359161
1761315481504996000,4.19399609375,-0.004683719947934151,-0.009158778935670853,-0.015336856245994568
1761315481514978800,4.203978759765625,-0.0008203564793802798,-0.00938556157052517,-0.024161260575056076
1761315481524961000,4.2139609375,0.001743735047057271,-0.010313140228390694,-0.016578441485762596
1761315481534943000,4.22394287109375,0.0057769459672272205,-0.0038788614328950644,-0.014799402095377445
1761315481544925000,4.233925048828125,0.007021973840892315,-0.0035848484840244055,-0.007186755537986755
1761315481554907100,4.2439072265625,0.012286506593227386,0.005365454126149416,-0.003906469792127609
1761315481564888800,4.253888916015625,0.017758503556251526,0.0167992040514946,-0.007039944641292095
1761315481574872000,4.2638720703125,0.016761451959609985,0.017893698066473007,-0.0191357284784317
1761315481584853800,4.273853759765625,0.013706006109714508,0.010155616328120232,-0.03836667910218239
1761315481594836000,4.2838359375,0.002784908749163151,-0.0013050362467765808,-0.06305627524852753
1761315481604818000,4.29381787109375,-0.017603453248739243,-0.018486419692635536,-0.07771565020084381
1761315481614800000,4.3037998046875,-0.038999419659376144,-0.04048381745815277,-0.0924237072467804
1761315481624783000,4.313783203125,-0.06314603239297867,-0.06046577915549278,-0.09729649126529694
1761315481634764800,4.323764892578125,-0.08070341497659683,-0.06523693352937698,-0.10264433175325394
1761315481644747000,4.3337470703125,-0.08388908952474594,-0.04155903682112694,-0.10875201970338821
1761315481654729000,4.34372900390625,-0.07896827161312103,-0.005070208106189966,-0.09878475219011307
1761315481664711000,4.3537109375,-0.07044535130262375,0.017679313197731972,-0.0780419185757637
1761315481674692900,4.36369287109375,-0.056823160499334335,0.028956729918718338,-0.04394638165831566
1761315481684675800,4.37367578125,-0.036302704364061356,0.03614566847681999,-0.011309877038002014
1761315481694658000,4.383657958984375,-0.022177206352353096,0.0334426648914814,0.011719061993062496
1761315481704640000,4.393639892578125,-0.007582018617540598,0.023374851793050766,0.015467194840312004
1761315481714622000,4.4036220703125,-0.002838568529114127,0.013569420203566551,0.016496097669005394
1761315481724604000,4.41360400390625,-0.010136162862181664,0.006020157597959042,0.012990578077733517
1761315481734586000,4.423586181640625,-0.023216277360916138,0.0055383918806910515,-0.005471786484122276
1761315481744569000,4.433569091796875,-0.039813097566366196,0.011983774602413177,-0.015406975522637367
1761315481754551000,4.443551025390625,-0.055541668087244034,0.025043021887540817,-0.029846344143152237
1761315481764533000,4.453532958984375,-0.06105973944067955,0.03569566830992699,-0.047821082174777985
1761315481774515000,4.463514892578125,-0.0501004159450531,0.047763481736183167,-0.06384038180112839
1761315481784497000,4.473496826171875,-0.034955285489559174,0.04858187213540077,-0.07726750522851944
1761315481794480000,4.483480224609375,-0.019050471484661102,0.045858755707740784,-0.08612796664237976
1761315481804462000,4.493462158203125,-0.0011774632148444653,0.029977794736623764,-0.09978412091732025
1761315481814444000,4.503444091796875,0.013549666851758957,0.004306818824261427,-0.10579528659582138
1761315481824426000,4.513426025390625,0.02680741623044014,-0.02153303287923336,-0.10125166922807693
1761315481834408000,4.523407958984375,0.032258257269859314,-0.043843965977430344,-0.08043412864208221
1761315481844390000,4.533389892578125,0.030596977099776268,-0.061177682131528854,-0.058946676552295685
1761315481854372900,4.543372802734375,0.022895243018865585,-0.05679092928767204,-0.042798712849617004
1761315481864355000,4.55335498046875,0.016931094229221344,-0.05130162090063095,-0.029100211337208748
1761315481874337000,4.5633369140625,0.0062149157747626305,-0.03177475556731224,-0.018557436764240265
1761315481884319000,4.573319091796875,-0.005639346316456795,-0.0022022174671292305,-0.012104597873985767
1761315481894301000,4.583301025390625,-0.0038333130069077015,0.02331029437482357,-0.007695282809436321
1761315481904283100,4.593283203125,-0.001062826719135046,0.029521852731704712,0.006685521453619003
1761315481914265900,4.603265869140625,-0.0036459360271692276,0.019347749650478363,0.01819075085222721
1761315481924248000,4.613248046875,-0.003790013026446104,0.0005282564088702202,0.022840896621346474
1761315481934230000,4.62322998046875,-0.0035003842785954475,-0.006254054140299559,0.016804229468107224
1761315481944212200,4.633212158203125,-0.010200897231698036,-0.006717710290104151,0.010557785630226135
1761315481954194200,4.643194091796875,-0.023044319823384285,-0.01930340565741062,0.012114308774471283
1761315481964176100,4.653176025390625,-0.03508500009775162,-0.024014804512262344,0.0240617822855711
1761315481974159400,4.663159423828125,-0.05118595436215401,-0.015867093577980995,0.03638552501797676
1761315481984141000,4.67314111328125,-0.06050834804773331,-0.014598097652196884,0.04266153275966644
1761315481994123300,4.683123291015625,-0.07314305752515793,-0.016719261184334755,0.0436943881213665
1761315482004105200,4.693105224609375,-0.07594417035579681,-0.010931146331131458,0.045104000717401505
1761315482014087200,4.703087158203125,-0.07020808756351471,0.0004364396445453167,0.05375313013792038
1761315482024070100,4.713070068359375,-0.052726298570632935,0.0048231990076601505,0.06205367296934128
1761315482034052000,4.723052001953125,-0.03613227605819702,0.008031245321035385,0.06250546127557755
1761315482044034300,4.733034423828125,-0.01745419390499592,-0.001291150227189064,0.06489351391792297
1761315482054016000,4.74301611328125,-0.01099992822855711,-0.011475014500319958,0.056972600519657135
1761315482063998200,4.752998291015625,-0.014591999351978302,-0.029830852523446083,0.04687229543924332
1761315482073980200,4.762980224609375,-0.009569728747010231,-0.04203176125884056,0.030168239027261734
1761315482083963100,4.772963134765625,-0.010922081768512726,-0.036284659057855606,0.023151075467467308
1761315482093945300,4.7829453125,-0.023175394162535667,-0.035508107393980026,0.022098170593380928
1761315482103927000,4.792927001953125,-0.0324394665658474,-0.01815042272210121,0.027128882706165314
1761315482113909200,4.8029091796875,-0.037327442318201065,0.0005409680306911469,0.03226322680711746
1761315482123891200,4.81289111328125,-0.03483871743083,0.006659314502030611,0.033666715025901794
1761315482133873200,4.822873046875,-0.034610994160175323,0.00008606910705566406,0.0300847589969635
1761315482143856000,4.832856201171875,-0.012324864976108074,0.0074872602708637714,0.019039295613765717
1761315482153838000,4.842838134765625,-0.0026334573049098253,0.009231828153133392,0.00511940149590373
1761315482163820000,4.852820068359375,0.0017362572252750397,-0.00279500731267035,-0.0036626383662223816
1761315482173802200,4.86280224609375,0.007397721521556377,-0.01615685224533081,-0.009475933387875557
1761315482183784200,4.8727841796875,0.01936064101755619,-0.030042573809623718,-0.013370808213949203
1761315482193766100,4.88276611328125,0.013118806295096874,-0.048373546451330185,-0.017410997301340103
1761315482203749000,4.8927490234375,0.005890187807381153,-0.05205616354942322,-0.013352872803807259
1761315482213731000,4.90273095703125,-0.0013404926285147667,-0.0410342700779438,-0.00826058629900217
1761315482223713300,4.91271337890625,-0.0032379948534071445,-0.024288048967719078,0.0013449032558128238
1761315482233695000,4.922695068359375,-0.0005920468829572201,-0.008447234518826008,0.015528490766882896
1761315482243677200,4.93267724609375,0.0018165160436183214,-0.008026189170777798,0.025161409750580788
1761315482253660200,4.94266015625,0.008620214648544788,-0.012764448300004005,0.02856341190636158
1761315482263642000,4.95264208984375,0.021968776360154152,-0.018413014709949493,0.037316691130399704
1761315482273624000,4.9626240234375,0.03379073366522789,-0.01706129126250744,0.04126846417784691
1761315482283606000,4.97260595703125,0.04009203985333443,-0.011887834407389164,0.03452454134821892
1761315482293588200,4.982588134765625,0.03975091502070427,-0.014173696748912334,0.027274686843156815
1761315482303570000,4.99256982421875,0.0378936268389225,-0.023712074384093285,0.01570138707756996
1761315482313553200,5.00255322265625,0.0344017930328846,-0.031139297410845757,0.008187362924218178
1761315482323535000,5.01253515625,0.025123339146375656,-0.03132864832878113,0.012885978445410728
1761315482333517000,5.02251708984375,0.01787687838077545,-0.02538820169866085,0.021592650562524796
1761315482343499300,5.032499267578125,0.003049461869522929,-0.012471070513129234,0.03679823502898216
1761315482353481000,5.04248095703125,-0.005571586079895496,0.00047668954357504845,0.0556199736893177
1761315482363463200,5.052463134765625,-0.00602751923725009,0.02397775463759899,0.07211479544639587
1761315482373446100,5.062446044921875,-0.006108131259679794,0.04334995150566101,0.07819568365812302
1761315482383428000,5.072427978515625,-0.0030835792422294617,0.038794614374637604,0.06902535259723663
1761315482393410300,5.082410400390625,0.002928356174379587,0.024630360305309296,0.054830554872751236
1761315482403392000,5.09239208984375,0.012125849723815918,0.0013644527643918991,0.03325682133436203
1761315482413374200,5.102374267578125,0.019375404343008995,-0.016770677641034126,0.006376118864864111
1761315482423356200,5.112356201171875,0.016975630074739456,-0.03316296637058258,-0.013810642063617706
1761315482433339100,5.122339111328125,0.006950898561626673,-0.03329785168170929,-0.018791647627949715
1761315482443321300,5.1323212890625,-0.003944892901927233,-0.016715146601200104,-0.008495068177580833
1761315482453303000,5.142302978515625,-0.007324866950511932,0.009423275478184223,-0.0010732135269790888
1761315482463285200,5.15228515625,-0.009136349894106388,0.024742577224969864,0.005278159398585558
1761315482473267200,5.16226708984375,-0.01773408241569996,0.027131130918860435,0.009336317889392376
1761315482483249200,5.172249267578125,-0.019086435437202454,0.02108336053788662,0.011359787546098232
1761315482493232000,5.182232177734375,-0.016275061294436455,0.01507767103612423,-0.001022504409775138
1761315482503214000,5.192214111328125,-0.022040804848074913,0.004310510586947203,-0.008329153060913086
1761315482513196300,5.2021962890625,-0.020495912060141563,0.0034644193947315216,-0.01406023744493723
1761315482523178000,5.212177978515625,-0.019371526315808296,-0.000984125304967165,-0.019793489947915077
1761315482533160200,5.22216015625,-0.022735746577382088,-0.0013873609714210033,-0.03123241849243641
1761315482543142100,5.23214208984375,-0.021409759297966957,0.0038769091479480267,-0.02985023893415928
1761315482553125000,5.242125,-0.01902947388589382,0.009949816390872002,-0.017149418592453003
1761315482563107300,5.252107421875,-0.021170655265450478,0.006490369793027639,-0.004108451772481203
1761315482573089000,5.262089111328125,-0.03118041343986988,0.018041830509901047,0.00032597780227661133
1761315482583071200,5.2720712890625,-0.0413997620344162,0.03396247699856758,0.001232517883181572
1761315482593053200,5.28205322265625,-0.03739764913916588,0.04557269066572189,0.0023432704620063305
1761315482603036200,5.2920361328125,-0.0379963256418705,0.03888575732707977,0.003748886752873659
1761315482613018000,5.30201806640625,-0.03434398025274277,0.022973738610744476,-0.00009906268678605556
1761315482623000000,5.312,-0.026457563042640686,0.001302266027778387,0.00421392684802413
1761315482632982300,5.321982177734375,-0.022277479991316795,-0.019378742203116417,0.00959401112049818
1761315482642964200,5.331964111328125,-0.015398800373077393,-0.021583838388323784,-0.0015947273932397366
1761315482652946200,5.3419462890625,-0.008195435628294945,-0.007602877914905548,-0.028571953997015953
1761315482662929200,5.35192919921875,-0.009867367334663868,-0.0004906398244202137,-0.04064619541168213
1761315482672911000,5.3619111328125,-0.016799043864011765,-0.0015700189396739006,-0.02692745253443718
1761315482682893000,5.37189306640625,-0.02272670716047287,0.008576358668506145,-0.006834967527538538
1761315482692875300,5.381875244140625,-0.03185228258371353,0.030734889209270477,0.022393260151147842
1761315482702857200,5.391857177734375,-0.03759858384728432,0.04123253747820854,0.04065348580479622
1761315482712839200,5.401839111328125,-0.03370678424835205,0.04124029725790024,0.04237024486064911
1761315482722822100,5.411822265625,-0.027306407690048218,0.04532718285918236,0.03509475663304329
1761315482732804000,5.42180419921875,-0.028226586058735847,0.04547988250851631,0.020144809037446976
1761315482742786000,5.4317861328125,-0.02205071412026882,0.03374173492193222,-0.010799258947372437
1761315482752768000,5.44176806640625,-0.024534009397029877,0.012580854818224907,-0.03907022625207901
1761315482762750200,5.451750244140625,-0.020328080281615257,-0.01348030660301447,-0.07352859526872635
1761315482772732200,5.461732177734375,-0.01705014519393444,-0.04049484804272652,-0.10130072385072708
1761315482782715100,5.471715087890625,-0.012007184326648712,-0.041214700788259506,-0.11848263442516327
1761315482792697000,5.481697021484375,-0.013118657283484936,-0.022085214033722878,-0.12195391952991486
1761315482802679000,5.491678955078125,-0.014939992688596249,-0.0060276854783296585,-0.09745816141366959
1761315482812661200,5.5016611328125,-0.02139672450721264,-0.007545619737356901,-0.0707191452383995
1761315482822643000,5.511642822265625,-0.017332473769783974,-0.012679128907620907,-0.041290946304798126
1761315482832625200,5.521625244140625,-0.007760293781757355,-0.020433422178030014,-0.020142512395977974
1761315482842608000,5.531608154296875,0.009675688110291958,-0.014131851494312286,0.005000125616788864
1761315482852590000,5.541590087890625,0.02134649083018303,-0.006651098839938641,0.018734648823738098
1761315482862572300,5.551572265625,0.036008257418870926,-0.0008611204102635384,0.02723519131541252
1761315482872554000,5.561553955078125,0.046310584992170334,0.0002448577433824539,0.03779526427388191
1761315482882536200,5.5715361328125,0.048948708921670914,-0.010944679379463196,0.03965175524353981
1761315482892519200,5.581519287109375,0.0450059175491333,-0.015195914544165134,0.03710336983203888
1761315482902501000,5.591501220703125,0.040463365614414215,-0.013599882833659649,0.04093938693404198
1761315482912483300,5.6014833984375,0.02779253013432026,-0.008845505304634571,0.038385357707738876
1761315482922465000,5.611465087890625,0.02996806614100933,-0.007432431913912296,0.024480191990733147
1761315482932447000,5.621447021484375,0.03902829810976982,-0.008788052946329117,0.014246150851249695
1761315482942429200,5.63142919921875,0.04244326800107956,-0.013033398427069187,0.013290341943502426
1761315482952412200,5.641412109375,0.03888619318604469,-0.017266953364014626,0.014051785692572594
1761315482962394000,5.65139404296875,0.025529643520712852,-0.004135705064982176,0.0028966034296900034
1761315482972376000,5.6613759765625,0.011664736084640026,0.015264252200722694,-0.011760535649955273
1761315482982358000,5.67135791015625,0.0008799985516816378,0.014434678480029106,-0.025237195193767548
1761315482992340000,5.681340087890625,-0.0027160518802702427,0.010412251576781273,-0.04494812339544296
1761315483002322000,5.691322021484375,-0.012831270694732666,-0.0012470674701035023,-0.05100042372941971
1761315483012305000,5.701304931640625,-0.026959801092743874,-0.010785621590912342,-0.05695725604891777
1761315483022287000,5.711287109375,-0.028660230338573456,-0.01639583706855774,-0.05408450588583946
1761315483032269000,5.72126904296875,-0.033276092261075974,-0.03145774453878403,-0.03949013352394104
1761315483042251000,5.7312509765625,-0.039168067276477814,-0.035969674587249756,-0.017032761126756668
1761315483052233000,5.74123291015625,-0.03493960201740265,-0.01618591509759426,0.0009258741047233343
1761315483062215200,5.751215087890625,-0.02025572955608368,-0.00548213766887784,0.003578648902475834
1761315483072198000,5.761197998046875,-0.007387717720121145,0.009218478575348854,-0.0030870961491018534
1761315483082180000,5.77118017578125,0.0009168173419311643,0.0011501656845211983,-0.0029624600429087877
1761315483092162000,5.781162109375,0.008525684475898743,-0.01715097762644291,0.00948752835392952
1761315483102144000,5.79114404296875,0.00674855662509799,-0.02563660778105259,0.008797770366072655
1761315483112126200,5.801126220703125,-0.001459699822589755,-0.01888469234108925,0.007187964394688606
1761315483122108000,5.81110791015625,-0.015322784893214703,-0.018095597624778748,-0.0028444300405681133
1761315483132091100,5.821091064453125,-0.027981942519545555,-0.01897427812218666,-0.024317815899848938
1761315483142072800,5.83107275390625,-0.03861754387617111,-0.018932998180389404,-0.04176444932818413
1761315483152055000,5.841054931640625,-0.04502284154295921,-0.014462614431977272,-0.048808928579092026
1761315483162037200,5.851037353515625,-0.039067480713129044,-0.016770243644714355,-0.04641261696815491
1761315483172019000,5.86101904296875,-0.027286523953080177,-0.016924042254686356,-0.0369458943605423
1761315483182001200,5.871001220703125,-0.01803044229745865,-0.018654566258192062,-0.03240174800157547
1761315483191983900,5.88098388671875,0.0022070701234042645,-0.02791893668472767,-0.03187912330031395
1761315483201966000,5.890966064453125,0.02187957428395748,-0.03261009603738785,-0.02413012459874153
1761315483211948000,5.900947998046875,0.021096324548125267,-0.0421694740653038,-0.005402011796832085
1761315483221930000,5.910929931640625,0.014087950810790062,-0.041404083371162415,0.015052130445837975
1761315483231912200,5.920912109375,0.013109666295349598,-0.030319277197122574,0.03189977630972862
1761315483241894000,5.930893798828125,0.005655745044350624,-0.015188793651759624,0.04216279834508896
1761315483251877000,5.940877197265625,-0.010740671306848526,-0.004064504057168961,0.03831277787685394
1761315483261858800,5.95085888671875,-0.014174817129969597,-0.006954033859074116,0.023469384759664536
1761315483271841000,5.960841064453125,-0.006317427381873131,-0.018638651818037033,0.0078068021684885025
1761315483281823000,5.970822998046875,0.004455059301108122,-0.0290934257209301,-0.007535669021308422
1761315483291805000,5.980804931640625,0.016703804954886436,-0.02634384296834469,-0.013666209764778614
1761315483301787100,5.990787109375,0.02803315781056881,-0.023927025496959686,-0.008702609688043594
1761315483311769900,6.000769775390625,0.032122157514095306,-0.01700490340590477,-0.004369373898953199
1761315483321752000,6.010751953125,0.02786669135093689,-0.017715435475111008,-0.0068176183849573135
1761315483331734000,6.020734130859375,0.02204500511288643,-0.00823081936687231,-0.00982728973031044
1761315483341716000,6.030716064453125,0.017987679690122604,0.00603147316724062,-0.0056767538189888
1761315483351698000,6.040697998046875,0.015918688848614693,0.015627875924110413,-0.008418483659625053
1761315483361680100,6.05068017578125,0.018042827025055885,0.018414607271552086,-0.010366318747401237
1761315483371663000,6.0606630859375,0.020376285538077354,0.0051973373629152775,-0.015955191105604172
1761315483381645000,6.07064501953125,0.0326358824968338,-0.011194419115781784,-0.026564691215753555
1761315483391627000,6.080626953125,0.03844974935054779,-0.03810682147741318,-0.030742786824703217
1761315483401609000,6.09060888671875,0.04163249209523201,-0.053984858095645905,-0.02143131196498871
1761315483411591200,6.100591064453125,0.045822158455848694,-0.059447236359119415,-0.01263408549129963
1761315483421572900,6.11057275390625,0.05321882292628288,-0.05592546984553337,-0.004599595442414284
1761315483431556000,6.12055615234375,0.058889493346214294,-0.054741162806749344,0.005993926897644997
1761315483441538000,6.1305380859375,0.06340088695287704,-0.03432909771800041,0.021976355463266373
1761315483451520000,6.14052001953125,0.06796496361494064,-0.020381756126880646,0.04265068098902702
1761315483461502000,6.150501953125,0.06229988485574722,-0.009512597694993019,0.06343771517276764
1761315483471484000,6.16048388671875,0.056276679039001465,0.004962613340467215,0.06862245500087738
1761315483481466000,6.170466064453125,0.052664898335933685,0.02529638074338436,0.05970965325832367
1761315483491449000,6.180448974609375,0.05696813389658928,0.025484733283519745,0.04688825458288193
1761315483501431000,6.19043115234375,0.05807414650917053,0.01065145805478096,0.039950452744960785
1761315483511413000,6.2004130859375,0.05184319615364075,0.0031276624649763107,0.029011009261012077
1761315483521395000,6.21039501953125,0.05564485862851143,0.006667802110314369,0.01597909815609455
1761315483531377200,6.220377197265625,0.05708318203687668,0.01900819130241871,0.013393411412835121
1761315483541358800,6.23035888671875,0.05250813812017441,0.025558767840266228,0.013008318841457367
1761315483551342000,6.240342041015625,0.048954449594020844,0.0423765629529953,0.008257534354925156
1761315483561324000,6.250323974609375,0.045648399740457535,0.05734565854072571,0.01439212542027235
1761315483571306000,6.260305908203125,0.03438437730073929,0.058114346116781235,0.030515793710947037
1761315483581288200,6.2702880859375,0.027140581980347633,0.05098213627934456,0.04750755801796913
1761315483591270000,6.280269775390625,0.027093710377812386,0.0417388379573822,0.05895538255572319
1761315483601252000,6.290252197265625,0.02784578688442707,0.029058728367090225,0.0592118464410305
1761315483611234800,6.30023486328125,0.029676558449864388,0.018615175038576126,0.05761593207716942
1761315483621217000,6.310217041015625,0.02783524990081787,0.013550376519560814,0.044052984565496445
1761315483631199200,6.32019921875,0.023992011323571205,0.0058001126162707806,0.02961839735507965
1761315483641181000,6.330180908203125,0.0093358363956213,-0.007554308511316776,0.012686286121606827
1761315483651163100,6.3401630859375,-0.005270638503134251,-0.01781447045505047,-0.010748857632279396
1761315483661145000,6.35014501953125,-0.018132373690605164,-0.018712222576141357,-0.029172340407967567
1761315483671128000,6.360128173828125,-0.018447259441018105,-0.012708725407719612,-0.04981378838419914
1761315483681110000,6.370110107421875,-0.016114329919219017,-0.007411963772028685,-0.06295142322778702
1761315483691092000,6.380092041015625,-0.010587302036583424,-0.011232865042984486,-0.058469757437705994
1761315483701074200,6.39007421875,0.012630135752260685,0.018665645271539688,-0.03438519313931465
1761315483711056000,6.400055908203125,0.029303649440407753,0.03593571111559868,-0.00930243730545044
1761315483721038000,6.4100380859375,0.03392689675092697,0.033446453511714935,0.0013470104895532131
1761315483731020800,6.420020751953125,0.034225255250930786,0.03635392338037491,-0.0009621258359402418
1761315483741003000,6.4300029296875,0.04838448390364647,0.03569239377975464,-0.01380655076354742
1761315483750985000,6.43998486328125,0.05492337420582771,0.018725063651800156,-0.024875685572624207
1761315483760967000,6.449966796875,0.04860395938158035,-0.002410581335425377,-0.028535667806863785
1761315483770949000,6.45994921875,0.03195016831159592,-0.016366641968488693,-0.022717198356986046
1761315483780931000,6.46993115234375,0.03671429678797722,-0.012968182563781738,-0.0253920778632164
1761315483790914000,6.4799140625,0.052625954151153564,0.0026961318217217922,-0.019805241376161575
1761315483800896000,6.48989599609375,0.06136884540319443,0.00937933474779129,-0.0167015939950943
1761315483810878000,6.4998779296875,0.06328538805246353,-0.007233731914311647,-0.021188335493206978
1761315483820860000,6.50985986328125,0.06286913901567459,-0.015313495881855488,-0.02047940343618393
1761315483830842000,6.519842041015625,0.0754215270280838,-0.01665915921330452,-0.02067182958126068
1761315483840824000,6.529823974609375,0.08216411620378494,-0.020112212747335434,-0.013958534225821495
1761315483850807000,6.53980712890625,0.08617053925991058,-0.01853741891682148,-0.0053336480632424355
1761315483860789000,6.5497890625,0.08866219222545624,-0.02045995555818081,-0.006552577018737793
1761315483870771000,6.55977099609375,0.08978510648012161,-0.024399004876613617,-0.010925634764134884
1761315483880753200,6.569753173828125,0.07957480847835541,-0.020705997943878174,-0.02369788847863674
1761315483890734800,6.57973486328125,0.0653562992811203,0.0028121774084866047,-0.03690571337938309
1761315483900717000,6.589717041015625,0.061892319470644,0.02534305304288864,-0.04199527949094772
1761315483910700000,6.599699951171875,0.06338971108198166,0.04095656797289848,-0.03157338872551918
1761315483920682000,6.609681884765625,0.06349437683820724,0.049093324691057205,-0.013327538967132568
1761315483930664000,6.619663818359375,0.0579795204102993,0.04726853594183922,-0.0020035887137055397
1761315483940646000,6.62964599609375,0.050061143934726715,0.04181757941842079,-0.006603667046874762
1761315483950627800,6.6396279296875,0.042524196207523346,0.02281867526471615,-0.0033014463260769844
1761315483960609800,6.64960986328125,0.03137274459004402,0.006376319099217653,0.003752734512090683
1761315483970592800,6.6595927734375,0.026619119569659233,-0.013203471899032593,0.018950754776597023
1761315483980574700,6.66957470703125,0.021692804992198944,-0.03246025741100311,0.01681969314813614
1761315483990557000,6.679556884765625,0.023444365710020065,-0.048589691519737244,-0.0024265178944915533
1761315484000539000,6.689538818359375,0.03336011618375778,-0.05410589650273323,-0.024612778797745705
1761315484010520800,6.699520751953125,0.03869364783167839,-0.04808691889047623,-0.04721103608608246
1761315484020502800,6.709502685546875,0.042024727910757065,-0.03364352881908417,-0.05955345556139946
1761315484030485800,6.71948583984375,0.036659736186265945,-0.01139885000884533,-0.0466027557849884
1761315484040467700,6.7294677734375,0.02844681218266487,-0.0022580819204449654,-0.019474999979138374
1761315484050450000,6.739449951171875,0.026664607226848602,0.01211849320679903,0.01748698018491268
1761315484060432000,6.749431884765625,0.026921071112155914,0.0266505666077137,0.046087730675935745
1761315484070413800,6.759413818359375,0.024298755452036858,0.025743825361132622,0.05859481915831566
1761315484080396000,6.76939599609375,0.021343445405364037,0.020731225609779358,0.05367888882756233
1761315484090377700,6.779377685546875,0.029767604544758797,0.013561627827584743,0.0384744331240654
1761315484100361000,6.78936083984375,0.028025366365909576,-0.008725835010409355,0.021663496270775795
1761315484110342700,6.7993427734375,0.02395765297114849,-0.0243372842669487,0.004193158820271492
1761315484120324900,6.809324951171875,0.01969153620302677,-0.02890673652291298,-0.008165506646037102
1761315484130307000,6.81930712890625,0.016888560727238655,-0.02324618771672249,-0.02315959706902504
1761315484140288800,6.829288818359375,0.013661609031260014,-0.010698170401155949,-0.03409400209784508
1761315484150271000,6.83927099609375,0.008189195767045021,-0.000956027302891016,-0.029798738658428192
1761315484160253700,6.849253662109375,0.004730015527456999,0.011293182149529457,-0.016273874789476395
1761315484170236000,6.85923583984375,0.0004454537993296981,0.012627823278307915,-0.0030130259692668915
1761315484180217900,6.8692177734375,-0.006023364141583443,0.01067945547401905,0.011122500523924828
1761315484190199800,6.87919970703125,-0.010019303299486637,0.004338468424975872,0.009343622252345085
1761315484200182000,6.88918212890625,-0.01668945699930191,-0.008287312462925911,-0.003987629897892475
1761315484210163700,6.899163818359375,-0.020006489008665085,-0.01419779658317566,-0.01882917806506157
1761315484220147000,6.90914697265625,-0.020324472337961197,-0.010324761271476746,-0.027706025168299675
1761315484230128600,6.919128662109375,-0.023209257051348686,0.000368727371096611,-0.023253854364156723
1761315484240110800,6.92911083984375,-0.027697483077645302,-0.005705410148948431,-0.020317452028393745
1761315484250092800,6.9390927734375,-0.041300877928733826,-0.006168600637465715,-0.03341268002986908
1761315484260074800,6.94907470703125,-0.04199010506272316,-0.00028141681104898453,-0.04329460859298706
1761315484270057000,6.959056884765625,-0.05410079285502434,0.01044466532766819,-0.04934052377939224
1761315484280039000,6.969038818359375,-0.06062820181250572,0.006205179262906313,-0.058138541877269745
1761315484290022000,6.97902197265625,-0.06262346357107162,0.007327200844883919,-0.07042290270328522
1761315484300003800,6.98900390625,-0.05459349602460861,0.010003677569329739,-0.0764741376042366
1761315484309985800,6.99898583984375,-0.04758622124791145,-0.003173310775309801,-0.06903062760829926
1761315484319967700,7.0089677734375,-0.046700455248355865,-0.012855232693254948,-0.05222208797931671
1761315484329950000,7.018949951171875,-0.05451003834605217,-0.003861736971884966,-0.03542618080973625
1761315484339933000,7.028932861328125,-0.05926511436700821,0.005021769553422928,-0.025512827560305595
1761315484349915000,7.038914794921875,-0.05866067484021187,0.020229950547218323,-0.02564207650721073
1761315484359896800,7.048896728515625,-0.0585448257625103,0.03767924755811691,-0.01841558888554573
1761315484369878800,7.058878662109375,-0.04778985306620598,0.03460289537906647,-0.003313849912956357
1761315484379861000,7.068861083984375,-0.038617126643657684,0.022612281143665314,-0.0026573806535452604
1761315484389842700,7.0788427734375,-0.02822479046881199,0.01695888862013817,-0.005592796485871077
1761315484399825000,7.088824951171875,-0.018648594617843628,0.008576324209570885,-0.023122254759073257
1761315484409808000,7.098807861328125,-0.016172852367162704,0.009270211681723595,-0.040394701063632965
1761315484419789800,7.108789794921875,-0.014978158287703991,0.010613508522510529,-0.05089661106467247
1761315484429771800,7.118771728515625,-0.0185819324105978,0.006467998493462801,-0.06688593327999115
1761315484439753700,7.128753662109375,-0.015616768971085548,-0.00010122079402208328,-0.08307076245546341
1761315484449736000,7.13873583984375,-0.013373988680541515,0.0013171788305044174,-0.0911378487944603
1761315484459717600,7.148717529296875,-0.012122303247451782,0.005949747283011675,-0.09139297902584076
1761315484469700900,7.158700927734375,-0.013592134229838848,0.004111433867365122,-0.07566358149051666
1761315484479682800,7.168682861328125,-0.022735565900802612,0.009705936536192894,-0.05671173334121704
1761315484489664800,7.178664794921875,-0.02985554188489914,0.025762703269720078,-0.031246311962604523
1761315484499647000,7.18864697265625,-0.035485997796058655,0.03449627384543419,-0.018275387585163116
1761315484509628700,7.198628662109375,-0.03676469996571541,0.03773490712046623,-0.012179836630821228
1761315484519611000,7.20861083984375,-0.037043798714876175,0.03550025075674057,-0.013821674510836601
1761315484529592800,7.2185927734375,-0.03484514355659485,0.027064252644777298,-0.02277045138180256
1761315484539575800,7.228575927734375,-0.034512512385845184,0.006307842675596476,-0.03522712364792824
1761315484549558000,7.23855810546875,-0.04421818628907204,-0.02544359490275383,-0.027881387621164322
1761315484559539700,7.248539794921875,-0.03919040411710739,-0.04281699284911156,-0.021763039752840996
1761315484569522000,7.25852197265625,-0.031372930854558945,-0.03842790424823761,-0.01877734065055847
1761315484579503900,7.26850390625,-0.02581304870545864,-0.025272686034440994,-0.016574107110500336
1761315484589485800,7.27848583984375,-0.024038633331656456,-0.01778777316212654,-0.012799140065908432
1761315484599469000,7.288468994140625,-0.020500091835856438,-0.019202709197998047,-0.008233150467276573
1761315484609450800,7.29845068359375,-0.027248991653323174,-0.026113247498869896,-0.0014180305879563093
1761315484619433000,7.308432861328125,-0.022307494655251503,-0.024139313027262688,0.0013452653074637055
1761315484629415000,7.318414794921875,-0.016024284064769745,-0.011560436338186264,0.0066346037201583385
1761315484639396900,7.32839697265625,-0.006241160910576582,-0.006326525937765837,0.01038460060954094
1761315484649378800,7.33837890625,-0.0037475593853741884,-0.017915969714522362,0.006096469238400459
1761315484659361800,7.34836181640625,-0.004354493692517281,-0.023406874388456345,-0.011907299049198627
1761315484669344000,7.358343994140625,-0.004852603189647198,-0.01964282989501953,-0.019781818613409996
1761315484679325700,7.36832568359375,-0.006309618707746267,-0.016999375075101852,-0.027095656841993332
1761315484689308000,7.378307861328125,-0.009201630018651485,-0.01546176802366972,-0.023212632164359093
1761315484699289900,7.388289794921875,-0.019456133246421814,-0.015044184401631355,-0.022262416779994965
1761315484709271800,7.398271728515625,-0.032914500683546066,-0.00972728244960308,-0.024949902668595314
1761315484719255000,7.408255126953125,-0.04603482782840729,0.006683913990855217,-0.02161935344338417
1761315484729236700,7.41823681640625,-0.048816561698913574,0.01985577866435051,-0.020487338304519653
1761315484739219000,7.428218994140625,-0.04544207081198692,0.022939719259738922,-0.025355864316225052
1761315484749201000,7.438200927734375,-0.031881242990493774,0.018092196434736252,-0.032721828669309616
1761315484759182800,7.448182861328125,-0.012039895169436932,0.001691918820142746,-0.0454525351524353
1761315484769164800,7.458164794921875,-0.0037757703103125095,-0.014958029612898827,-0.05086797848343849
1761315484779147000,7.46814697265625,0.0006834263913333416,-0.020673705264925957,-0.041145045310258865
1761315484789130000,7.4781298828125,0.004095915704965591,-0.015782378613948822,-0.0213411096483469
1761315484799112000,7.48811181640625,0.007652034983038902,-0.009854448959231377,0.0020512978080660105
1761315484809094000,7.498093994140625,0.005766659509390593,-0.004130776040256023,0.025813695043325424
1761315484819075800,7.508075927734375,0.0012004036689177155,-0.006248521618545055,0.041108496487140656
1761315484829058000,7.51805810546875,-0.003436099970713258,-0.021484604105353355,0.04437282681465149
1761315484839039700,7.528039794921875,0.0019413548288866878,-0.025985080748796463,0.04363859444856644
1761315484849023000,7.53802294921875,0.002613350050523877,-0.02477351203560829,0.03909004479646683
1761315484859004700,7.548004638671875,0.004303125664591789,-0.02710164710879326,0.03241775929927826
1761315484868987000,7.55798681640625,0.00609238725155592,-0.024623608216643333,0.027633536607027054
1761315484878968800,7.56796875,0.012180905789136887,-0.015908678993582726,0.023547716438770294
1761315484888950800,7.57795068359375,0.01206920575350523,-0.004999072290956974,0.021848995238542557
1761315484898933000,7.58793310546875,0.015376584604382515,0.005070606712251902,0.011384901590645313
1761315484908914700,7.597914794921875,0.012804187834262848,0.00787554681301117,-0.0029673895332962275
1761315484918898000,7.60789794921875,0.013566384091973305,0.008088866248726845,-0.02870843932032585
1761315484928880400,7.61788037109375,0.008608093485236168,0.0018432536162436008,-0.047384198755025864
1761315484938862600,7.627862548828125,-0.001638151821680367,-0.0015536081045866013,-0.05205165222287178
1761315484948844500,7.637844482421875,-0.01130206510424614,0.014053513295948505,-0.046932876110076904
1761315484958826500,7.647826416015625,-0.0323740616440773,0.023172974586486816,-0.040379103273153305
1761315484968808400,7.657808349609375,-0.040650349110364914,0.02282486855983734,-0.04057134687900543
1761315484978791400,7.66779150390625,-0.02625569887459278,0.028565043583512306,-0.04857201501727104
1761315484988773600,7.677773681640625,-0.006074677687138319,0.020457884296774864,-0.05511079728603363
1761315484998755300,7.68775537109375,-0.0013619482051581144,0.001629602164030075,-0.0462706983089447
1761315485008737500,7.697737548828125,0.0036259349435567856,-0.00996297225356102,-0.013494049198925495
1761315485018719500,7.707719482421875,-0.0007674820953980088,0.058601707220077515,0.07578948885202408
1761315485028701400,7.717701416015625,0.01109833549708128,-0.019015520811080933,0.03192446380853653
1761315485038684700,7.7276845703125,0.01793360337615013,-0.027017254382371902,0.006574898026883602
1761315485048666400,7.737666259765625,0.013412835076451302,-0.04389147832989693,0.004915379919111729
1761315485058648600,7.747648681640625,-0.0011232311371713877,-0.05859585478901863,-0.0023720937315374613
1761315485068630500,7.757630615234375,-0.008844983763992786,-0.04545652121305466,-0.005594960413873196
1761315485078612500,7.767612548828125,-0.015008869580924511,-0.02451874502003193,0.0017274005804210901
1761315485088594400,7.777594482421875,-0.030253611505031586,-0.0008176383562386036,0.011446652933955193
1761315485098576600,7.78757666015625,-0.041674576699733734,0.01017003133893013,0.013308202847838402
1761315485108559600,7.7975595703125,-0.045229438692331314,0.012808287516236305,-0.00004152185283601284
1761315485118541600,7.80754150390625,-0.04502304270863533,0.024043364450335503,-0.028870772570371628
1761315485128523500,7.8175234375,-0.05872287228703499,0.03421424329280853,-0.06679532676935196
1761315485138505500,7.82750537109375,-0.06695151329040527,0.04285780340433121,-0.07257811725139618
