time,seconds_elapsed,z,y,x
1761315178660678400,0.078678466796875,0.09274013340473175,-0.08957874029874802,0.23500412702560425
1761315178670660600,0.08866064453125,0.12012595683336258,-0.0842103362083435,0.22548705339431763
1761315178680641500,0.0986416015625,0.1305609494447708,-0.0659320205450058,0.19805829226970673
1761315178690623500,0.10862353515625,0.13629525899887085,-0.030743936076760292,0.15075495839118958
1761315178700604400,0.1186044921875,0.12423598021268845,0.004812770057469606,0.09337612986564636
1761315178710586600,0.128586669921875,0.10439250618219376,0.04567338153719902,0.03269839659333229
1761315178720568300,0.138568359375,0.07697751373052597,0.07921053469181061,-0.017477557063102722
1761315178730549500,0.148549560546875,0.03990976884961128,0.08512009680271149,-0.040047578513622284
1761315178740531500,0.158531494140625,0.0024258552584797144,0.07089083641767502,-0.018586695194244385
1761315178750512600,0.1685126953125,-0.016140637919306755,0.0534101165831089,0.02572191320359707
1761315178760494600,0.17849462890625,-0.011573086492717266,0.03370478004217148,0.06847868859767914
1761315178770475300,0.188475341796875,0.02044370211660862,-0.006480720825493336,0.09169213473796844
1761315178780457500,0.19845751953125,0.0659196674823761,-0.060676202178001404,0.08792193979024887
1761315178790438400,0.2084384765625,0.10761438310146332,-0.12122822552919388,0.0684419795870781
1761315178800420600,0.218420654296875,0.13601243495941162,-0.17657649517059326,0.04850129410624504
1761315178810401500,0.228401611328125,0.1386774629354477,-0.19179166853427887,0.02730759233236313
1761315178820383500,0.238383544921875,0.12489160895347595,-0.1984993815422058,0.004651547409594059
1761315178830365400,0.248365478515625,0.09617500752210617,-0.18029454350471497,-0.016521915793418884
1761315178840346600,0.2583466796875,0.07955287396907806,-0.1374148577451706,-0.02133910544216633
1761315178850328300,0.268328369140625,0.06641656160354614,-0.10300923138856888,-0.01515284739434719
1761315178860309500,0.2783095703125,0.04959855601191521,-0.09353985637426376,-0.015404916368424892
1761315178870291500,0.28829150390625,0.0338028147816658,-0.07991912215948105,-0.011695931665599346
1761315178880272400,0.2982724609375,0.03227623924612999,-0.053043607622385025,-0.015037434175610542
1761315178890254600,0.308254638671875,0.03769337385892868,-0.030996892601251602,-0.021505985409021378
1761315178900235500,0.318235595703125,0.05906311050057411,-0.027238372713327408,-0.02910797856748104
1761315178910217500,0.328217529296875,0.07347879558801651,-0.04735669121146202,-0.01766650751233101
1761315178920198400,0.338198486328125,0.08466722071170807,-0.06026614457368851,0.01064898632466793
1761315178930180600,0.3481806640625,0.08900950849056244,-0.07989524304866791,0.039314985275268555
1761315178940161500,0.35816162109375,0.08144047856330872,-0.08804594725370407,0.055539894849061966
1761315178950143500,0.3681435546875,0.07405899465084076,-0.07651738822460175,0.05345224216580391
1761315178960125400,0.37812548828125,0.07998324930667877,-0.06723124533891678,0.041139841079711914
1761315178970106600,0.388106689453125,0.0729660838842392,-0.06372279673814774,0.021697701886296272
1761315178980088600,0.398088623046875,0.050108037889003754,-0.049077343195676804,0.010842699557542801
1761315178990069500,0.408069580078125,0.026153437793254852,-0.022488076239824295,0.010996097698807716
1761315179000051500,0.418051513671875,0.006782731972634792,-0.01597113348543644,0.011418039910495281
1761315179010032400,0.428032470703125,-0.0050203981809318066,-0.03271576017141342,-0.001423456473276019
1761315179020014600,0.4380146484375,-0.013862752355635166,-0.02258068136870861,-0.014373806305229664
1761315179029995500,0.44799560546875,-0.006045309826731682,0.014168011024594307,-0.011300252750515938
1761315179039977500,0.4579775390625,0.0003860541619360447,0.020025627687573433,-0.00006267824210226536
1761315179049959400,0.46795947265625,-0.001344734220765531,-0.0018775416538119316,0.009466378018260002
1761315179059940600,0.477940673828125,-0.0015321985119953752,-0.02470644749701023,0.022021085023880005
1761315179069922600,0.487922607421875,0.008384081535041332,-0.03233693540096283,0.034000515937805176
1761315179079903500,0.497903564453125,0.01672741211950779,-0.0414261519908905,0.035482797771692276
1761315179089885400,0.507885498046875,0.02767007425427437,-0.040403496474027634,0.03399195894598961
1761315179099866400,0.517866455078125,0.035179655998945236,-0.029476281255483627,0.014482972212135792
1761315179109848600,0.5278486328125,0.041424237191677094,-0.011033358052372932,-0.01016431674361229
1761315179119829500,0.53782958984375,0.038916487246751785,0.0037815766409039497,-0.019957425072789192
1761315179129811500,0.5478115234375,0.028863055631518364,0.011434170417487621,-0.02464299090206623
1761315179139792400,0.55779248046875,0.009991970844566822,0.0039459108375012875,-0.018842026591300964
1761315179149774600,0.567774658203125,-0.00530629139393568,-0.009634080342948437,-0.006450336892157793
1761315179159756500,0.577756591796875,-0.021733161062002182,-0.021031130105257034,0.004865232855081558
1761315179169737500,0.587737548828125,-0.03145822510123253,-0.03603138402104378,0.012656044214963913
1761315179179719400,0.597719482421875,-0.039190106093883514,-0.042524419724941254,0.006598751060664654
1761315179189700600,0.60770068359375,-0.03635597229003906,-0.027293803170323372,0.0028064101934432983
1761315179199682600,0.6176826171875,-0.03799569979310036,-0.00865058321505785,0.00003349455073475838
1761315179209663500,0.62766357421875,-0.036664918065071106,0.011102881282567978,-0.006997783202677965
1761315179219645400,0.6376455078125,-0.028522193431854248,0.01574413664638996,-0.018348943442106247
1761315179229626400,0.64762646484375,-0.023513318970799446,0.013340901583433151,-0.03664672374725342
1761315179239608600,0.657608642578125,-0.014229736290872097,0.012224704027175903,-0.06217515096068382
1761315179249589500,0.667589599609375,-0.009637380950152874,0.015675093978643417,-0.07539508491754532
1761315179259571500,0.677571533203125,-0.005519557744264603,0.016764547675848007,-0.06734294444322586
1761315179269553400,0.687553466796875,-0.013783613219857216,0.021145448088645935,-0.05150299891829491
1761315179279534600,0.69753466796875,-0.016598546877503395,0.019880827516317368,-0.03959857299923897
1761315179289516500,0.7075166015625,-0.01771627552807331,0.01204687263816595,-0.030503612011671066
1761315179299497700,0.717497802734375,-0.017124399542808533,0.007982272654771805,-0.008418512530624866
1761315179309479400,0.7274794921875,-0.015278296545147896,0.006769202649593353,0.009236647747457027
1761315179319460400,0.73746044921875,-0.011520938947796822,-0.006218493916094303,0.02124553918838501
1761315179329442600,0.747442626953125,-0.016881614923477173,-0.03161786124110222,0.011790253221988678
1761315179339423500,0.757423583984375,-0.029391707852482796,-0.060729265213012695,-0.0058397091925144196
1761315179349405400,0.767405517578125,-0.0339297354221344,-0.06911209970712662,-0.018203966319561005
1761315179359387400,0.777387451171875,-0.03801530972123146,-0.06927825510501862,-0.020945191383361816
1761315179369368600,0.78736865234375,-0.021988674998283386,-0.051163963973522186,-0.015096623450517654
1761315179379350500,0.7973505859375,-0.0027749536093324423,-0.025084003806114197,-0.006652410142123699
1761315179389331500,0.80733154296875,0.011223952285945415,-0.00684268306940794,-0.014791563153266907
1761315179399313400,0.8173134765625,0.01898323930799961,0.029727984219789505,-0.02381770871579647
1761315179409294600,0.827294677734375,0.026938633993268013,0.06335598230361938,-0.03390762582421303
1761315179419276500,0.837276611328125,0.020870601758360863,0.0705830305814743,-0.03359420597553253
1761315179429257500,0.847257568359375,0.014895531348884106,0.08081116527318954,-0.02828599326312542
1761315179439239400,0.857239501953125,0.011706380173563957,0.07487987726926804,-0.023147493600845337
1761315179449220400,0.867220458984375,0.014559958130121231,0.05331653356552124,-0.03213326260447502
1761315179459202600,0.87720263671875,0.01205599494278431,0.011566828936338425,-0.05766285955905914
1761315179469184500,0.8871845703125,-0.0003937501460313797,-0.027609867975115776,-0.0913744792342186
1761315179479165400,0.89716552734375,-0.01078728400170803,-0.06795132160186768,-0.10928031802177429
1761315179489147400,0.9071474609375,-0.015621187165379524,-0.08717162162065506,-0.10248499363660812
1761315179499128600,0.917128662109375,-0.013023443520069122,-0.07361987233161926,-0.06964704394340515
1761315179509110500,0.927110595703125,0.00046200514771044254,-0.05852746590971947,-0.023336542770266533
1761315179519091700,0.937091796875,0.018167763948440552,-0.05102214589715004,0.01821063458919525
1761315179529073400,0.947073486328125,0.04504438862204552,-0.039801448583602905,0.04972647875547409
1761315179539054300,0.957054443359375,0.05781339854001999,-0.026458363980054855,0.06946812570095062
1761315179549036500,0.96703662109375,0.06105047091841698,-0.029895173385739326,0.07034989446401596
1761315179559017500,0.977017578125,0.0539536215364933,-0.04315764084458351,0.05764266476035118
1761315179568999400,0.98699951171875,0.04289697855710983,-0.03435136750340462,0.0356295071542263
1761315179578981400,0.9969814453125,0.02608843520283699,-0.007173809688538313,0.0029831458814442158
1761315179588962600,1.006962646484375,0.011906038038432598,0.011460593901574612,-0.034529607743024826
1761315179598944500,1.016944580078125,-0.0018190951086580753,0.020770471543073654,-0.06525716185569763
1761315179608925700,1.02692578125,-0.01965268701314926,0.027755413204431534,-0.07607598602771759
1761315179618907400,1.036907470703125,-0.032494235783815384,0.03076154552400112,-0.068424753844738
1761315179628888600,1.046888671875,-0.037010692059993744,0.0320313386619091,-0.04443393647670746
1761315179638870500,1.05687060546875,-0.032529499381780624,0.019029375165700912,-0.014260223135352135
1761315179648851500,1.0668515625,-0.020003056153655052,-0.0007717586122453213,0.02596895582973957
1761315179658834400,1.07683447265625,-0.011051476001739502,-0.004244332201778889,0.06843458861112595
1761315179668816400,1.08681640625,0.0059333667159080505,-0.006931728217750788,0.0989389717578888
1761315179678797600,1.096797607421875,0.02059127576649189,-0.019874218851327896,0.10210590064525604
1761315179688779300,1.106779296875,0.034940123558044434,-0.03465396165847778,0.08542972058057785
1761315179698760400,1.116760498046875,0.0462912991642952,-0.04315119609236717,0.06865866482257843
1761315179708742400,1.126742431640625,0.03795107826590538,-0.030173612758517265,0.04770118370652199
1761315179718723600,1.1367236328125,0.03170476481318474,-0.006071356125175953,0.023489782586693764
1761315179728705300,1.146705322265625,0.017493870109319687,0.012407253496348858,0.00788552314043045
1761315179738686200,1.156686279296875,-0.002807874931022525,0.03529512509703636,-0.005108569748699665
1761315179748668400,1.16666845703125,-0.006686236709356308,0.066960908472538,-0.01280909962952137
1761315179758649300,1.1766494140625,-0.0055928160436451435,0.07812566310167313,-0.021315036341547966
1761315179768631600,1.186631591796875,-0.0018806359730660915,0.05588480830192566,-0.02758731320500374
1761315179778613200,1.19661328125,0.007595732808113098,0.025958284735679626,-0.022173840552568436
1761315179788594400,1.206594482421875,0.025678064674139023,0.01015615276992321,0.010384369641542435
1761315179798576400,1.216576416015625,0.05532181262969971,-0.0049683405086398125,0.03984175622463226
1761315179808557600,1.2265576171875,0.07888226211071014,-0.03411690518260002,0.06730639934539795
1761315179818539300,1.236539306640625,0.09682412445545197,-0.06875541061162949,0.07169616222381592
1761315179828520400,1.2465205078125,0.09898048639297485,-0.0824190303683281,0.0632890984416008
1761315179838502400,1.25650244140625,0.09217972308397293,-0.06884851306676865,0.04144035279750824
1761315179848483300,1.2664833984375,0.085701584815979,-0.04087919741868973,0.02020377479493618
1761315179858465500,1.276465576171875,0.06886285543441772,-0.011912332847714424,-0.007039627060294151
1761315179868447200,1.286447265625,0.05327776446938515,0.012407921254634857,-0.03363874554634094
1761315179878428400,1.296428466796875,0.04192616418004036,0.02212212048470974,-0.049775008112192154
1761315179888410400,1.306410400390625,0.031917471438646317,0.01875615119934082,-0.053570013493299484
1761315179898391600,1.3163916015625,0.026210812851786613,0.006261511705815792,-0.04142197221517563
1761315179908373200,1.326373291015625,0.028130153194069862,-0.01110868901014328,-0.030257467180490494
1761315179918354400,1.3363544921875,0.03552093729376793,-0.025586940348148346,-0.017826927825808525
1761315179928336400,1.34633642578125,0.047170933336019516,-0.03689658269286156,-0.013953359797596931
1761315179938317600,1.356317626953125,0.06274329870939255,-0.02556704357266426,-0.011841642670333385
1761315179948299500,1.366299560546875,0.0690549910068512,-0.009757189080119133,-0.003510475857183337
1761315179958280400,1.376280517578125,0.06812841445207596,-0.008205285295844078,0.004652548115700483
1761315179968262400,1.386262451171875,0.05407198518514633,-0.015691431239247322,0.001247962936758995
1761315179978244400,1.396244384765625,0.04275038465857506,-0.023681115359067917,-0.00242959544993937
1761315179988225500,1.4062255859375,0.03043380007147789,-0.03131479769945145,0.0013377120485529304
1761315179998207200,1.416207275390625,0.012576377019286156,-0.019015047699213028,0.011342842131853104
1761315180008188400,1.4261884765625,-0.009159544482827187,0.005823190324008465,0.021091075614094734
1761315180018170400,1.43617041015625,-0.02076094225049019,0.0344882607460022,0.024039791896939278
1761315180028151600,1.446151611328125,-0.024182304739952087,0.06302642822265625,0.024336734786629677
1761315180038133500,1.456133544921875,-0.019724659621715546,0.07843836396932602,0.029914794489741325
1761315180048114400,1.466114501953125,-0.013269423507153988,0.08431968837976456,0.04064014181494713
1761315180058096400,1.476096435546875,-0.008898161351680756,0.07221291959285736,0.04593101516366005
1761315180068078600,1.48607861328125,-0.003024027217179537,0.061530448496341705,0.03601979464292526
1761315180078059500,1.4960595703125,0.0027834009379148483,0.03228355944156647,0.02400990016758442
1761315180088041200,1.506041259765625,0.001664607087150216,-0.00578765943646431,0.003558954456821084
1761315180098022400,1.5160224609375,-0.009477281011641026,-0.03466455638408661,-0.00855792872607708
1761315180108004400,1.52600439453125,-0.018407925963401794,-0.03847846761345863,-0.015994541347026825
1761315180117985500,1.535985595703125,-0.021152313798666,-0.03686991706490517,-0.012352666817605495
1761315180127967200,1.54596728515625,-0.03353175148367882,-0.04020179808139801,0.0007210569456219673
1761315180137948400,1.555948486328125,-0.03847815841436386,-0.031117726117372513,0.009068336337804794
1761315180147930400,1.565930419921875,-0.04008723795413971,0.00005963491275906563,0.013903571292757988
1761315180157911600,1.57591162109375,-0.03364955261349678,0.016127876937389374,0.016113193705677986
1761315180167893500,1.5858935546875,-0.02437749132514,0.0189854484051466,0.009435318410396576
1761315180177875500,1.59587548828125,-0.020760126411914825,0.017067888751626015,0.003972676582634449
1761315180187856400,1.6058564453125,-0.009457137435674667,0.02438545599579811,-0.013519763946533203
1761315180197838300,1.61583837890625,-0.0025745597667992115,0.018949152901768684,-0.02885940670967102
1761315180207819500,1.625819580078125,0.0019203235860913992,0.0008673551492393017,-0.04316883534193039
1761315180217801200,1.63580126953125,-0.00858831126242876,-0.023883994668722153,-0.03956834226846695
1761315180227782400,1.645782470703125,-0.019937904551625252,-0.05029616132378578,-0.022559266537427902
1761315180237764400,1.655764404296875,-0.032059621065855026,-0.06747676432132721,-0.0027510065119713545
1761315180247745500,1.66574560546875,-0.04357486218214035,-0.05699322745203972,0.01573772355914116
1761315180257727500,1.6757275390625,-0.04947802424430847,-0.02360624074935913,0.02489207312464714
1761315180267708400,1.68570849609375,-0.04056735709309578,0.010503525845706463,0.02267445996403694
1761315180277690400,1.6956904296875,-0.0256066732108593,0.03454189375042915,0.00717209791764617
1761315180287672600,1.705672607421875,-0.014590773731470108,0.03493471071124077,-0.017491968348622322
1761315180297653500,1.715653564453125,-0.005755247548222542,0.016819939017295837,-0.04103171452879906
1761315180307635200,1.72563525390625,0.00017907458823174238,-0.004058976657688618,-0.05134427547454834
1761315180317616400,1.735616455078125,0.0004685159074142575,-0.023692019283771515,-0.03488760441541672
1761315180327598300,1.745598388671875,-0.003422628855332732,-0.03471270948648453,0.0015372488414868712
1761315180337579500,1.75557958984375,-0.008518343791365623,-0.04507105425000191,0.039240915328264236
1761315180347561500,1.7655615234375,-0.01345744263380766,-0.04900720342993736,0.06715510785579681
1761315180357542400,1.77554248046875,-0.015517930500209332,-0.038845647126436234,0.07277517765760422
1761315180367524400,1.7855244140625,-0.018217843025922775,-0.005164650268852711,0.07431874424219131
1761315180377506600,1.795506591796875,-0.010433520190417767,0.035548221319913864,0.05964871868491173
1761315180387487500,1.805487548828125,-0.004506921395659447,0.07066918909549713,0.037366583943367004
1761315180397469400,1.815469482421875,0.007579583674669266,0.0898970440030098,0.008039556443691254
1761315180407450400,1.825450439453125,0.01662474311888218,0.09200120717287064,-0.016072170808911324
1761315180417432300,1.835432373046875,0.025203829631209373,0.08127748966217041,-0.026768257841467857
1761315180427413500,1.84541357421875,0.026296526193618774,0.05192545801401138,-0.023935986682772636
1761315180437395500,1.8553955078125,0.023387514054775238,0.028115062043070793,-0.0038300224114209414
1761315180447376400,1.86537646484375,0.016381002962589264,-0.0033059793058782816,0.016139956191182137
1761315180457358300,1.8753583984375,0.007276472635567188,-0.030641036108136177,0.038332413882017136
1761315180467339500,1.885339599609375,0.0006356146186590195,-0.04010218381881714,0.051806945353746414
1761315180477321500,1.895321533203125,-0.0028074905276298523,-0.03428904339671135,0.06309005618095398
1761315180487303400,1.905303466796875,-0.0018586061196401715,-0.027387727051973343,0.060484420508146286
1761315180497284400,1.915284423828125,0.0036966297775506973,-0.023633969947695732,0.04978397488594055
1761315180507266600,1.9252666015625,0.014514923095703125,-0.005670415703207254,0.034872669726610184
1761315180517247500,1.93524755859375,0.029247364029288292,0.020042745396494865,0.023608626797795296
1761315180527229200,1.945229248046875,0.04892226308584213,0.0217484999448061,0.007758556865155697
1761315180537210400,1.95521044921875,0.058905184268951416,0.0038910494185984135,0.006651083938777447
1761315180547192300,1.9651923828125,0.07053866982460022,-0.0017015885096043348,0.023636458441615105
1761315180557173500,1.975173583984375,0.08649548888206482,0.01710410788655281,0.048996079713106155
1761315180567155500,1.985155517578125,0.09469003975391388,0.038299139589071274,0.06637240201234818
1761315180577137400,1.995137451171875,0.1031477078795433,0.05805482342839241,0.0876169428229332
1761315180587118300,2.005118408203125,0.09970983862876892,0.07375841587781906,0.10936325043439865
1761315180597100500,2.0151005859375,0.0819716602563858,0.07821156829595566,0.12213460355997086
1761315180607081500,2.02508154296875,0.05759095773100853,0.07709543406963348,0.1217670813202858
1761315180617063400,2.0350634765625,0.041424378752708435,0.06804917752742767,0.10924439877271652
1761315180627044400,2.04504443359375,0.03587355092167854,0.05810759216547012,0.080330990254879
1761315180637026300,2.0550263671875,0.02929595485329628,0.02995612472295761,0.044339168816804886
1761315180647007500,2.065007568359375,0.03206990286707878,0.0034637986682355404,0.008752946741878986
1761315180656989400,2.074989501953125,0.029077962040901184,-0.0047038584016263485,-0.01959693618118763
1761315180666971100,2.08497119140625,0.023649374023079872,-0.011115951463580132,-0.029967285692691803
1761315180676952300,2.094952392578125,0.010624410584568977,-0.016672924160957336,-0.02114153280854225
1761315180686934300,2.104934326171875,0.009899232536554337,-0.011361781507730484,0.0008111688075587153
1761315180696915500,2.11491552734375,0.012153837829828262,-0.001148885115981102,0.028744535520672798
1761315180706897200,2.124897216796875,0.017565913498401642,-0.0020184069871902466,0.04254290461540222
1761315180716878300,2.13487841796875,0.021471824496984482,-0.02301080711185932,0.033625975251197815
1761315180726860300,2.1448603515625,0.023348553106188774,-0.045163512229919434,0.012499918229877949
1761315180736841200,2.15484130859375,0.027594193816184998,-0.07028549909591675,-0.01288989931344986
1761315180746823400,2.164823486328125,0.02784266695380211,-0.09071141481399536,-0.03604821488261223
1761315180756804400,2.174804443359375,0.030520571395754814,-0.10236123949289322,-0.04506474360823631
1761315180766786300,2.184786376953125,0.03879021853208542,-0.10573439300060272,-0.03631492704153061
1761315180776768300,2.194768310546875,0.041721247136592865,-0.09766044467687607,-0.019194331020116806
1761315180786749400,2.20474951171875,0.042449090629816055,-0.08214566856622696,0.0012931006494909525
1761315180796731100,2.214731201171875,0.04123307392001152,-0.06569735705852509,0.012502681463956833
1761315180806712300,2.22471240234375,0.04087141901254654,-0.045666392892599106,0.019829036667943
1761315180816694300,2.2346943359375,0.04503634572029114,-0.030684156343340874,0.019153626635670662
1761315180826675200,2.24467529296875,0.04916318133473396,-0.04186251014471054,0.013666716404259205
1761315180836657400,2.254657470703125,0.05045835301280022,-0.045989248901605606,0.008180100470781326
1761315180846638000,2.26463818359375,0.05088791996240616,-0.0419340506196022,0.012013188563287258
1761315180856620300,2.274620361328125,0.05548567324876785,-0.03033170849084854,0.015125690959393978
1761315180866602200,2.284602294921875,0.05499325692653656,-0.02413852885365486,0.02478976920247078
1761315180876583400,2.29458349609375,0.05143023654818535,-0.03651639074087143,0.02513202093541622
1761315180886565000,2.304565185546875,0.03855545073747635,-0.055508457124233246,0.01639951579272747
1761315180896546300,2.31454638671875,0.021879510954022408,-0.046957023441791534,0.0038258980493992567
1761315180906528300,2.3245283203125,0.008196721784770489,-0.012255504727363586,-0.005099420435726643
1761315180916509400,2.334509521484375,0.007409342564642429,0.017887907102704048,-0.019532516598701477
1761315180926491100,2.3444912109375,0.007455415092408657,0.035014696419239044,-0.03470906987786293
1761315180936472000,2.35447216796875,0.008974962867796421,0.04062593728303909,-0.03069145977497101
1761315180946454300,2.364454345703125,0.010996035300195217,0.03313952684402466,-0.018824681639671326
1761315180956435200,2.374435302734375,0.017705198377370834,0.001256029587239027,0.0037579217460006475
1761315180966417400,2.38441748046875,0.011462218128144741,-0.03651664778590202,0.027002258226275444
1761315180976399000,2.394399169921875,0.008513323031365871,-0.05021384358406067,0.05589918792247772
1761315180986380300,2.40438037109375,0.012956008315086365,-0.023451201617717743,0.07071008533239365
1761315180996362200,2.4143623046875,0.01675436459481716,-0.007497700862586498,0.07028715312480927
1761315181006343400,2.424343505859375,0.02040955424308777,-0.007779196836054325,0.05596626549959183
1761315181016325000,2.4343251953125,0.023220796138048172,-0.00334254652261734,0.036155249923467636
1761315181026306300,2.444306396484375,0.02621551975607872,-0.0000314381904900074,0.012200646102428436
1761315181036288300,2.454288330078125,0.031071284785866737,0.006365984212607145,-0.013833850622177124
1761315181046269200,2.464269287109375,0.025397952646017075,0.024927949532866478,-0.022820955142378807
1761315181056251400,2.47425146484375,0.014023574069142342,0.027925709262490273,-0.028935376554727554
1761315181066233300,2.4842333984375,0.004162420518696308,0.009311811998486519,-0.02721231058239937
1761315181076214300,2.49421435546875,-0.006768209394067526,-0.012097572907805443,-0.015091435052454472
1761315181086196200,2.5041962890625,-0.01243594940751791,-0.01894855499267578,0.010123374871909618
1761315181096177400,2.514177490234375,-0.003023877739906311,-0.019043374806642532,0.033511191606521606
1761315181106159000,2.5241591796875,0.006830617319792509,-0.0159626305103302,0.040716104209423065
1761315181116140300,2.534140380859375,0.02281508967280388,-0.0057091135531663895,0.042408015578985214
1761315181126122200,2.544122314453125,0.03439345210790634,0.012307703495025635,0.037295013666152954
1761315181136103400,2.554103515625,0.03910977393388748,0.017428571358323097,0.028181741014122963
1761315181146085400,2.56408544921875,0.03854678198695183,0.02455412596464157,0.027478132396936417
1761315181156067300,2.5740673828125,0.03368762880563736,0.032376665621995926,0.03129154443740845
1761315181166048300,2.58404833984375,0.0270659439265728,0.029838137328624725,0.024773458018898964
1761315181176030500,2.594030517578125,0.0180252343416214,0.022578001022338867,0.01775307022035122
1761315181186011400,2.604011474609375,0.01210689265280962,0.020577434450387955,0.007702566683292389
1761315181195993000,2.6139931640625,0.008250166662037373,0.018907859921455383,0.0023490244057029486
1761315181205974300,2.623974365234375,0.009787343442440033,0.018379490822553635,-0.003642022842541337
1761315181215956200,2.633956298828125,0.013260891661047935,0.0034291893243789673,0.004159225150942802
1761315181225937400,2.6439375,0.02164771780371666,-0.013477089814841747,0.023856230080127716
1761315181235919400,2.65391943359375,0.02897508814930916,-0.03276195377111435,0.04386163875460625
1761315181245901300,2.6639013671875,0.03204384818673134,-0.04464311525225639,0.060037143528461456
1761315181255882200,2.67388232421875,0.03721543028950691,-0.037116579711437225,0.06997662782669067
1761315181265864400,2.683864501953125,0.04226984456181526,-0.029305262491106987,0.07054414600133896
1761315181275845400,2.693845458984375,0.041548263281583786,-0.025756722316145897,0.06505516916513443
1761315181285827300,2.703827392578125,0.03502298519015312,-0.016735529527068138,0.051310598850250244
1761315181295808300,2.713808349609375,0.024207428097724915,-0.0014001610688865185,0.044500917196273804
1761315181305790200,2.723790283203125,0.011745964176952839,0.019785551354289055,0.029578696936368942
1761315181315771400,2.733771484375,0.001057852408848703,0.031448833644390106,0.01648523472249508
1761315181325753000,2.743753173828125,-0.01075353380292654,0.023439642041921616,0.0028495830483734608
1761315181335734300,2.753734375,-0.02462080679833889,0.01170310564339161,-0.00819581188261509
1761315181345716200,2.76371630859375,-0.040226131677627563,0.011977678164839745,-0.01728225126862526
1761315181355698400,2.773698486328125,-0.04426615312695503,0.0012566931545734406,-0.01854824647307396
1761315181365679400,2.783679443359375,-0.052687868475914,-0.027521956712007523,-0.02408628910779953
1761315181375661300,2.793661376953125,-0.05463146045804024,-0.04637330025434494,-0.02485441416501999
1761315181385642200,2.803642333984375,-0.05493878945708275,-0.036594972014427185,-0.030706975609064102
1761315181395624400,2.81362451171875,-0.048963382840156555,-0.010815754532814026,-0.020675886422395706
1761315181405605400,2.82360546875,-0.0411725714802742,0.025642920285463333,-0.008990735746920109
1761315181415587000,2.833587158203125,-0.029733678326010704,0.04173668101429939,0.0026794446166604757
1761315181425568300,2.843568359375,-0.018063174560666084,0.02775748446583748,0.012057499960064888
1761315181435550200,2.85355029296875,-0.006941738538444042,-0.0005305968225002289,0.019563952460885048
1761315181445532400,2.863532470703125,0.0024360502138733864,-0.0315425768494606,0.02421756088733673
1761315181455513300,2.873513427734375,-0.00008585792966187,-0.0624503418803215,0.02154594287276268
1761315181465495300,2.883495361328125,-0.0057112532667815685,-0.0769568458199501,0.018030837178230286
1761315181475476200,2.893476318359375,-0.0198897086083889,-0.0660933181643486,0.003738684579730034
1761315181485458400,2.90345849609375,-0.027558812871575356,-0.030902042984962463,-0.0014803120866417885
1761315181495439400,2.913439453125,-0.035846151411533356,0.012200269848108292,-0.010075300931930542
1761315181505421300,2.92342138671875,-0.04223747178912163,0.039641477167606354,-0.013941943645477295
1761315181515402200,2.93340234375,-0.042100317776203156,0.057466283440589905,-0.021213971078395844
1761315181525384200,2.94338427734375,-0.032460473477840424,0.056803956627845764,-0.025439608842134476
1761315181535366400,2.953366455078125,-0.023314259946346283,0.046925272792577744,-0.027835026383399963
1761315181545347300,2.963347412109375,-0.01354844868183136,0.03274154290556908,-0.026470422744750977
1761315181555329300,2.973329345703125,-0.0033249366097152233,0.018187832087278366,-0.020904745906591415
1761315181565310200,2.983310302734375,0.0013845973880961537,-0.00952875055372715,-0.010922685265541077
1761315181575292400,2.99329248046875,0.0029007582925260067,-0.043547991663217545,-0.005756916478276253
1761315181585273300,3.0032734375,0.0032091522589325905,-0.047940343618392944,-0.004746247082948685
1761315181595255300,3.01325537109375,0.0011480365647003055,-0.021303588524460793,-0.005196459591388702
1761315181605236200,3.023236328125,-0.0015649255365133286,0.011546503752470016,-0.00038386136293411255
1761315181615218400,3.033218505859375,-0.004430740140378475,0.04209383949637413,0.0019505047239363194
1761315181625200400,3.043200439453125,-0.002969996305182576,0.06232241168618202,0.0008958929684013128
1761315181635181300,3.053181396484375,0.000013211625628173351,0.07068108022212982,-0.0008248749654740095
1761315181645163300,3.063163330078125,-0.002942098304629326,0.06792337447404861,-0.009760845452547073
1761315181655144200,3.073144287109375,0.0008297644089907408,0.05922688916325569,-0.023722469806671143
1761315181665126100,3.083126220703125,0.0029179491102695465,0.036323968321084976,-0.03526274487376213
1761315181675107000,3.093107177734375,0.00442626653239131,0.0035154270008206367,-0.041792381554841995
1761315181685089000,3.103089111328125,0.0008997089462354779,-0.032394371926784515,-0.037814684212207794
1761315181695070000,3.113070068359375,-0.005454666446894407,-0.05267621949315071,-0.03323890641331673
1761315181705052200,3.12305224609375,-0.008545530959963799,-0.06072083115577698,-0.025937054306268692
1761315181715034000,3.1330341796875,-0.008391309529542923,-0.05565091595053673,-0.020924456417560577
1761315181725015000,3.14301513671875,-0.005947326309978962,-0.04294390603899956,-0.02437671273946762
1761315181734997000,3.1529970703125,-0.009434159845113754,-0.020938333123922348,-0.029381485655903816
1761315181744978000,3.16297802734375,-0.006522791925817728,0.007828865200281143,-0.027283446863293648
1761315181754960100,3.172960205078125,-0.006563073955476284,0.013542024418711662,-0.025635890662670135
1761315181764941000,3.182941162109375,-0.007547644432634115,0.01580757461488247,-0.021227557212114334
1761315181774923000,3.192923095703125,-0.006903432309627533,0.001682007685303688,-0.022069044411182404
1761315181784904000,3.202904052734375,-0.006793709937483072,-0.011805571615695953,-0.0225305687636137
1761315181794886100,3.21288623046875,-0.012535893358290195,-0.004995664581656456,-0.014829220250248909
1761315181804868000,3.2228681640625,-0.016856074333190918,0.007046084385365248,-0.006629080045968294
1761315181814849000,3.23284912109375,-0.01502338144928217,0.0038160616531968117,-0.007792636752128601
1761315181824831000,3.2428310546875,-0.013176745735108852,0.0025800885632634163,-0.015689974650740623
1761315181834812200,3.252812255859375,-0.007368219550698996,0.024304376915097237,-0.01775459572672844
1761315181844794000,3.262794189453125,-0.002048023045063019,0.044213101267814636,-0.012319616042077541
1761315181854775000,3.272775146484375,0.00027885299641638994,0.03716019168496132,-0.010386323556303978
1761315181864757000,3.282757080078125,-0.004103644751012325,0.006760474760085344,-0.01467481255531311
1761315181874738000,3.292738037109375,-0.013652238994836807,-0.018615981563925743,-0.02028619311749935
1761315181884720000,3.30272021484375,-0.020859286189079285,-0.025440331548452377,-0.020852115005254745
1761315181894702000,3.3127021484375,-0.017917638644576073,-0.020794548094272614,-0.015542334876954556
1761315181904683000,3.32268310546875,-0.021176282316446304,-0.036035552620887756,-0.010757699608802795
1761315181914665000,3.3326650390625,-0.029058407992124557,-0.04219050705432892,-0.007017860654741526
1761315181924646100,3.342646240234375,-0.033386312425136566,-0.029764730483293533,-0.015281915664672852
1761315181934628000,3.352628173828125,-0.034951478242874146,0.006288432981818914,-0.0200413279235363
1761315181944609000,3.362609130859375,-0.03426571562886238,0.044581759721040726,-0.021310856565833092
1761315181954591000,3.372591064453125,-0.03720879554748535,0.06299260258674622,-0.023128952831029892
1761315181964572000,3.382572021484375,-0.04085679352283478,0.055411115288734436,-0.014905375428497791
1761315181974554000,3.39255419921875,-0.04229264706373215,0.03720119222998619,-0.008952543139457703
1761315181984535800,3.402535888671875,-0.04128916934132576,0.021022219210863113,-0.013684447854757309
1761315181994517000,3.41251708984375,-0.03957303613424301,-0.010331528261303902,-0.024939199909567833
1761315182004499000,3.4224990234375,-0.03167436644434929,-0.03486829623579979,-0.03195609524846077
1761315182014480100,3.432480224609375,-0.021145502105355263,-0.03945040702819824,-0.03083091229200363
1761315182024462000,3.442462158203125,-0.014432739466428757,-0.02548053115606308,-0.021302388980984688
1761315182034443300,3.452443359375,-0.007631340995430946,-0.00947070773690939,-0.008130159229040146
1761315182044425000,3.462425048828125,0.004246623255312443,0.0063079893589019775,0.004961674101650715
1761315182054406000,3.472406005859375,0.00955164059996605,0.0030773086473345757,0.014750123023986816
1761315182064388000,3.48238818359375,0.010955126024782658,-0.011781532317399979,0.010240592062473297
1761315182074370000,3.4923701171875,0.010857942514121532,-0.019490990787744522,-0.0038166819140315056
1761315182084351000,3.50235107421875,0.013453193008899689,-0.0038124280981719494,-0.01572687178850174
1761315182094333000,3.5123330078125,0.013902011327445507,0.009414104744791985,-0.02082405611872673
1761315182104314000,3.522314208984375,0.007281393278390169,0.014186489395797253,-0.021268004551529884
1761315182114296000,3.532296142578125,0.004906628280878067,0.012450926005840302,-0.01735851913690567
1761315182124277000,3.542277099609375,-0.0027981633320450783,0.0056707849726080894,-0.011668674647808075
1761315182134259000,3.552259033203125,-0.004879690241068602,-0.004934264812618494,-0.007507979404181242
1761315182144240000,3.562240234375,-0.0051401471719145775,-0.008066408336162567,-0.0034202933311462402
1761315182154222000,3.57222216796875,-0.003842097707092762,-0.005800002254545689,-0.0035694341640919447
1761315182164204000,3.5822041015625,-0.003914801869541407,-0.0014622453600168228,-0.008068844676017761
1761315182174185000,3.59218505859375,0.0020313309505581856,0.013258706778287888,-0.009863490238785744
1761315182184167200,3.602167236328125,0.010801919735968113,0.026241617277264595,-0.014766102656722069
1761315182194148000,3.612148193359375,0.021148206666111946,0.022001534700393677,-0.009476324543356895
1761315182204130000,3.622130126953125,0.026313673704862595,0.00878852792084217,-0.004258126951754093
1761315182214111000,3.632111083984375,0.029995854943990707,-0.008380808867514133,-0.001944846473634243
1761315182224093000,3.642093017578125,0.031656067818403244,-0.01818843185901642,0.004353795666247606
1761315182234074000,3.65207421875,0.03328897804021835,-0.018128875643014908,0.013733625411987305
1761315182244056000,3.66205615234375,0.02803882025182247,-0.007621372118592262,0.018498020246624947
1761315182254038000,3.6720380859375,0.027295000851154327,0.01784617081284523,0.019143836572766304
1761315182264019000,3.68201904296875,0.024741295725107193,0.03589387983083725,0.0086445901542902
1761315182274001200,3.692001220703125,0.022290436550974846,0.04837828129529953,-0.00907844863831997
1761315182283982000,3.701982177734375,0.02117004431784153,0.05704154819250107,-0.025956232100725174
1761315182293964000,3.711964111328125,0.0155132245272398,0.042341962456703186,-0.035530827939510345
1761315182303945000,3.721945068359375,0.004307441413402557,0.01948724314570427,-0.032937709242105484
1761315182313927000,3.731927001953125,-0.002164960838854313,0.0008464748971164227,-0.016840901225805283
1761315182323909000,3.7419091796875,-0.009276133030653,-0.013945254497230053,0.006976548116654158
1761315182333890000,3.75189013671875,-0.0120698856189847,-0.02073824778199196,0.02802184969186783
1761315182343872000,3.7618720703125,-0.011584657244384289,-0.007964128628373146,0.04727037996053696
1761315182353853000,3.77185302734375,-0.009179754182696342,0.005079433787614107,0.049205537885427475
1761315182363835100,3.781835205078125,-0.002677646465599537,0.011848390102386475,0.025898082181811333
1761315182373816000,3.791816162109375,0.004118137992918491,0.017559414729475975,-0.0010021168272942305
1761315182383798000,3.801798095703125,0.007796762511134148,0.024761134758591652,-0.02507869154214859
1761315182393779000,3.811779052734375,0.014955142512917519,0.023942071944475174,-0.03700152039527893
1761315182403761200,3.82176123046875,0.003736843355000019,0.02174469828605652,-0.028177937492728233
1761315182413743000,3.8317431640625,-0.008035587146878242,0.016385518014431,-0.0059245736338198185
1761315182423724000,3.84172412109375,-0.01987786404788494,0.01982072927057743,0.015513872727751732
1761315182433706000,3.8517060546875,-0.022564386948943138,0.02119087055325508,0.02846759371459484
1761315182443687000,3.86168701171875,-0.01582925207912922,0.021106179803609848,0.028421521186828613
1761315182453669000,3.871669189453125,-0.009563584811985493,0.022797245532274246,0.029070604592561722
1761315182463650000,3.881650146484375,0.00817652978003025,0.02222306840121746,0.026192791759967804
1761315182473632000,3.891632080078125,0.017838425934314728,0.015255018137395382,0.03336856886744499
1761315182483613000,3.901613037109375,0.025579435750842094,0.007968076504766941,0.045355722308158875
1761315182493595100,3.91159521484375,0.023661330342292786,0.00933428481221199,0.04772956296801567
1761315182503577000,3.9215771484375,0.019761664792895317,-0.0013404637575149536,0.04255424439907074
1761315182513558300,3.931558349609375,0.00756530836224556,-0.01281072199344635,0.026359962299466133
1761315182523540000,3.9415400390625,-0.005260475445538759,-0.010548899881541729,0.012077164836227894
1761315182533521000,3.95152099609375,-0.016734546050429344,-0.0003356090746819973,0.0007378120208159089
1761315182543503000,3.961503173828125,-0.01911967247724533,0.01676960662007332,-0.008792576380074024
1761315182553484000,3.971484130859375,-0.01837405003607273,0.020349089056253433,-0.019940588623285294
1761315182563466000,3.981466064453125,-0.012162758968770504,0.02549857832491398,-0.026254676282405853
1761315182573448000,3.991447998046875,-0.007092925254255533,0.027211273089051247,-0.012927455827593803
1761315182583429000,4.00142919921875,-0.006855904124677181,0.007793900091201067,-0.00012803799472749233
1761315182593411000,4.0114111328125,-0.007658847142010927,-0.030309276655316353,0.001925791846588254
1761315182603392000,4.02139208984375,-0.012885833159089088,-0.0642709732055664,-0.0033800238743424416
1761315182613374000,4.0313740234375,-0.013985860161483288,-0.06789909303188324,-0.0045902542769908905
1761315182623355100,4.041355224609375,-0.013112077489495277,-0.051253534853458405,-0.011344296857714653
1761315182633337000,4.051337158203125,-0.009594263508915901,-0.030112728476524353,-0.02085658721625805
1761315182643318000,4.061318115234375,-0.0052122981287539005,-0.020481674000620842,-0.03120243549346924
1761315182653300000,4.071300048828125,-0.0023007814306765795,-0.00863791536539793,-0.034087225794792175
1761315182663282000,4.081281982421875,0.0005277619929984212,0.009885966777801514,-0.031847238540649414
1761315182673263000,4.09126318359375,-0.004076771903783083,0.010159827768802643,-0.026872165501117706
1761315182683245000,4.1012451171875,-0.0080430181697011,-0.004795685410499573,-0.019621174782514572
1761315182693226000,4.11122607421875,-0.012476018629968166,-0.018532542511820793,-0.013328823260962963
1761315182703208000,4.1212080078125,-0.018887577578425407,-0.03728652000427246,-0.014083296991884708
1761315182713188900,4.13118896484375,-0.02931823767721653,-0.059534963220357895,-0.022069644182920456
1761315182723171000,4.141171142578125,-0.04582398012280464,-0.08072759956121445,-0.03448237106204033
1761315182733152000,4.151152099609375,-0.057088688015937805,-0.07589735835790634,-0.04302642494440079
1761315182743134000,4.161134033203125,-0.06072470173239708,-0.05038747191429138,-0.045297835022211075
1761315182753116000,4.171115966796875,-0.0660015121102333,-0.020495794713497162,-0.033332861959934235
1761315182763097000,4.18109716796875,-0.06798263639211655,0.007408274803310633,-0.021359290927648544
1761315182773079000,4.1910791015625,-0.058480650186538696,0.031333692371845245,-0.018939631059765816
1761315182783060000,4.20106005859375,-0.04143695533275604,0.03281440958380699,-0.034820325672626495
1761315182793042000,4.2110419921875,-0.021685851737856865,0.027760500088334084,-0.04486692696809769
1761315182803023000,4.221023193359375,-0.003329481463879347,0.014700090512633324,-0.039698801934719086
1761315182813005000,4.231005126953125,0.011697531677782536,-0.00041949376463890076,-0.024895481765270233
1761315182822987000,4.240987060546875,0.01770269125699997,-0.019395049661397934,-0.005528707522898912
1761315182832968000,4.250968017578125,0.01941443607211113,-0.028528867289423943,0.01469985581934452
1761315182842950100,4.2609501953125,0.023552190512418747,-0.022094668820500374,0.023931970819830894
1761315182852931000,4.27093115234375,0.019931741058826447,-0.015045884996652603,0.040169812738895416
1761315182862912800,4.280912841796875,0.016416901722550392,0.0013767648488283157,0.05471333488821983
1761315182872894000,4.29089404296875,0.015921268612146378,0.022727278992533684,0.056963980197906494
1761315182882876000,4.3008759765625,0.020068876445293427,0.04228633642196655,0.04374804347753525
1761315182892857000,4.310857177734375,0.0335538350045681,0.04866277053952217,0.02529529668390751
1761315182902839000,4.320839111328125,0.04788403958082199,0.04029405489563942,0.012479100376367569
1761315182912821000,4.330821044921875,0.05657467991113663,0.02798202633857727,0.005690896417945623
1761315182922802000,4.340802001953125,0.05863809958100319,0.015902994200587273,0.00682753324508667
1761315182932784000,4.3507841796875,0.06777673959732056,0.01771201379597187,0.015998171642422676
1761315182942765000,4.36076513671875,0.07164205610752106,0.01591198332607746,0.020675215870141983
1761315182952747000,4.3707470703125,0.0731547474861145,0.005144072230905294,0.027536043897271156
1761315182962728000,4.38072802734375,0.06722308695316315,-0.009126742370426655,0.04182470217347145
1761315182972710000,4.3907099609375,0.055326756089925766,-0.026481376960873604,0.05514538288116455
1761315182982692000,4.400692138671875,0.04046738147735596,-0.0279687512665987,0.05833131819963455
1761315182992673000,4.410673095703125,0.022436469793319702,-0.02739657834172249,0.04914763197302818
1761315183002655000,4.420655029296875,0.009166472591459751,-0.030787315219640732,0.02667907439172268
1761315183012636000,4.430635986328125,0.001102907001040876,-0.023672975599765778,-0.008279470726847649
1761315183022618000,4.4406181640625,-0.012274683453142643,-0.015465912409126759,-0.04831237345933914
1761315183032599000,4.45059912109375,-0.019683552905917168,-0.0016131836455315351,-0.078273706138134
1761315183042581000,4.4605810546875,-0.031112242490053177,0.017511507496237755,-0.08843473345041275
1761315183052562000,4.47056201171875,-0.03564625605940819,0.03366708755493164,-0.07766091823577881
1761315183062544100,4.480544189453125,-0.03742018714547157,0.0366160087287426,-0.048267342150211334
1761315183072526000,4.490526123046875,-0.0403309166431427,0.02475787326693535,-0.019139103591442108
1761315183082507000,4.500507080078125,-0.03787574544548988,0.00858023390173912,0.011516276746988297
1761315183092489000,4.510489013671875,-0.03665338456630707,-0.0012211725115776062,0.03350059688091278
1761315183102470000,4.520469970703125,-0.03215637058019638,-0.01104983501136303,0.03843942657113075
1761315183112452000,4.5304521484375,-0.023543324321508408,-0.021614287048578262,0.031167494133114815
1761315183122433000,4.54043310546875,-0.01820475049316883,-0.01245407946407795,0.00842223409563303
1761315183132415000,4.5504150390625,-0.0053885020315647125,0.0033783786930143833,-0.017811428755521774
1761315183142397000,4.56039697265625,-0.004240679554641247,0.010455729439854622,-0.03148649260401726
1761315183152378000,4.570378173828125,-0.0054171159863471985,0.016302047297358513,-0.030332067981362343
1761315183162360000,4.580360107421875,-0.008063498884439468,0.01591615565121174,-0.022998256608843803
1761315183172341000,4.590341064453125,-0.009436117485165596,0.013003816828131676,-0.016848556697368622
1761315183182323000,4.600322998046875,-0.008548219688236713,0.020955750718712807,-0.0017755990847945213
1761315183192303900,4.610303955078125,0.0012614993611350656,0.04042220860719681,0.0027828533202409744
1761315183202286000,4.6202861328125,0.013440134935081005,0.0369984470307827,0.0012768357992172241
1761315183212267000,4.63026708984375,0.013609644025564194,0.010662093758583069,-0.0072192661464214325
1761315183222249000,4.6402490234375,0.017934618517756462,-0.013106085360050201,-0.012325078248977661
1761315183232231000,4.65023095703125,0.02478472888469696,-0.026071697473526,0.0002857227809727192
1761315183242212000,4.660212158203125,0.03502245247364044,-0.03967832028865814,0.016495851799845695
1761315183252194000,4.670194091796875,0.03723752498626709,-0.05243762955069542,0.029440052807331085
1761315183262175000,4.680175048828125,0.039725448936223984,-0.0345798060297966,0.03185607120394707
1761315183272157000,4.690156982421875,0.04373682290315628,-0.008309992961585522,0.02407091110944748
1761315183282138000,4.70013818359375,0.043043602257966995,0.009320400655269623,0.0035507227294147015
1761315183292120000,4.7101201171875,0.03573605790734291,0.02033916302025318,-0.013164134696125984
1761315183302102000,4.72010205078125,0.025128155946731567,0.020770061761140823,-0.020563196390867233
1761315183312083000,4.7300830078125,0.014950184151530266,0.021111737936735153,-0.018222710117697716
1761315183322065200,4.740065185546875,0.015066031366586685,0.022596450522542,-0.006515719462186098
1761315183332046000,4.750046142578125,0.01518583670258522,0.022108979523181915,0.002500292146578431
1761315183342027800,4.76002783203125,0.007606747094541788,0.010539676062762737,-0.0011088238097727299
1761315183352009000,4.770009033203125,-0.001935856882482767,0.012643491849303246,-0.01512975338846445
1761315183361991000,4.779990966796875,-0.012585571967065334,0.027923643589019775,-0.03965826705098152
1761315183371972000,4.78997216796875,-0.02348691038787365,0.03565296530723572,-0.06305942684412003
1761315183381954000,4.7999541015625,-0.03334033861756325,0.03766445070505142,-0.07213787734508514
1761315183391936000,4.80993603515625,-0.04334372654557228,0.034490447491407394,-0.05994353070855141
1761315183401917000,4.8199169921875,-0.05529439449310303,0.03628435358405113,-0.033395010977983475
1761315183411899100,4.829899169921875,-0.06449764966964722,0.03985165059566498,-0.004366985522210598
1761315183421880000,4.839880126953125,-0.06685721129179001,0.035015881061553955,0.017237642779946327
1761315183431862000,4.849862060546875,-0.06232872232794762,0.03174715116620064,0.024458833038806915
1761315183441843000,4.859843017578125,-0.05584073066711426,0.021915826946496964,0.021514441817998886
1761315183451825000,4.869824951171875,-0.05060994252562523,0.0022041150368750095,0.004301739390939474
1761315183461807000,4.87980712890625,-0.04207823798060417,-0.021787237375974655,-0.013455420732498169
1761315183471788000,4.8897880859375,-0.038198523223400116,-0.02938198857009411,-0.019925307482481003
1761315183481770000,4.89977001953125,-0.039091479033231735,-0.016433965414762497,-0.024497423321008682
1761315183491751000,4.9097509765625,-0.03460168465971947,0.011500481516122818,-0.01921880804002285
1761315183501733000,4.919733154296875,-0.0326293483376503,0.04017021134495735,-0.012072481215000153
1761315183511714000,4.929714111328125,-0.027891192585229874,0.054810650646686554,-0.00837854016572237
1761315183521696000,4.939696044921875,-0.02950240485370159,0.05886344611644745,-0.004745722282677889
1761315183531678000,4.949677978515625,-0.023936737328767776,0.05100657418370247,0.00042021251283586025
1761315183541659100,4.9596591796875,-0.014198622666299343,0.03198494762182236,-0.004995591938495636
1761315183551641000,4.96964111328125,-0.0015323107363656163,0.013052401132881641,-0.0024115515407174826
1761315183561622000,4.9796220703125,0.01569621078670025,-0.013074273243546486,0.005821877159178257
1761315183571604000,4.98960400390625,0.02559676393866539,-0.043197594583034515,0.012161542661488056
1761315183581585000,4.9995849609375,0.029122788459062576,-0.05843354016542435,0.014023092575371265
1761315183591567000,5.009567138671875,0.030594266951084137,-0.03823750466108322,0.0104359220713377
1761315183601548000,5.019548095703125,0.037558164447546005,-0.0015498003922402859,0.00366962980479002
1761315183611530000,5.029530029296875,0.04066372290253639,0.026250699535012245,-0.0030220665503293276
1761315183621512000,5.039511962890625,0.04185095801949501,0.02814820222556591,-0.009917257353663445
1761315183631493000,5.0494931640625,0.03319014608860016,0.020107818767428398,-0.013752136379480362
1761315183641475000,5.05947509765625,0.033947549760341644,0.017249714583158493,-0.01638467237353325
1761315183651456000,5.0694560546875,0.0359550379216671,0.0018105702474713326,-0.02511691115796566
1761315183661438200,5.079438232421875,0.03228067606687546,-0.011430666781961918,-0.02721494995057583
1761315183671419100,5.089419189453125,0.03657403588294983,-0.011509019881486893,-0.02551974169909954
1761315183681401300,5.0994013671875,0.03664913401007652,-0.020810643211007118,-0.0222653578966856
1761315183691383300,5.10938330078125,0.03704867884516716,-0.033887483179569244,-0.019633864983916283
1761315183701364200,5.1193642578125,0.03108293004333973,-0.039723802357912064,-0.0054061925038695335
1761315183711346200,5.12934619140625,0.02557603269815445,-0.022558070719242096,0.0024785820860415697
1761315183721327400,5.139327392578125,0.023519806563854218,-0.003616337664425373,0.011516552418470383
1761315183731309000,5.14930908203125,0.01834738440811634,0.0000789053738117218,0.003966015297919512
1761315183741290200,5.159290283203125,0.01449671946465969,0.0036526015028357506,-0.0024761713575571775
1761315183751272200,5.169272216796875,0.008870444260537624,0.01062807533890009,0.0016672916244715452
1761315183761254400,5.17925439453125,-0.0024415988009423018,0.0013128709979355335,0.0010829940438270569
1761315183771235300,5.1892353515625,-0.004587068688124418,-0.00035638175904750824,-0.0004896388854831457
1761315183781217300,5.19921728515625,-0.011165342293679714,0.012314672581851482,0.00004352605901658535
1761315183791198200,5.2091982421875,-0.015815768390893936,0.014967522583901882,0.0008454920025542378
1761315183801180400,5.219180419921875,-0.027007969096302986,0.007808946073055267,-0.0008879594970494509
1761315183811161300,5.229161376953125,-0.04032210260629654,0.015159094706177711,-0.0072672683745622635
1761315183821143000,5.23914306640625,-0.04544282704591751,0.010120127350091934,-0.020230736583471298
1761315183831124200,5.249124267578125,-0.04598843678832054,-0.012638701125979424,-0.028705649077892303
1761315183841106200,5.259106201171875,-0.048891015350818634,-0.03722181171178818,-0.03285565599799156
1761315183851088400,5.26908837890625,-0.054445598274469376,-0.03808119148015976,-0.030672162771224976
1761315183861069300,5.2790693359375,-0.053544919937849045,-0.015363096259534359,-0.02620098367333412
1761315183871051300,5.28905126953125,-0.05157892405986786,0.008490430191159248,-0.020925821736454964
1761315183881032200,5.2990322265625,-0.0461716428399086,0.03483495116233826,-0.014711068943142891
1761315183891014400,5.309014404296875,-0.038197070360183716,0.051448117941617966,-0.012546618469059467
1761315183900995300,5.318995361328125,-0.029575351625680923,0.04858548566699028,-0.01211278885602951
1761315183910977300,5.328977294921875,-0.009841795079410076,0.04085547477006912,-0.010656816884875298
1761315183920959200,5.338959228515625,0.009278636425733566,0.020469777286052704,-0.001596476649865508
1761315183930940200,5.348940185546875,0.015032182447612286,0.0018957913853228092,-0.0008097067475318909
1761315183940922400,5.35892236328125,0.022222718223929405,-0.00042968103662133217,0.0033365688286721706
1761315183950903300,5.3689033203125,0.028375310823321342,0.007208066061139107,0.012260142713785172
1761315183960885200,5.37888525390625,0.030655773356556892,-0.005278431344777346,0.01683705300092697
1761315183970866200,5.3888662109375,0.023806782439351082,-0.021397769451141357,0.016008680686354637
1761315183980848400,5.398848388671875,0.015950988978147507,-0.027171235531568527,0.0021674332674592733
1761315183990830000,5.408830078125,0.01274259015917778,-0.029039498418569565,-0.019048161804676056
1761315184000811300,5.418811279296875,0.01367629412561655,-0.009648224338889122,-0.03303428739309311
1761315184010793200,5.428793212890625,0.017959758639335632,0.01140574924647808,-0.033762410283088684
1761315184020774400,5.4387744140625,0.020309731364250183,0.011113600805401802,-0.03444923833012581
1761315184030756400,5.44875634765625,0.01575043611228466,0.00501408614218235,-0.028331080451607704
1761315184040737300,5.4587373046875,0.017776569351553917,-0.011065280996263027,-0.022385573014616966
1761315184050719200,5.46871923828125,0.020619289949536324,-0.026380248367786407,-0.02494724653661251
1761315184060701400,5.478701416015625,0.026656409725546837,-0.03880336508154869,-0.02308676205575466
1761315184070682400,5.488682373046875,0.024551162496209145,-0.045559752732515335,-0.02126547507941723
1761315184080664000,5.4986640625,0.02519165351986885,-0.03414757177233696,-0.01893520914018154
1761315184090645200,5.508645263671875,0.026542576029896736,-0.010668967850506306,-0.016375688835978508
1761315184100627200,5.518627197265625,0.022431988269090652,0.011552449315786362,-0.01103605143725872
1761315184110608400,5.5286083984375,0.012153862975537777,0.02103964053094387,-0.008134162984788418
1761315184120590300,5.53859033203125,0.002570744603872299,0.028031770139932632,-0.00944150798022747
1761315184130571300,5.5485712890625,-0.0025630572345107794,0.030417446047067642,-0.014514334499835968
1761315184140553200,5.55855322265625,0.0039393166080117226,0.027983050793409348,-0.019136782735586166
1761315184150535400,5.568535400390625,0.009809882380068302,0.01937764696776867,-0.02728593535721302
1761315184160516400,5.578516357421875,0.017363404855132103,0.005908442661166191,-0.025261400267481804
1761315184170498300,5.588498291015625,0.021849075332283974,-0.004483544733375311,-0.024944603443145752
1761315184180479200,5.598479248046875,0.029578369110822678,-0.013858936727046967,-0.014546558260917664
1761315184190461200,5.608461181640625,0.03116781637072563,-0.028682149946689606,-0.009965281002223492
1761315184200442400,5.6184423828125,0.022471796721220016,-0.03845275193452835,0.0040163141675293446
1761315184210424000,5.628424072265625,0.00840849056839943,-0.034965045750141144,0.024666760116815567
1761315184220406300,5.63840625,0.0002435048809275031,-0.024925993755459785,0.03423656150698662
1761315184230387200,5.64838720703125,-0.01221959013491869,-0.015741202980279922,0.029507244005799294
1761315184240369400,5.658369384765625,-0.013108020648360252,-0.002137776231393218,0.011476577259600163
1761315184250350300,5.668350341796875,-0.014575564302504063,0.000033744145184755325,-0.012474424205720425
1761315184260332300,5.678332275390625,-0.018413446843624115,-0.0014349892735481262,-0.03064330667257309
1761315184270313200,5.688313232421875,-0.023160219192504883,-0.0005188346840441227,-0.04317611828446388
1761315184280295400,5.69829541015625,-0.020949263125658035,-0.003208893584087491,-0.034098200500011444
1761315184290277000,5.708277099609375,-0.02013241872191429,-0.002168069127947092,-0.00893903523683548
1761315184300258000,5.718258056640625,-0.016414910554885864,-0.0004679071716964245,0.01616045832633972
1761315184310240300,5.728240234375,-0.016520924866199493,0.007529956754297018,0.03630653768777847
1761315184320221200,5.73822119140625,-0.014401581138372421,0.005550695117563009,0.042045384645462036
1761315184330203400,5.748203369140625,-0.012962906621396542,0.0070349653251469135,0.04040539264678955
1761315184340184300,5.758184326171875,-0.007875469513237476,0.0032785763032734394,0.02992185950279236
1761315184350166300,5.768166259765625,-0.0014224619371816516,0.007433644961565733,0.027834907174110413
1761315184360148200,5.778148193359375,0.0033408678136765957,0.019593371078372,0.029041584581136703
1761315184370129400,5.78812939453125,0.0019062231294810772,0.026407068595290184,0.03316442295908928
1761315184380111000,5.798111083984375,-0.00023362692445516586,0.01999950408935547,0.019419051706790924
1761315184390092300,5.80809228515625,-0.0013991669984534383,0.008817136287689209,0.008519403636455536
1761315184400074200,5.81807421875,-0.0027025179006159306,0.010937545448541641,0.0027166418731212616
1761315184410055200,5.82805517578125,0.00038416578900069,0.02447034791111946,0.0024187429808080196
1761315184420037400,5.838037353515625,0.004932045936584473,0.027323925867676735,0.007092057727277279
1761315184430019000,5.84801904296875,-0.00006701971869915724,0.016639558598399162,0.006339153274893761
1761315184440000300,5.858000244140625,0.003081901930272579,-0.00045074429363012314,-0.0010204925201833248
1761315184449982200,5.867982177734375,0.0075311982072889805,-0.0226128026843071,-0.006687995046377182
1761315184459963400,5.87796337890625,0.010652954690158367,-0.031732797622680664,-0.01275068148970604
1761315184469945000,5.887945068359375,0.011409446597099304,-0.026358406990766525,-0.01603720895946026
1761315184479926300,5.89792626953125,0.016759471967816353,-0.010777050629258156,-0.0178497564047575
1761315184489908200,5.907908203125,0.023221980780363083,0.004247924778610468,-0.017198504880070686
1761315184499889200,5.91788916015625,0.02397618629038334,0.016209779307246208,-0.006061697844415903
1761315184509871400,5.927871337890625,0.029767414554953575,0.011846503242850304,0.0039671240374445915
1761315184519853300,5.937853271484375,0.027535686269402504,0.007017659489065409,0.0037476797588169575
1761315184529834200,5.947834228515625,0.03657194599509239,0.008587555959820747,0.007764966227114201
1761315184539816200,5.957816162109375,0.043986983597278595,0.00026544462889432907,0.012112576514482498
1761315184549797400,5.96779736328125,0.050861891359090805,-0.012386897578835487,0.010254671797156334
1761315184559779000,5.977779052734375,0.04878702387213707,-0.01418240088969469,0.013347666710615158
1761315184569761300,5.98776123046875,0.04907519742846489,-0.004952799528837204,0.02267121896147728
1761315184579742200,5.9977421875,0.04193100333213806,-0.0031599593348801136,0.025088835507631302
1761315184589724400,6.007724365234375,0.03703092038631439,0.004004825372248888,0.02191762998700142
1761315184599705300,6.017705322265625,0.028258735314011574,0.00839744322001934,0.01938469707965851
1761315184609687300,6.027687255859375,0.025991016998887062,0.017400704324245453,0.025608252733945847
1761315184619668200,6.037668212890625,0.026841098442673683,0.017962364479899406,0.022421248257160187
1761315184629650400,6.047650390625,0.02741043083369732,0.01830887794494629,0.010584757663309574
1761315184639632100,6.057632080078125,0.029246414080262184,0.015016676858067513,-0.0005243525374680758
1761315184649613000,6.067613037109375,0.02735665999352932,0.003820996265858412,-0.01404678262770176
1761315184659595300,6.07759521484375,0.02572867088019848,-0.008230872452259064,-0.023723378777503967
1761315184669576200,6.087576171875,0.017357556149363518,-0.026647962629795074,-0.03234509751200676
1761315184679558100,6.09755810546875,0.0106330756098032,-0.03847932070493698,-0.029184989631175995
1761315184689539000,6.1075390625,0.00642675394192338,-0.03911765664815903,-0.014048250392079353
1761315184699521000,6.11752099609375,-0.0009190429118461907,-0.0356329120695591,-0.004225714597851038
1761315184709503200,6.127503173828125,-0.0038642031140625477,-0.023269107565283775,0.003776532132178545
1761315184719484200,6.137484130859375,-0.0028772358782589436,-0.008808407932519913,0.002788765588775277
1761315184729466000,6.147466064453125,0.006129687651991844,0.014698456041514874,-0.003420512191951275
1761315184739447000,6.157447021484375,0.015379112213850021,0.02817884460091591,-0.01749957911670208
1761315184749429200,6.16742919921875,0.02446744218468666,0.034254029393196106,-0.03195517882704735
1761315184759410200,6.17741015625,0.030621740967035294,0.018668415024876595,-0.03700373321771622
1761315184769392000,6.18739208984375,0.03382003679871559,-0.0025581165682524443,-0.03546348586678505
1761315184779373000,6.197373046875,0.0321853868663311,-0.019419655203819275,-0.021918118000030518
1761315184789355000,6.20735498046875,0.03095294162631035,-0.029459960758686066,-0.0035659850109368563
1761315184799337200,6.217337158203125,0.027793632820248604,-0.024336837232112885,0.022197701036930084
1761315184809318100,6.227318115234375,0.03340863063931465,-0.015364591963589191,0.033219944685697556
1761315184819300000,6.237300048828125,0.038181815296411514,-0.007499212399125099,0.0391545332968235
1761315184829281000,6.247281005859375,0.04574450105428696,0.0032122270204126835,0.032328199595212936
1761315184839263200,6.25726318359375,0.045855287462472916,0.008085012435913086,0.02628335915505886
1761315184849244200,6.267244140625,0.047578200697898865,0.013095255941152573,0.011255764402449131
1761315184859226000,6.27722607421875,0.048845332115888596,0.014621512964367867,-0.002363641280680895
1761315184869208000,6.2872080078125,0.044895440340042114,0.00803465023636818,-0.0019051656126976013
1761315184879189000,6.29718896484375,0.035626839846372604,-0.005482490640133619,0.000032017938792705536
1761315184889171200,6.307171142578125,0.02742273360490799,-0.015565235167741776,0.004575939383357763
1761315184899152100,6.317152099609375,0.016188453882932663,-0.013524988666176796,0.01169616635888815
1761315184909134000,6.327134033203125,0.016669608652591705,-0.0016951747238636017,0.018000559881329536
1761315184919115000,6.337114990234375,0.023484637960791588,0.006658629048615694,0.01994173601269722
1761315184929097200,6.34709716796875,0.027816355228424072,0.011365551501512527,0.026320328935980797
1761315184939079200,6.3570791015625,0.0311032272875309,0.017801079899072647,0.038160476833581924
1761315184949060000,6.36706005859375,0.02855299785733223,0.011789204552769661,0.05024302005767822
1761315184959042000,6.3770419921875,0.023363295942544937,-0.0000743805430829525,0.052239593118429184
1761315184969023200,6.387023193359375,0.02133583091199398,0.0025253971107304096,0.04791728034615517
1761315184979005200,6.397005126953125,0.015996193513274193,0.013969000428915024,0.03248373046517372
1761315184988986000,6.406986083984375,0.011956984177231789,0.023779945448040962,0.013680828735232353
1761315184998968000,6.416968017578125,0.004835957661271095,0.028677763417363167,-0.00763990543782711
1761315185008950300,6.4269501953125,-0.002274771686643362,0.02753971889615059,-0.028798913583159447
1761315185018931200,6.43693115234375,-0.008111622184515,0.019818414002656937,-0.03661555424332619
1761315185028913000,6.446912841796875,-0.013935371302068233,0.013696663081645966,-0.03162531182169914
1761315185038894000,6.45689404296875,-0.026592843234539032,0.011122984811663628,-0.013035649433732033
1761315185048876000,6.4668759765625,-0.03464924916625023,0.0076613649725914,0.00003003445453941822
1761315185058857200,6.476857177734375,-0.032288890331983566,-0.0011369208805263042,0.0029608432669192553
1761315185068839200,6.486839111328125,-0.023030079901218414,-0.01573672518134117,-0.009270669892430305
1761315185078821000,6.496821044921875,-0.016360193490982056,-0.026650892570614815,-0.01681380718946457
1761315185088802000,6.506802001953125,-0.006774465553462505,-0.02804812788963318,-0.023150131106376648
1761315185098784300,6.5167841796875,-0.003139250911772251,-0.0311304721981287,-0.02159724198281765
1761315185108765200,6.52676513671875,0.004088122863322496,-0.01412915624678135,-0.0020295530557632446
1761315185118747100,6.5367470703125,0.00986718200147152,0.02089087851345539,0.024102982133626938
1761315185128728000,6.54672802734375,0.01956900767982006,0.046459078788757324,0.03340134397149086
1761315185138710000,6.5567099609375,0.025725970044732094,0.054593972861766815,0.030728595331311226
1761315185148692200,6.566692138671875,0.03494950383901596,0.0577462837100029,0.01958324760198593
1761315185158673200,6.576673095703125,0.03630878031253815,0.043230194598436356,0.010068039409816265
1761315185168655000,6.586655029296875,0.03422333300113678,0.02197268232703209,0.005634682718664408
1761315185178636000,6.596635986328125,0.030659222975373268,0.006562566850334406,0.012387128546833992
1761315185188618200,6.6066181640625,0.028219766914844513,-0.0038943346589803696,0.02909340336918831
1761315185198599200,6.61659912109375,0.023851383477449417,-0.004332158714532852,0.03211396187543869
1761315185208581000,6.6265810546875,0.02183862403035164,0.008834483101963997,0.027079064399003983
1761315185218563000,6.63656298828125,0.021203992888331413,0.010728523135185242,0.013834897428750992
1761315185228544300,6.646544189453125,0.015416066162288189,-0.000991099514067173,-0.006340689025819302
1761315185238526200,6.656526123046875,0.012340115383267403,-0.0026555752847343683,-0.013537882827222347
1761315185248507100,6.666507080078125,0.012880029156804085,0.013537835329771042,-0.005781368352472782
1761315185258489000,6.676489013671875,0.012599331326782703,0.024749742820858955,-0.001839090371504426
1761315185268471300,6.68647119140625,0.005190026015043259,0.021426938474178314,-0.004797467030584812
1761315185278452200,6.6964521484375,-0.004476982168853283,0.01195221021771431,-0.012774433009326458
1761315185288434000,6.706433837890625,-0.011816471815109253,0.006978535559028387,-0.021733418107032776
1761315185298415000,6.7164150390625,-0.016025863587856293,-0.008713342249393463,-0.021956859156489372
1761315185308397000,6.72639697265625,-0.017860446125268936,-0.008547152392566204,-0.020546650514006615
1761315185318378200,6.736378173828125,-0.019113462418317795,-0.001054614782333374,-0.005704854149371386
1761315185328360200,6.746360107421875,-0.021298769861459732,0.013294987380504608,0.0027585173957049847
1761315185338342100,6.756342041015625,-0.017090175300836563,0.018158983439207077,0.004746833350509405
1761315185348323000,6.766322998046875,-0.016125241294503212,0.022547615692019463,-0.0002862103283405304
1761315185358305300,6.77630517578125,-0.014440259896218777,0.02926650457084179,-0.006923873443156481
1761315185368286200,6.7862861328125,-0.011030657216906548,0.02788643166422844,-0.01208776980638504
1761315185378268200,6.79626806640625,-0.0038507753051817417,0.02445574477314949,-0.011771386489272118
1761315185388249000,6.8062490234375,-0.0038476516492664814,0.00792611762881279,-0.007164507173001766
1761315185398231000,6.81623095703125,-0.004369631409645081,-0.011250239796936512,-0.009342174045741558
1761315185408213200,6.826213134765625,-0.010713882744312286,-0.02241777442395687,-0.011287618428468704
1761315185418194200,6.836194091796875,-0.014618342742323875,-0.017046179622411728,-0.009042574092745781
1761315185428176100,6.846176025390625,-0.012778532691299915,-0.009364733472466469,-0.0005409214645624161
1761315185438157000,6.856156982421875,-0.012887456454336643,-0.0010735145770013332,-0.0005952499341219664
1761315185448139300,6.86613916015625,-0.013596766628324986,0.013608727604150772,0.0019921876955777407
1761315185458120200,6.8761201171875,-0.004908203147351742,0.02207331918179989,0.002778352703899145
1761315185468102100,6.88610205078125,-0.0020973498467355967,0.016223382204771042,-0.006832820363342762
1761315185478084000,6.896083984375,0.004052687902003527,0.012535437010228634,-0.011350340209901333
1761315185488065300,6.906065185546875,0.007598811760544777,0.014744333922863007,-0.013122061267495155
1761315185498047200,6.916047119140625,0.007389486767351627,0.012709679082036018,-0.0100205447524786
1761315185508028000,6.92602783203125,0.008427378721535206,0.01045768428593874,-0.010223934426903725
1761315185518010000,6.936010009765625,0.013525734655559063,0.00020078523084521294,-0.004220636561512947
1761315185527991000,6.945990966796875,0.009768612682819366,-0.0011484622955322266,-0.0012260593939572573
1761315185537973200,6.95597314453125,0.014265361241996288,-0.002422518329694867,-0.006622689310461283
1761315185547955000,6.965954833984375,0.014360061846673489,-0.0052107819356024265,-0.012740381993353367
1761315185557936000,6.97593603515625,0.015064201317727566,0.003168321680277586,-0.012619474902749062
1761315185567918000,6.98591796875,0.015044955536723137,0.008014998398721218,-0.012831526808440685
1761315185577899300,6.995899169921875,0.012418013997375965,0.007461061701178551,-0.006227686069905758
1761315185587881200,7.005881103515625,0.012598294764757156,0.002589658834040165,-0.00038103037513792515
1761315185597862100,7.015862060546875,0.008237901143729687,-0.011639876291155815,-0.001843638252466917
1761315185607844000,7.025843994140625,0.0036303256638348103,-0.014292940497398376,-0.007542828563600779
1761315185617826300,7.035826416015625,0.006318786647170782,-0.0006666104309260845,-0.009315162897109985
1761315185627807200,7.04580712890625,0.005328495986759663,0.012899549677968025,-0.014655206352472305
1761315185637789000,7.055788818359375,0.007243042346090078,0.021312208846211433,-0.024273745715618134
1761315185647770000,7.06577001953125,0.004011283162981272,0.027313338592648506,-0.03182246536016464
1761315185657752000,7.075751953125,-0.004213623236864805,0.0297450702637434,-0.03392289951443672
1761315185667733200,7.085733154296875,-0.016588766127824783,0.015903415158391,-0.03443401679396629
1761315185677715200,7.095715087890625,-0.029766619205474854,-0.00875932164490223,-0.034317634999752045
1761315185687697200,7.105697265625,-0.03687581047415733,-0.03828328475356102,-0.03962188959121704
1761315185697678300,7.11567822265625,-0.03701429441571236,-0.05567772313952446,-0.04617299884557724
1761315185707660300,7.125660400390625,-0.027238423004746437,-0.05652263015508652,-0.04583651199936867
1761315185717641500,7.135641357421875,-0.01768539845943451,-0.044169023633003235,-0.045090291649103165
1761315185727623200,7.145623046875,-0.013351895846426487,-0.018307946622371674,-0.040722381323575974
1761315185737604000,7.15560400390625,-0.009802967309951782,0.0034828362986445427,-0.03475450351834297
1761315185747586300,7.16558642578125,-0.010042300447821617,0.009209579788148403,-0.03076760098338127
1761315185757568300,7.175568359375,-0.0196888018399477,0.009996278211474419,-0.032963644713163376
1761315185767549200,7.185549072265625,-0.02519325166940689,0.004945156164467335,-0.035693395882844925
1761315185777531100,7.19553125,-0.02097853273153305,0.008213920518755913,-0.03536476194858551
1761315185787512300,7.20551220703125,-0.008655552752315998,0.0036921389400959015,-0.027577679604291916
1761315185797494300,7.215494384765625,0.00004952203016728163,-0.005290969740599394,-0.012833620421588421
1761315185807476200,7.225476318359375,0.009845835156738758,-0.018157102167606354,0.0006516134599223733
1761315185817457200,7.23545703125,0.011572361923754215,-0.029993519186973572,0.014336000196635723
1761315185827439400,7.245439453125,0.013267829082906246,-0.04085160791873932,0.018717877566814423
1761315185837420300,7.255420166015625,0.012761828489601612,-0.035960715264081955,0.017754346132278442
1761315185847402200,7.26540234375,0.007409658282995224,-0.02122405916452408,0.011607455089688301
1761315185857383200,7.275383056640625,0.0073350900784134865,0.006241385824978352,0.00504143163561821
1761315185867365400,7.285365478515625,0.004902627319097519,0.023533299565315247,-0.0010094731114804745
1761315185877347300,7.295347412109375,0.005214217118918896,0.03828161954879761,0.0002778989728540182
1761315185887328300,7.305328369140625,0.009578367695212364,0.04295625537633896,0.008513763546943665
1761315185897310200,7.315310302734375,0.009332558140158653,0.0362168550491333,0.01390107162296772
1761315185907291100,7.325291015625,0.009012910537421703,0.028756268322467804,0.014872262254357338
1761315185917273300,7.3352734375,0.004771026782691479,0.022854702547192574,0.011868749745190144
1761315185927254300,7.345254150390625,0.0030748883727937937,0.021939894184470177,-0.00022942130453884602
1761315185937236200,7.355236328125,-0.0007581995450891554,0.018748627975583076,-0.022362153977155685
1761315185947218200,7.36521826171875,-0.000964414095506072,0.01798131875693798,-0.0404496006667614
1761315185957199400,7.375199462890625,0.001493150950409472,0.011472819373011589,-0.04895680025219917
1761315185967181300,7.385181396484375,0.002392988186329603,0.013781484216451645,-0.041162289679050446
1761315185977162200,7.395162353515625,-0.0023929784074425697,0.016203362494707108,-0.019261784851551056
1761315185987144200,7.405144287109375,-0.003329993225634098,0.026920871809124947,-0.0026851478032767773
1761315185997125000,7.415125,-0.0012210359564051032,0.03212521970272064,0.01343762967735529
1761315186007107300,7.425107421875,0.0022271466441452503,0.0403631366789341,0.01792047917842865
1761315186017089300,7.43508935546875,0.01046057604253292,0.049186721444129944,0.011615712195634842
1761315186027070200,7.4450703125,0.020521869882941246,0.05709632486104965,0.006476470269262791
1761315186037052200,7.45505224609375,0.026791483163833618,0.057125888764858246,0.001832982525229454
1761315186047033300,7.465033447265625,0.025336235761642456,0.04826999083161354,-0.0022001510951668024
1761315186057015300,7.475015380859375,0.02131938934326172,0.03416828811168671,-0.010357147082686424
1761315186066996200,7.484996337890625,0.009240720421075821,0.03790851682424545,-0.01792421005666256
1761315186076978200,7.494978271484375,0.002910385839641094,0.035385970026254654,-0.019510654732584953
1761315186086960400,7.50496044921875,-0.009560690261423588,0.024796368554234505,-0.01990877464413643
1761315186096941300,7.51494140625,-0.009153759106993675,0.019824780523777008,-0.01695959083735943
1761315186106923300,7.52492333984375,-0.006132164504379034,0.019863678142428398,-0.010120896622538567
1761315186116904200,7.534904296875,0.005618500988930464,0.027743173763155937,-0.003413725644350052
1761315186126886400,7.544886474609375,0.01587061956524849,0.0400555357336998,0.006867663003504276
1761315186136868400,7.554868408203125,0.0231490395963192,0.03838226944208145,0.024325482547283173
1761315186146849300,7.564849365234375,0.01982315443456173,0.023946359753608704,0.04573715850710869
1761315186156831200,7.574831298828125,0.013433964923024178,0.00474550062790513,0.054857153445482254
1761315186166812200,7.584812255859375,0.012462155893445015,-0.009509294293820858,0.04885140806436539
1761315186176794400,7.59479443359375,0.008593115955591202,-0.011345011182129383,0.026855560019612312
1761315186186775300,7.604775390625,0.010394916869699955,-0.00029333261772990227,0.003769167000427842
1761315186196757200,7.61475732421875,0.0006461493903771043,0.006032739765942097,-0.008246483281254768
1761315186206739200,7.6247392578125,-0.005340574774891138,0.004719873890280724,-0.009187623858451843
1761315186216720400,7.634720458984375,-0.009920679032802582,0.0023962659761309624,-0.000018893275409936905
1761315186226702300,7.644702392578125,-0.017306245863437653,-0.005753860343247652,0.0098256915807724
1761315186236683300,7.654683349609375,-0.01759466528892517,-0.024783212691545486,0.007371854968369007
1761315186246665200,7.664665283203125,-0.017431914806365967,-0.0314953587949276,0.002939005382359028
1761315186256646100,7.674646240234375,-0.012375371530652046,-0.029563236981630325,0.006904452107846737
1761315186266628400,7.68462841796875,-0.012224201112985611,-0.008667802438139915,0.009197598323225975
1761315186276610000,7.694610107421875,-0.010606064461171627,0.0071314009837806225,0.003995114006102085
1761315186286591200,7.70459130859375,-0.010674664750695229,0.010539744049310684,-0.00022750510834157467
1761315186296573200,7.7145732421875,-0.01574638858437538,-0.012940548360347748,-0.01188309583812952
1761315186306554400,7.724554443359375,-0.023647494614124298,-0.03296913951635361,-0.023911288008093834
1761315186316536000,7.7345361328125,-0.028040645644068718,-0.03890053182840347,-0.03371038660407066
1761315186326517200,7.744517333984375,-0.03545788675546646,-0.04185158759355545,-0.04882735386490822
1761315186336499200,7.754499267578125,-0.03940362483263016,-0.026311244815587997,-0.051211949437856674
1761315186346481400,7.7644814453125,-0.03392830491065979,-0.004453103058040142,-0.045391738414764404
1761315186356462300,7.77446240234375,-0.026500483974814415,0.012330671772360802,-0.03277181461453438
1761315186366444300,7.7844443359375,-0.01566329598426819,0.019363239407539368,-0.018343599513173103
1761315186376425200,7.79442529296875,-0.007303634192794561,0.015682484954595566,-0.01597312092781067
1761315186386407200,7.8044072265625,-0.001404803479090333,-0.0014765402302145958,-0.01516997441649437
1761315186396388400,7.814388427734375,-0.0029864548705518246,-0.021531740203499794,-0.010758182033896446
1761315186406370000,7.8243701171875,-0.007951033301651478,-0.0190349742770195,-0.0047316597774624825
1761315186416352300,7.834352294921875,-0.0019735682290047407,0.005928431637585163,0.003506029723212123
1761315186426333200,7.844333251953125,0.001405008020810783,0.02394426055252552,-0.004020291846245527
1761315186436315400,7.8543154296875,0.002880931831896305,0.025363724678754807,-0.027244387194514275
1761315186446296300,7.86429638671875,0.0017273564590141177,0.0150659941136837,-0.05087951198220253
1761315186456278300,7.8742783203125,0.002094872761517763,0.007080505136400461,-0.06492049992084503
1761315186466260200,7.88426025390625,0.003918562550097704,-0.0035399412736296654,-0.07196112722158432
1761315186476241400,7.894241455078125,-0.0028008592780679464,-0.021497901529073715,-0.060301002115011215
1761315186486223000,7.90422314453125,-0.015584410168230534,-0.026277683675289154,-0.03753165900707245
1761315186496204000,7.9142041015625,-0.014758031815290451,0.006625138223171234,-0.022342585027217865
1761315186506186200,7.924186279296875,-0.017455369234085083,0.009817240759730339,-0.03180490806698799
1761315186516167200,7.934167236328125,-0.02224399894475937,0.011596499010920525,-0.04776976257562637
1761315186526149400,7.9441494140625,-0.024675633758306503,0.011506214737892151,-0.05244430899620056
1761315186536131000,7.954131103515625,-0.02014666236937046,-0.001945679308846593,-0.0507340244948864
1761315186546112300,7.9641123046875,-0.01577148213982582,-0.0015150313265621662,-0.0583135224878788
1761315186556094200,7.97409423828125,-0.010574590414762497,0.007844913750886917,-0.06881117075681686
1761315186566075400,7.984075439453125,-0.015790384262800217,0.011484574526548386,-0.07311397790908813
1761315186576057000,7.99405712890625,-0.015193037688732147,0.016230860725045204,-0.07215763628482819
1761315186586038300,8.004038330078124,-0.01421893760561943,0.014677747152745724,-0.05325489863753319
1761315186596020200,8.014020263671876,-0.014271668158471584,0.004842693917453289,-0.03209981322288513
1761315186606002400,8.02400244140625,-0.012642968446016312,-0.02018965221941471,-0.0018695862963795662
1761315186615983400,8.0339833984375,-0.0036465441808104515,-0.03127000108361244,0.0261753648519516
1761315186625965300,8.04396533203125,0.009442001581192017,-0.02898215688765049,0.045976459980010986
1761315186635946200,8.0539462890625,0.0159654151648283,-0.017948148772120476,0.05570125952363014
1761315186645928200,8.06392822265625,0.02524205669760704,0.00907154381275177,0.05265515297651291
1761315186655910100,8.07391015625,0.032913289964199066,0.030884962528944016,0.0443950891494751
1761315186665890800,8.083890869140625,0.03971819952130318,0.03493642807006836,0.019294796511530876
1761315186675872800,8.093872802734374,0.03806544467806816,0.03001011535525322,0.002148034516721964
1761315186685853700,8.103853759765625,0.034351035952568054,0.01978784240782261,-0.007338246330618858
1761315186695836000,8.1138359375,0.028266243636608124,0.014356058090925217,-0.01381372194737196
1761315186705816800,8.12381689453125,-0.01425365824252367,0.02589019387960434,-0.03277236223220825
1761315186715798800,8.133798828125,-0.017558373510837555,0.022776424884796143,-0.03331458196043968
1761315186725780700,8.14378076171875,-0.018089210614562035,0.03755509853363037,-0.0342257097363472
1761315186735761700,8.15376171875,-0.01968284696340561,0.04674725979566574,-0.021410580724477768
1761315186745744000,8.163743896484375,-0.016916384920477867,0.05429334193468094,-0.011503659188747406
1761315186755724500,8.173724609375,-0.006139370612800121,0.037366822361946106,0.0073187644593417645
1761315186765706800,8.183706787109376,0.011416117660701275,0.02743535488843918,0.01328311674296856
1761315186775688700,8.193688720703125,0.03129022195935249,0.017492976039648056,0.01605333760380745
1761315186785670000,8.203669921875,0.045047737658023834,0.014339227229356766,0.020052248612046242
1761315186795651600,8.213651611328125,0.05327877029776573,0.006228037178516388,0.02545074187219143
1761315186805632800,8.2236328125,0.05419967323541641,-0.007751379162073135,0.029124790802598
1761315186815614700,8.23361474609375,0.043387770652770996,-0.025562334805727005,0.02906966395676136
1761315186825596000,8.243595947265625,0.036990776658058167,-0.02551816776394844,0.03465878963470459
1761315186835577600,8.25357763671875,0.027589818462729454,-0.014193875715136528,0.03571978956460953
1761315186845559800,8.263559814453124,0.019648762419819832,-0.004990282002836466,0.019031599164009094
1761315186855540700,8.273540771484376,0.01675523817539215,0.023197412490844727,-0.007228235714137554
1761315186865523000,8.28352294921875,0.016463972628116608,0.04985996335744858,-0.024282267317175865
1761315186875503900,8.29350390625,0.013359257951378822,0.06287349760532379,-0.021089136600494385
1761315186885485600,8.303485595703124,0.005419927649199963,0.05703805014491081,-0.00041072163730859756
1761315186895466800,8.313466796875,-0.006702781654894352,0.05058041960000992,0.028860880061984062
1761315186905448700,8.32344873046875,-0.0015089035732671618,0.04104463756084442,0.04930034279823303
1761315186915431000,8.333430908203125,0.0059487465769052505,0.03799904137849808,0.04199396073818207
1761315186925411600,8.34341162109375,0.0068569243885576725,0.03438808396458626,0.017054811120033264
1761315186935393800,8.353393798828124,-0.0011322926729917526,0.018554527312517166,-0.015483157709240913
1761315186945374700,8.363374755859375,-0.012137452140450478,0.012498192489147186,-0.03262794390320778
1761315186955357000,8.37335693359375,-0.024687599390745163,0.012065429240465164,-0.03876839578151703
1761315186965337900,8.383337890625,-0.027184076607227325,0.024043008685112,-0.03957803174853325
1761315186975319800,8.39331982421875,-0.02462264522910118,0.02374500408768654,-0.03261918947100639
1761315186985301800,8.4033017578125,-0.021195970475673676,0.018914632499217987,-0.016655204817652702
1761315186995282700,8.41328271484375,-0.018661705777049065,0.022529341280460358,0.004622386768460274
1761315187005264600,8.4232646484375,-0.013587995432317257,0.02104831673204899,0.015790240839123726
1761315187015245600,8.43324560546875,-0.008016662672162056,0.011997297406196594,0.017164699733257294
1761315187025227800,8.443227783203126,-0.0037963748909533024,0.00984097458422184,0.015545975416898727
1761315187035209700,8.453209716796875,-0.0031241928227245808,0.018169211223721504,-0.00031820801086723804
1761315187045191000,8.46319091796875,-0.005932062864303589,0.032868798822164536,-0.016864795237779617
1761315187055172600,8.473172607421875,-0.003200192004442215,0.046531882137060165,-0.01767253316938877
1761315187065153800,8.48315380859375,-0.012471707537770271,0.050915636122226715,-0.01803864911198616
1761315187075135700,8.4931357421875,-0.02756037935614586,0.05342433229088783,-0.004225367214530706
1761315187085117000,8.503116943359375,-0.035445548593997955,0.056740835309028625,0.006483606994152069
1761315187095098600,8.5130986328125,-0.03578563407063484,0.057104889303445816,0.006226612254977226
1761315187105080800,8.523080810546874,-0.028608744964003563,0.05316316336393356,-0.005350228399038315
1761315187115061800,8.533061767578126,-0.01865517906844616,0.04791567102074623,-0.018300646916031837
1761315187125044000,8.5430439453125,-0.01412990316748619,0.047283582389354706,-0.01747708022594452
1761315187135025000,8.55302490234375,-0.013591678813099861,0.04672751575708389,-0.0019497862085700035
1761315187145006600,8.563006591796874,-0.018264923244714737,0.02518335171043873,0.0028112109284847975
1761315187154988800,8.57298876953125,-0.01431705430150032,0.018079902976751328,-0.0005198710132390261
1761315187164969700,8.5829697265625,-0.002301223576068878,0.015358898788690567,-0.008647892624139786
1761315187174951700,8.59295166015625,-0.00067589629907161,0.014095230028033257,-0.024827927350997925
1761315187184932600,8.6029326171875,0.0002305462257936597,0.025411006063222885,-0.04820818454027176
1761315187194914800,8.612914794921876,-0.004729058593511581,0.036539290100336075,-0.055171020328998566
1761315187204895700,8.622895751953125,-0.012114628218114376,0.0412934236228466,-0.04750262573361397
1761315187214878000,8.6328779296875,-0.02342800237238407,0.06238193064928055,-0.03770485520362854
1761315187224859600,8.642859619140625,-0.022632969543337822,0.09411609172821045,-0.0293892715126276
1761315187234840800,8.6528408203125,-0.017706654965877533,0.13144934177398682,-0.02931949682533741
1761315187244822800,8.66282275390625,-0.0205643679946661,0.19909292459487915,0.035658497363328934
1761315187254803700,8.6728037109375,-0.07014230638742447,0.11939144134521484,0.1259487122297287
1761315187264785700,8.68278564453125,-0.05551404133439064,-0.08066873252391815,0.08851408213376999
1761315187274766600,8.6927666015625,-0.009278902783989906,-0.07495997846126556,0.056236304342746735
1761315187284748800,8.702748779296876,0.014973020181059837,-0.07985401898622513,0.026584740728139877
1761315187294730800,8.712730712890625,0.005514537915587425,-0.07992831617593765,0.001956092193722725
1761315187304712000,8.7227119140625,0.004065010230988264,-0.030368762090802193,-0.02685767225921154
1761315187314693600,8.732693603515624,0.004937462043017149,0.008676107972860336,-0.058715470135211945
1761315187324674800,8.7426748046875,-0.006028595380485058,0.03806506469845772,-0.07113555073738098
1761315187334656800,8.75265673828125,-0.030345119535923004,0.05926649272441864,-0.04597533494234085
