time,seconds_elapsed,z,y,x
1761316070217871600,0.07487158203125,0.04544020816683769,-0.020839188247919083,0.27166712284088135
1761316070227853600,0.084853515625,0.033314041793346405,-0.140263631939888,0.3190913200378418
1761316070237836500,0.09483642578125,0.039102159440517426,-0.24215750396251678,0.3843310475349426
1761316070247819800,0.10481982421875,0.03618983179330826,-0.30800971388816833,0.4575556218624115
1761316070257802800,0.114802734375,0.00987540278583765,-0.3571378290653229,0.5583754181861877
1761316070267784700,0.12478466796875,-0.04157128557562828,-0.40328264236450195,0.6855169534683228
1761316070277767700,0.134767578125,-0.11775659769773483,-0.5099536776542664,0.8051440119743347
1761316070287750700,0.144750732421875,-0.22580130398273468,-0.6778974533081055,0.8761233687400818
1761316070297733600,0.154733642578125,-0.28954407572746277,-0.8797378540039062,0.9285399913787842
1761316070307715600,0.164715576171875,-0.08282922953367233,-0.9732875823974609,0.9453079700469971
1761316070317698800,0.17469873046875,0.16822457313537598,-0.859557032585144,0.883684515953064
1761316070327681500,0.184681640625,0.3258165717124939,-0.6551452875137329,0.7650701999664307
1761316070337664500,0.19466455078125,0.37701743841171265,-0.6386725902557373,0.5424184799194336
1761316070347646700,0.204646728515625,0.4007490277290344,-0.9451501369476318,0.13784119486808777
1761316070357629400,0.21462939453125,0.45031580328941345,-1.3550163507461548,-0.4221118688583374
1761316070367612700,0.22461279296875,0.4242889881134033,-1.1536812782287598,-1.1650104522705078
1761316070377595600,0.234595703125,0.20391958951950073,-0.3647882342338562,-1.7304691076278687
1761316070387577600,0.24457763671875,0.01395663246512413,0.440891832113266,-1.9567270278930664
1761316070397560600,0.254560546875,-0.06577388197183609,1.3472517728805542,-1.8372187614440918
1761316070407543600,0.26454345703125,-0.0496511273086071,2.0654523372650146,-1.2895270586013794
1761316070417526800,0.27452685546875,0.07835344225168228,2.3097333908081055,-0.5235958099365234
1761316070427508500,0.284508544921875,0.3126785159111023,2.3353800773620605,0.13989248871803284
1761316070437491700,0.29449169921875,0.5962958335876465,2.1317222118377686,0.5845903158187866
1761316070447474700,0.304474609375,0.8490133881568909,1.639039158821106,0.7855505347251892
1761316070457457700,0.314457763671875,0.9729563593864441,0.9778040051460266,0.8046366572380066
1761316070467439600,0.324439697265625,0.8305904269218445,0.3348279595375061,0.7079564332962036
1761316070477422600,0.334422607421875,0.40441516041755676,-0.16902507841587067,0.4694722294807434
1761316070487405600,0.344405517578125,0.09011446684598923,-0.5997432470321655,0.17655609548091888
1761316070497388800,0.354388916015625,0.028887055814266205,-0.8954007029533386,-0.17592498660087585
1761316070507370800,0.364370849609375,0.13062408566474915,-0.9104109406471252,-0.5776722431182861
1761316070517353700,0.374353759765625,0.2908712923526764,-0.7770481109619141,-0.891182005405426
1761316070527337000,0.3843369140625,0.43080464005470276,-0.5566400289535522,-1.0638796091079712
1761316070537319700,0.394319580078125,0.5468436479568481,-0.36216670274734497,-1.1284666061401367
1761316070547302000,0.404302001953125,0.6180868744850159,-0.19053342938423157,-1.1173839569091797
1761316070557284900,0.414284912109375,0.6729583740234375,-0.05648455396294594,-1.0710233449935913
1761316070567267600,0.424267578125,0.6645051836967468,0.023071404546499252,-0.9677869081497192
1761316070577249800,0.434249755859375,0.577825665473938,0.021744348108768463,-0.8123552799224854
1761316070587232800,0.444232666015625,0.47668373584747314,0.012066429480910301,-0.5930888056755066
1761316070597215700,0.4542158203125,0.42057597637176514,0.007804572116583586,-0.3484053313732147
1761316070607198700,0.46419873046875,0.3892592489719391,-0.010386700741946697,-0.10727004706859589
1761316070617181000,0.474180908203125,0.3812468647956848,-0.03406459838151932,0.12650729715824127
1761316070627163600,0.48416357421875,0.3899790048599243,-0.028118032962083817,0.33939918875694275
1761316070637146600,0.494146728515625,0.4127892553806305,-0.017528239637613297,0.4972902834415436
1761316070647129900,0.5041298828125,0.42607662081718445,-0.015714876353740692,0.6139757633209229
1761316070657111600,0.514111572265625,0.4350416362285614,-0.07491295039653778,0.7163455486297607
1761316070667094800,0.5240947265625,0.521895170211792,-0.2160017192363739,0.8486192226409912
1761316070677077800,0.534077880859375,0.5508072376251221,-0.3138297200202942,1.0336174964904785
1761316070687060700,0.544060791015625,0.511422872543335,-0.4258587658405304,1.2175750732421875
1761316070697042700,0.554042724609375,0.4368269741535187,-0.5180160999298096,1.3914408683776855
1761316070707025700,0.564025634765625,0.36758193373680115,-0.553528368473053,1.5443984270095825
1761316070717009000,0.5740087890625,0.31838324666023254,-0.5827144980430603,1.6625645160675049
1761316070726991600,0.58399169921875,0.27166739106178284,-0.5833224058151245,1.7379975318908691
1761316070736973800,0.593973876953125,0.20507851243019104,-0.5973657965660095,1.7496377229690552
1761316070746956800,0.603956787109375,0.14811517298221588,-0.6047156453132629,1.676069974899292
1761316070756939800,0.613939697265625,0.1065906435251236,-0.5994974374771118,1.5198607444763184
1761316070766922800,0.6239228515625,0.08388342708349228,-0.5546292662620544,1.3184505701065063
1761316070776904700,0.63390478515625,0.0337614007294178,-0.47899311780929565,1.126009225845337
1761316070786887700,0.6438876953125,-0.014521815814077854,-0.3718925416469574,0.9080538153648376
1761316070796870700,0.65387060546875,-0.033033981919288635,-0.25583094358444214,0.6373072266578674
1761316070806854000,0.66385400390625,0.0006543614435940981,-0.074234239757061,0.4111403226852417
1761316070816835600,0.673835693359375,0.0922095775604248,0.21195970475673676,0.36172592639923096
1761316070826818800,0.68381884765625,0.1333497315645218,0.5847116708755493,0.39625072479248047
1761316070836801800,0.6938017578125,0.10905183851718903,1.0655475854873657,0.5153017044067383
1761316070846784800,0.70378466796875,0.053770486265420914,1.5216896533966064,0.6554656624794006
1761316070856766700,0.7137666015625,-0.03187650814652443,1.589643120765686,0.600078821182251
1761316070866749700,0.723749755859375,-0.08268924057483673,1.2813668251037598,0.37398239970207214
1761316070876733000,0.73373291015625,-0.04692884534597397,0.7728167176246643,0.12330040335655212
1761316070886715600,0.743715576171875,0.049161605536937714,0.26212209463119507,-0.010700851678848267
1761316070896697900,0.75369775390625,0.2198539823293686,-0.07043667882680893,0.02568671852350235
1761316070906680800,0.763680908203125,0.43086254596710205,-0.2105264663696289,0.20761269330978394
1761316070916663600,0.77366357421875,0.5798024535179138,-0.2371721863746643,0.4056045711040497
1761316070926646800,0.783646728515625,0.6529043316841125,-0.26930204033851624,0.48174574971199036
1761316070936628700,0.793628662109375,0.6775846481323242,-0.3325878083705902,0.35148948431015015
1761316070946611700,0.80361181640625,0.6653638482093811,-0.4150908291339874,0.024397429078817368
1761316070956594700,0.8135947265625,0.6462889909744263,-0.4674547016620636,-0.47230181097984314
1761316070966577700,0.82357763671875,0.6240929365158081,-0.41751161217689514,-1.0619101524353027
1761316070976559600,0.8335595703125,0.4995959997177124,-0.29019173979759216,-1.6377472877502441
1761316070986542600,0.84354248046875,0.2700769305229187,-0.1505860984325409,-2.116779327392578
1761316070996525800,0.85352587890625,-0.007390621118247509,-0.09259897470474243,-2.458242654800415
1761316071006508800,0.8635087890625,-0.22968676686286926,-0.18052826821804047,-2.5882201194763184
1761316071016490800,0.87349072265625,-0.2928106188774109,-0.320154070854187,-2.471428394317627
1761316071026473700,0.8834736328125,-0.17927414178848267,-0.4628002941608429,-2.119729518890381
1761316071036456700,0.893456787109375,0.01789912022650242,-0.5779186487197876,-1.6017886400222778
1761316071046439700,0.903439697265625,0.2223471850156784,-0.6084494590759277,-0.9442415833473206
1761316071056421600,0.913421630859375,0.3505949079990387,-0.6054466962814331,-0.23399513959884644
1761316071066404900,0.92340478515625,0.36849573254585266,-0.617680549621582,0.39172688126564026
1761316071076387600,0.9333876953125,0.313586950302124,-0.6115446090698242,0.8519690036773682
1761316071086370800,0.943370849609375,0.20863352715969086,-0.535677969455719,1.1270637512207031
1761316071096352800,0.953352783203125,0.0696796327829361,-0.3906136751174927,1.215582251548767
1761316071106335700,0.963335693359375,-0.08909894526004791,-0.24013200402259827,1.1235339641571045
1761316071116318700,0.973318603515625,-0.25067105889320374,-0.06623664498329163,0.9265079498291016
1761316071126301700,0.9833017578125,-0.37478095293045044,0.0929994061589241,0.6535804271697998
1761316071136283600,0.99328369140625,-0.43977755308151245,0.19848082959651947,0.3679036796092987
1761316071146266600,1.0032666015625,-0.4253149926662445,0.30710816383361816,0.1159844920039177
1761316071156249900,1.013249755859375,-0.3544405400753021,0.3569103479385376,-0.06763726472854614
1761316071166232800,1.02323291015625,-0.26456648111343384,0.34390977025032043,-0.15226902067661285
1761316071176214800,1.03321484375,-0.18797102570533752,0.2794996201992035,-0.13097572326660156
1761316071186197800,1.04319775390625,-0.1324184685945511,0.16912968456745148,-0.023970384150743484
1761316071196180700,1.0531806640625,-0.09903042018413544,0.0479382760822773,0.13274440169334412
1761316071206162700,1.06316259765625,-0.10238917917013168,-0.09275645017623901,0.3071330785751343
1761316071216145700,1.073145751953125,-0.15683510899543762,-0.2317018210887909,0.4665325880050659
1761316071226129000,1.08312890625,-0.2538888454437256,-0.34587132930755615,0.5710842609405518
1761316071236111600,1.093111572265625,-0.3818731904029846,-0.40023869276046753,0.5951328873634338
1761316071246093800,1.10309375,-0.4875534474849701,-0.34870195388793945,0.5335214138031006
1761316071256076800,1.113076904296875,-0.5328559279441833,-0.21458303928375244,0.3799203634262085
1761316071266059500,1.1230595703125,-0.5452956557273865,-0.013604938983917236,0.13026836514472961
1761316071276042800,1.133042724609375,-0.5183572769165039,0.24823226034641266,-0.1855897158384323
1761316071286024700,1.143024658203125,-0.42281508445739746,0.39138922095298767,-0.5610235333442688
1761316071296007700,1.153007568359375,-0.2123020589351654,0.4376203715801239,-0.9150628447532654
1761316071305990700,1.16299072265625,0.06509038805961609,0.4452415704727173,-1.1801562309265137
1761316071315973600,1.1729736328125,0.3512558341026306,0.5464752912521362,-1.3378406763076782
1761316071325955600,1.18295556640625,0.486952006816864,0.8445675373077393,-1.2972534894943237
1761316071335938800,1.192938720703125,0.19661261141300201,1.201080083847046,-1.119003176689148
1761316071345921800,1.202921875,-0.43427544832229614,1.12575364112854,-0.7869423031806946
1761316071355904800,1.21290478515625,-1.0925170183181763,0.48151126503944397,-0.4304025173187256
1761316071365886700,1.22288671875,-1.4977262020111084,-0.36365896463394165,-0.13294430077075958
1761316071375869700,1.23286962890625,-1.4950729608535767,-0.8664587736129761,0.056944675743579865
1761316071385853000,1.24285302734375,-1.1559667587280273,-0.9199959635734558,0.1983288675546646
1761316071395835600,1.252835693359375,-0.6208798289299011,-0.5958354473114014,0.36575010418891907
1761316071405817900,1.26281787109375,-0.046069782227277756,-0.0880461260676384,0.6329696774482727
1761316071415800800,1.27280078125,0.4243512451648712,0.3953644633293152,0.9256671071052551
1761316071425783600,1.282783447265625,0.7191638946533203,0.7176010608673096,1.1256420612335205
1761316071435766800,1.292766845703125,0.9180120229721069,0.8666917085647583,1.202344298362732
1761316071445748700,1.302748779296875,0.9993155598640442,0.8257576823234558,1.1339415311813354
1761316071455731700,1.312731689453125,0.9345945715904236,0.6264533400535583,0.9150227308273315
1761316071465714700,1.322714599609375,0.7664775252342224,0.33263108134269714,0.5733978748321533
1761316071475697700,1.33269775390625,0.5581895709037781,-0.014733530580997467,0.1665414422750473
1761316071485679600,1.3426796875,0.36069878935813904,-0.35668742656707764,-0.24490773677825928
1761316071495662600,1.35266259765625,0.24739009141921997,-0.6309490203857422,-0.6235953569412231
1761316071505645800,1.362645751953125,0.2467551976442337,-0.8130366206169128,-0.9297984838485718
1761316071515627800,1.372627685546875,0.3386976420879364,-0.8707723617553711,-1.1027281284332275
1761316071525610800,1.38261083984375,0.4594257175922394,-0.821951150894165,-1.1138341426849365
1761316071535593700,1.39259375,0.5489804148674011,-0.6912322640419006,-0.9600808620452881
1761316071545576700,1.40257666015625,0.5587232708930969,-0.5245163440704346,-0.6731692552566528
1761316071555558700,1.41255859375,0.48082104325294495,-0.3438493609428406,-0.31077536940574646
1761316071565541600,1.422541748046875,0.34164777398109436,-0.15225088596343994,0.07483822107315063
1761316071575524900,1.43252490234375,0.1805419623851776,0.00009444821625947952,0.41585493087768555
1761316071585507800,1.4425078125,0.019795816391706467,0.12576737999916077,0.6817343831062317
1761316071595489800,1.45248974609375,-0.11508157104253769,0.24325940012931824,0.8623976111412048
1761316071605472800,1.46247265625,-0.2325456738471985,0.3349001109600067,0.9580623507499695
1761316071615455700,1.472455810546875,-0.32652726769447327,0.4028237462043762,0.9787598848342896
1761316071625438700,1.482438720703125,-0.37894049286842346,0.4319344460964203,0.9543707966804504
1761316071635420700,1.492420654296875,-0.3797183930873871,0.41389524936676025,0.919658362865448
1761316071645404000,1.50240380859375,-0.3589535653591156,0.3569144010543823,0.8974055647850037
1761316071655386600,1.51238671875,-0.34200599789619446,0.24679456651210785,0.8744446039199829
1761316071665369900,1.522369873046875,-0.32429030537605286,0.12050075083971024,0.8447626233100891
1761316071675351800,1.532351806640625,-0.3050076961517334,0.022559810429811478,0.8008737564086914
1761316071685334800,1.542334716796875,-0.30484092235565186,-0.0474117174744606,0.7211617827415466
1761316071695317800,1.55231787109375,-0.33579644560813904,-0.09087371081113815,0.5896956324577332
1761316071705300700,1.56230078125,-0.39881059527397156,-0.09991026669740677,0.421110600233078
1761316071715282700,1.57228271484375,-0.4669499695301056,-0.08649618923664093,0.24925866723060608
1761316071725265700,1.582265625,-0.512660026550293,-0.0667906329035759,0.1254914104938507
1761316071735249000,1.592248779296875,-0.5467681884765625,-0.07972294837236404,0.0639745220541954
1761316071745230600,1.602230712890625,-0.5952997803688049,-0.13004671037197113,0.07478147745132446
1761316071755213800,1.6122138671875,-0.6360549330711365,-0.15152058005332947,0.15474049746990204
1761316071765196800,1.62219677734375,-0.649780809879303,-0.13383816182613373,0.28318676352500916
1761316071775179800,1.6321796875,-0.6304148435592651,-0.06842667609453201,0.383508563041687
1761316071785161700,1.64216162109375,-0.5751170516014099,-0.0061784107238054276,0.42382532358169556
1761316071795144700,1.652144775390625,-0.4452000558376312,0.07355689257383347,0.40575525164604187
1761316071805128000,1.6621279296875,-0.2268664538860321,0.3547242283821106,0.38236796855926514
1761316071815110700,1.672110595703125,-0.0826869010925293,0.8721671104431152,0.33813047409057617
1761316071825092900,1.6820927734375,-0.19592541456222534,1.2339332103729248,0.14888238906860352
1761316071835075800,1.692075927734375,-0.48942309617996216,1.1398952007293701,-0.22318623960018158
1761316071845058600,1.70205859375,-0.7152804732322693,0.7449344396591187,-0.7043801546096802
1761316071855041800,1.712041748046875,-0.7219898104667664,0.31920018792152405,-1.0788723230361938
1761316071865023700,1.722023681640625,-0.5516954660415649,0.023439425975084305,-1.2323192358016968
1761316071875006700,1.7320068359375,-0.27591976523399353,-0.00019319774582982063,-1.1359546184539795
1761316071884989700,1.74198974609375,0.06910230219364166,0.1161288470029831,-0.8411581516265869
1761316071894973000,1.751972900390625,0.4289497137069702,0.16446097195148468,-0.42243123054504395
1761316071904954600,1.76195458984375,0.725996732711792,0.07959677278995514,0.0037427754141390324
1761316071914937900,1.771937744140625,0.9223564267158508,-0.17025327682495117,0.23819255828857422
1761316071924920800,1.7819208984375,1.0754213333129883,-0.5243420004844666,0.18998463451862335
1761316071934903800,1.79190380859375,1.1373249292373657,-0.8711204528808594,-0.10621853172779083
1761316071944885800,1.8018857421875,1.0942292213439941,-1.1166809797286987,-0.5136018991470337
1761316071954868700,1.81186865234375,0.960010826587677,-1.2608344554901123,-0.9211742281913757
1761316071964852000,1.82185205078125,0.8016675710678101,-1.3002331256866455,-1.2761489152908325
1761316071974833700,1.831833740234375,0.6565026640892029,-1.2295445203781128,-1.5258325338363647
1761316071984817000,1.84181689453125,0.5234496593475342,-1.0834764242172241,-1.6601461172103882
1761316071994799900,1.8517998046875,0.38336288928985596,-0.8939400315284729,-1.696824312210083
1761316072004782600,1.861782470703125,0.2700146436691284,-0.6604713797569275,-1.6388822793960571
1761316072014764800,1.871764892578125,0.19876337051391602,-0.3997953236103058,-1.4852604866027832
1761316072024747800,1.881747802734375,0.1532660275697708,-0.1275879293680191,-1.20827317237854
1761316072034730800,1.891730712890625,0.11918715387582779,0.11233678460121155,-0.859410285949707
1761316072044713700,1.901713623046875,0.08680177479982376,0.2741459608078003,-0.4962099492549896
1761316072054696000,1.911696044921875,0.060604531317949295,0.3355366289615631,-0.1605520397424698
1761316072064678700,1.9216787109375,0.040837038308382034,0.33601778745651245,0.10898490250110626
1761316072074661600,1.93166162109375,0.01151030883193016,0.25857946276664734,0.29708343744277954
1761316072084644900,1.941644775390625,-0.019338998943567276,0.11922161281108856,0.3973650336265564
1761316072094626600,1.95162646484375,-0.05063726752996445,-0.048500269651412964,0.4187539517879486
1761316072104609800,1.96160986328125,-0.07367441058158875,-0.19251896440982819,0.3816499710083008
1761316072114592800,1.9715927734375,-0.08524531126022339,-0.3202284276485443,0.3172544836997986
1761316072124575700,1.98157568359375,-0.04756287857890129,-0.3769228458404541,0.27450549602508545
1761316072134557700,1.9915576171875,0.012613107450306416,-0.4206242561340332,0.2649865448474884
1761316072144540700,2.001540771484375,0.056833330541849136,-0.48166707158088684,0.31700560450553894
1761316072154524000,2.01152392578125,0.07337263226509094,-0.5311036109924316,0.4150003492832184
1761316072164505600,2.021505615234375,0.07212719321250916,-0.5462008714675903,0.5215703248977661
1761316072174488800,2.03148876953125,0.05022508651018143,-0.5065394639968872,0.6005367636680603
1761316072184471800,2.041471923828125,0.014365733601152897,-0.4256770610809326,0.6613714694976807
1761316072194454800,2.051454833984375,-0.021304378286004066,-0.3053213655948639,0.7045538425445557
1761316072204436700,2.061436767578125,-0.07030197978019714,-0.1670212745666504,0.7165141701698303
1761316072214420000,2.071419921875,-0.11366250365972519,-0.0278007909655571,0.6892673373222351
1761316072224402700,2.081402587890625,-0.1322586089372635,0.09367775917053223,0.6246523857116699
1761316072234385700,2.0913857421875,-0.13265195488929749,0.17712977528572083,0.5394549369812012
1761316072244368000,2.101367919921875,-0.10809391736984253,0.23975931107997894,0.4733866751194
1761316072254350600,2.1113505859375,-0.07912112772464752,0.27490848302841187,0.4274284839630127
1761316072264333800,2.121333740234375,-0.06978917866945267,0.25125032663345337,0.3417114317417145
1761316072274316800,2.13131689453125,-0.08576095104217529,0.18899281322956085,0.1693183332681656
1761316072284299000,2.141299072265625,-0.11173444986343384,0.22515927255153656,-0.04280644282698631
1761316072294281700,2.15128173828125,-0.1619829684495926,0.3947206139564514,-0.23667684197425842
1761316072304264700,2.1612646484375,-0.2050274759531021,0.6030540466308594,-0.4065995216369629
1761316072314247000,2.171246826171875,-0.1870836317539215,1.1276098489761353,-0.4864879548549652
1761316072324229600,2.181229736328125,-0.11135616153478622,2.0152788162231445,-0.46083343029022217
1761316072334212900,2.191212890625,-0.0166043508797884,2.528890371322632,-0.45635828375816345
1761316072344195800,2.20119580078125,-0.050935033708810806,2.049286365509033,-0.7040583491325378
1761316072354177800,2.211177734375,-0.15627530217170715,0.7148023247718811,-1.3788095712661743
1761316072364160800,2.221160888671875,-0.10792148113250732,-0.5577546954154968,-1.945254921913147
1761316072374143700,2.231143798828125,0.08059144020080566,-1.1500643491744995,-1.908506155014038
1761316072384126700,2.241126708984375,0.20400084555149078,-1.1609163284301758,-1.2848542928695679
1761316072394108700,2.251108642578125,0.28837138414382935,-0.9498583674430847,-0.4259569048881531
1761316072404092000,2.261091796875,0.4204745590686798,-0.5736410617828369,0.27586379647254944
1761316072414075000,2.271074951171875,0.5889104008674622,-0.24059152603149414,0.5897322297096252
1761316072424057600,2.2810576171875,0.7556294202804565,-0.06447380781173706,0.6167396306991577
1761316072434039800,2.291039794921875,0.85997474193573,-0.07670757174491882,0.4396253228187561
1761316072444022800,2.301022705078125,0.8650777339935303,-0.1963798552751541,0.1453022062778473
1761316072454005800,2.311005859375,0.7498595118522644,-0.25684186816215515,-0.25129252672195435
1761316072463988700,2.32098876953125,0.5546558499336243,-0.1470632553100586,-0.69538813829422
1761316072473971000,2.330970947265625,0.3428003191947937,0.10465553402900696,-1.085693359375
1761316072483953700,2.34095361328125,0.13337558507919312,0.3852483630180359,-1.3425880670547485
1761316072493936600,2.3509365234375,-0.03287598490715027,0.6233051419258118,-1.4319368600845337
1761316072503918600,2.360918701171875,-0.03630833700299263,0.8260976672172546,-1.3072106838226318
1761316072513901600,2.370901611328125,0.11475414782762527,0.9249736666679382,-1.0276051759719849
1761316072523884500,2.380884521484375,0.34271204471588135,0.9205748438835144,-0.6146106123924255
1761316072533867500,2.390867431640625,0.5521265268325806,0.8164279460906982,-0.09897738695144653
1761316072543849500,2.400849365234375,0.6557741165161133,0.6134361624717712,0.45711538195610046
1761316072553832400,2.41083251953125,0.6367958784103394,0.38044071197509766,0.9590762853622437
1761316072563815700,2.420815673828125,0.516036868095398,0.14967621862888336,1.3379507064819336
1761316072573798400,2.43079833984375,0.3615492582321167,-0.0477881096303463,1.5768150091171265
1761316072583780600,2.440780517578125,0.19505813717842102,-0.24531902372837067,1.7026265859603882
1761316072593763600,2.450763671875,0.07827265560626984,-0.4094400405883789,1.7876125574111938
1761316072603746300,2.460746337890625,-0.030074113979935646,-0.4475679099559784,1.799007773399353
1761316072613729500,2.4707294921875,-0.16723063588142395,-0.5551518797874451,1.7376991510391235
1761316072623711500,2.48071142578125,-0.27975571155548096,-0.602340042591095,1.666751742362976
1761316072633694700,2.49069482421875,-0.3603123426437378,-0.6061845421791077,1.5589200258255005
1761316072643677400,2.500677490234375,-0.4294513463973999,-0.616923987865448,1.3863418102264404
1761316072653659600,2.51065966796875,-0.45973441004753113,-0.5782034397125244,1.2014678716659546
1761316072663642600,2.520642578125,-0.4396202862262726,-0.4707847833633423,1.0291953086853027
1761316072673625300,2.530625244140625,-0.3583779036998749,-0.31662771105766296,0.9633001685142517
1761316072683608600,2.540608642578125,-0.26277610659599304,-0.07819339632987976,0.805009663105011
1761316072693590500,2.550590576171875,-0.2146972417831421,0.04873153567314148,0.60843425989151
1761316072703573500,2.560573486328125,-0.21501290798187256,0.09307119995355606,0.4593578279018402
1761316072713556500,2.570556396484375,-0.21788565814495087,0.09347973018884659,0.3493613004684448
1761316072723539700,2.580539794921875,-0.2266346514225006,0.06541363149881363,0.26129522919654846
1761316072733521400,2.590521484375,-0.25645697116851807,0.03838520497083664,0.20109739899635315
1761316072743504600,2.600504638671875,-0.3095160126686096,0.0036019491963088512,0.15307602286338806
1761316072753487600,2.610487548828125,-0.35733839869499207,-0.006884514354169369,0.09809267520904541
1761316072763470600,2.620470703125,-0.38264426589012146,-0.034304965287446976,0.010889618657529354
1761316072773452500,2.63045263671875,-0.3959922790527344,-0.06043590232729912,-0.10819735378026962
1761316072783435500,2.640435546875,-0.4115113317966461,-0.06991169601678848,-0.24724365770816803
1761316072793418800,2.650418701171875,-0.3982679545879364,-0.06656516343355179,-0.3600887060165405
1761316072803400400,2.660400390625,-0.3274925649166107,0.026793768629431725,-0.4416278004646301
1761316072813383700,2.6703837890625,-0.2503224313259125,0.1604711413383484,-0.5115584135055542
1761316072823366700,2.68036669921875,-0.19329147040843964,0.3233148157596588,-0.5528112649917603
1761316072833349400,2.690349365234375,-0.13976193964481354,0.4716629981994629,-0.5880211591720581
1761316072843331600,2.70033154296875,-0.08638007938861847,0.4383896589279175,-0.7427254915237427
1761316072853314600,2.710314453125,-0.052525706589221954,0.014234902337193489,-1.1968168020248413
1761316072863297500,2.720297607421875,-0.08115459978580475,-0.7299237251281738,-1.8331544399261475
1761316072873280500,2.730280517578125,-0.10021883994340897,-1.347684621810913,-2.266211748123169
1761316072883262700,2.7402626953125,-0.06903025507926941,-1.5516798496246338,-2.264590263366699
1761316072893245400,2.750245361328125,0.03508256748318672,-1.3843166828155518,-1.888031244277954
1761316072903228400,2.760228515625,0.18984587490558624,-0.9703516364097595,-1.2716172933578491
1761316072913211600,2.770211669921875,0.3107241094112396,-0.3916342258453369,-0.5686303973197937
1761316072923193300,2.780193359375,0.3762669563293457,0.20466099679470062,-0.008958627469837666
1761316072933176600,2.790176513671875,0.4389364421367645,0.5547167658805847,0.24521079659461975
1761316072943159600,2.80015966796875,0.5237077474594116,0.7471176385879517,0.27061229944229126
1761316072953141500,2.8101416015625,0.5651875734329224,0.7834415435791016,0.15578638017177582
1761316072963124500,2.82012451171875,0.4960700571537018,0.6819742918014526,-0.04686999320983887
1761316072973107500,2.830107421875,0.3350076675415039,0.5606265664100647,-0.27469250559806824
1761316072983090700,2.840090576171875,0.12338868528604507,0.5078386664390564,-0.4944949150085449
1761316072993072400,2.850072265625,-0.11166617274284363,0.5081265568733215,-0.6914633512496948
1761316073003055600,2.8600556640625,-0.3108906149864197,0.4835408329963684,-0.8374360203742981
1761316073013038600,2.87003857421875,-0.3399624526500702,0.5085007548332214,-0.8156742453575134
1761316073023021600,2.880021484375,-0.17089389264583588,0.5616186261177063,-0.6209524869918823
1761316073033003500,2.89000341796875,0.06863188743591309,0.604380190372467,-0.2882094383239746
1761316073042986800,2.89998681640625,0.28160229325294495,0.6057060956954956,0.135940819978714
1761316073052969500,2.909969482421875,0.41801711916923523,0.5121527314186096,0.582787811756134
1761316073062951700,2.91995166015625,0.46331340074539185,0.35513782501220703,0.9844352602958679
1761316073072934700,2.9299345703125,0.4258294105529785,0.16834184527397156,1.3091665506362915
1761316073082917400,2.93991748046875,0.3249514102935791,-0.025112507864832878,1.5314991474151611
1761316073092900600,2.949900634765625,0.17682082951068878,-0.1945875585079193,1.636475682258606
1761316073102882600,2.959882568359375,0.006606345064938068,-0.2906671464443207,1.647639274597168
1761316073112865500,2.969865478515625,-0.15510424971580505,-0.31869637966156006,1.5889283418655396
1761316073122848500,2.9798486328125,-0.2696625292301178,-0.2558196485042572,1.4675462245941162
1761316073132831500,2.98983154296875,-0.30357280373573303,-0.1545255184173584,1.308488368988037
1761316073142813400,2.9998134765625,-0.28233757615089417,-0.03958093374967575,1.1535876989364624
1761316073152796400,3.00979638671875,-0.21827122569084167,0.07367211580276489,1.0620673894882202
1761316073162779600,3.019779541015625,-0.13547851145267487,0.14459115266799927,1.0345983505249023
1761316073172762600,3.0297626953125,-0.03389754518866539,0.172048881649971,1.0640857219696045
1761316073182744600,3.03974462890625,0.05577393248677254,0.1924893856048584,1.1046987771987915
1761316073192727600,3.0497275390625,0.10399552434682846,0.245441272854805,1.1224130392074585
1761316073202710500,3.05971044921875,0.09405101090669632,0.28031525015830994,1.102851152420044
1761316073212692500,3.0696923828125,0.016982322558760643,0.2589649558067322,1.0539768934249878
1761316073222675500,3.079675537109375,-0.10787277668714523,0.20080479979515076,0.9973344802856445
1761316073232658700,3.08965869140625,-0.2276550978422165,0.12793858349323273,0.9327347278594971
1761316073242641400,3.099641357421875,-0.3310627043247223,0.04235294461250305,0.8542571067810059
1761316073252623600,3.10962353515625,-0.4183131754398346,-0.031821951270103455,0.764593780040741
1761316073262606600,3.119606689453125,-0.4778921902179718,-0.08257229626178741,0.671993613243103
1761316073272589600,3.129589599609375,-0.4933432936668396,-0.09341375529766083,0.5539942979812622
1761316073282572500,3.139572509765625,-0.44830137491226196,-0.0982503667473793,0.38388365507125854
1761316073292554500,3.149554443359375,-0.33214282989501953,-0.04511444643139839,0.195511594414711
1761316073302537500,3.159537353515625,-0.19532984495162964,0.03662032634019852,0.02852923981845379
1761316073312520400,3.1695205078125,-0.0756620243191719,0.08976423740386963,-0.08496537059545517
1761316073322502700,3.179502685546875,-0.03441236913204193,0.04231581091880798,-0.1257849633693695
1761316073332485400,3.1894853515625,-0.07901712507009506,-0.13318303227424622,-0.14555414021015167
1761316073342468600,3.199468505859375,-0.18390105664730072,-0.30806028842926025,-0.25191792845726013
1761316073352451600,3.20945166015625,-0.2815183997154236,-0.45481643080711365,-0.5532420873641968
1761316073362433500,3.21943359375,-0.30485665798187256,-0.6103764772415161,-1.1790704727172852
1761316073372416500,3.22941650390625,-0.23103275895118713,-0.931976318359375,-2.134709596633911
1761316073382399500,3.2393994140625,-0.1051185354590416,-1.333633303642273,-3.346916675567627
1761316073392382700,3.2493828125,-0.028692472726106644,-1.4666528701782227,-4.403683662414551
1761316073402364400,3.259364501953125,-0.00029750901740044355,-0.9978671073913574,-4.874133110046387
1761316073412347600,3.26934765625,-0.08057210594415665,0.11307051032781601,-4.537381649017334
1761316073422330600,3.27933056640625,-0.2475866973400116,1.2586792707443237,-3.490520715713501
1761316073432313300,3.289313232421875,-0.22920262813568115,1.9754565954208374,-2.109501838684082
1761316073442295600,3.299295654296875,-0.0004456873284652829,2.060232400894165,-0.9083048701286316
1761316073452278500,3.309278564453125,0.26399552822113037,1.618661880493164,-0.10335776954889297
1761316073462261500,3.319261474609375,0.5068172812461853,0.9134101867675781,0.36860230565071106
1761316073472243500,3.329243408203125,0.6415457725524902,0.06171479448676109,0.6087952256202698
1761316073482226700,3.339226806640625,0.6287463307380676,-0.8218386769294739,0.7560368180274963
1761316073492209400,3.34920947265625,0.5488008856773376,-1.6672605276107788,0.8194701075553894
1761316073502196000,3.359196044921875,0.4814761281013489,-2.2576892375946045,0.8056049346923828
1761316073512178200,3.36917822265625,0.4657741189002991,-2.4582889080047607,0.7069952487945557
1761316073522161000,3.379160888671875,0.5021292567253113,-2.2823336124420166,0.4956001937389374
1761316073532144000,3.38914404296875,0.5661998987197876,-1.8421252965927124,0.2184937298297882
1761316073542127000,3.399127197265625,0.5875003933906555,-1.2602370977401733,-0.021605849266052246
1761316073552109000,3.409109130859375,0.5388319492340088,-0.628169059753418,-0.16580989956855774
1761316073562092000,3.419092041015625,0.42153504490852356,-0.057684216648340225,-0.22166945040225983
1761316073572075000,3.429074951171875,0.25533968210220337,0.40314969420433044,-0.18258994817733765
1761316073582057000,3.439056884765625,0.0664285272359848,0.7232424020767212,-0.06144615262746811
1761316073592040000,3.4490400390625,-0.11380409449338913,0.8813161849975586,0.1021246686577797
1761316073602023200,3.459023193359375,-0.2623978555202484,0.9163889288902283,0.30939793586730957
1761316073612006100,3.469006103515625,-0.39302724599838257,0.8166953921318054,0.5470610857009888
1761316073621988000,3.478988037109375,-0.5005151629447937,0.5981851816177368,0.7906649112701416
1761316073631971000,3.48897119140625,-0.5744642019271851,0.25580868124961853,1.0145542621612549
1761316073641954300,3.498954345703125,-0.5916028618812561,-0.14285613596439362,1.2174490690231323
1761316073651937000,3.50893701171875,-0.5321387648582458,-0.4583185017108917,1.3729479312896729
1761316073661919200,3.518919189453125,-0.42971229553222656,-0.6272947788238525,1.4437679052352905
1761316073671902200,3.528902099609375,-0.34548503160476685,-0.7003138661384583,1.41264009475708
1761316073681885000,3.538885009765625,-0.2855989634990692,-0.6525636315345764,1.3210135698318481
1761316073691867100,3.5488671875,-0.2600696384906769,-0.5413125157356262,1.1810884475708008
1761316073701850000,3.55885009765625,-0.2732011377811432,-0.4804365634918213,1.0156711339950562
1761316073711833000,3.5688330078125,-0.314794659614563,-0.44895774126052856,0.8813455104827881
1761316073721816000,3.578816162109375,-0.36041706800460815,-0.4379933774471283,0.7814189791679382
1761316073731798300,3.58879833984375,-0.4139348864555359,-0.38890784978866577,0.713750958442688
1761316073741781000,3.598781005859375,-0.49043676257133484,-0.2908323407173157,0.6519977450370789
1761316073751764000,3.608763916015625,-0.5861427783966064,-0.15707401931285858,0.5631951689720154
1761316073761747200,3.618747314453125,-0.6610357761383057,-0.01715530827641487,0.454118549823761
1761316073771729200,3.628729248046875,-0.6714442372322083,0.14918093383312225,0.3642547130584717
1761316073781712100,3.638712158203125,-0.6393342018127441,0.2561149001121521,0.30773210525512695
1761316073791695000,3.648695068359375,-0.6129140853881836,0.278729110956192,0.27528494596481323
1761316073801677300,3.65867724609375,-0.5871356725692749,0.2417929619550705,0.26744982600212097
1761316073811660000,3.668659912109375,-0.5905162692070007,0.14432686567306519,0.26260897517204285
1761316073821643000,3.67864306640625,-0.6287372708320618,0.03551463037729263,0.24588073790073395
1761316073831626200,3.688626220703125,-0.6982731819152832,-0.08008600026369095,0.1806785613298416
1761316073841608000,3.69860791015625,-0.7559664249420166,-0.1698913425207138,0.10569600760936737
1761316073851591200,3.708591064453125,-0.7473230957984924,-0.29537415504455566,0.0053374492563307285
1761316073861574100,3.71857421875,-0.6810046434402466,-0.41661176085472107,-0.13361823558807373
1761316073871557000,3.72855712890625,-0.6432218551635742,-0.5357760190963745,-0.3241322636604309
1761316073881539000,3.7385390625,-0.5996332764625549,-0.6455393433570862,-0.7606403827667236
1761316073891522000,3.74852197265625,-0.42761167883872986,-0.8103765249252319,-1.5887409448623657
1761316073901505300,3.75850537109375,-0.12735527753829956,-0.858049750328064,-2.7247612476348877
1761316073911487000,3.768487060546875,0.16454128921031952,-0.6003444790840149,-3.818453788757324
1761316073921470200,3.77847021484375,0.2271612584590912,-0.10318388044834137,-4.514484882354736
1761316073931453200,3.788453125,0.03151559457182884,0.4683893322944641,-4.4952473640441895
1761316073941436200,3.798436279296875,-0.1710018664598465,1.066280484199524,-3.6316144466400146
1761316073951418000,3.808418212890625,-0.2296297550201416,1.5315603017807007,-2.327578067779541
1761316073961401300,3.8184013671875,-0.12100421637296677,1.6367260217666626,-1.200914740562439
1761316073971384000,3.828384033203125,0.09745009243488312,1.3848097324371338,-0.5297635197639465
1761316073981367000,3.838366943359375,0.32754984498023987,0.999697208404541,-0.22285161912441254
1761316073991349200,3.848349365234375,0.47934070229530334,0.5202911496162415,-0.12919411063194275
1761316074001332000,3.85833203125,0.5126076340675354,0.0396297350525856,-0.06823933869600296
1761316074011315200,3.868315185546875,0.44920971989631653,-0.36358028650283813,0.05268175154924393
1761316074021297200,3.878297119140625,0.35648900270462036,-0.678784966468811,0.2634161412715912
1761316074031280000,3.888280029296875,0.3038284480571747,-0.885683000087738,0.523934543132782
1761316074041263000,3.89826318359375,0.29772448539733887,-0.9720885753631592,0.7599672079086304
1761316074051246000,3.90824609375,0.294096976518631,-0.9192594885826111,0.9304880499839783
1761316074061228000,3.91822802734375,0.2631974518299103,-0.7404965758323669,1.0259329080581665
1761316074071211000,3.9282109375,0.18573090434074402,-0.4867687225341797,1.0481282472610474
1761316074081194200,3.9381943359375,0.087712861597538,-0.177758127450943,1.021653175354004
1761316074091177200,3.94817724609375,-0.02008230611681938,0.1300058215856552,0.9841345548629761
1761316074101159200,3.9581591796875,-0.11490560322999954,0.37318915128707886,0.9398159980773926
1761316074111142100,3.96814208984375,-0.18587377667427063,0.5561419129371643,0.9100194573402405
1761316074121125000,3.978125,-0.2231462299823761,0.6429635882377625,0.8921664357185364
1761316074131107000,3.988107177734375,-0.23144331574440002,0.6420197486877441,0.8954549431800842
1761316074141090000,3.998090087890625,-0.2188192754983902,0.5602543354034424,0.9320844411849976
1761316074151073300,4.0080732421875,-0.18771222233772278,0.42346057295799255,1.0144543647766113
1761316074161056000,4.018055908203125,-0.13416479527950287,0.2632670998573303,1.1322054862976074
1761316074171038200,4.0280380859375,-0.053573545068502426,0.10368303209543228,1.2690949440002441
1761316074181021200,4.038021240234375,0.014277088455855846,-0.04164748266339302,1.3943005800247192
1761316074191004200,4.048004150390625,0.06391681730747223,-0.1465802937746048,1.5029915571212769
1761316074200987100,4.057987060546875,0.0982862189412117,-0.19132745265960693,1.5939114093780518
1761316074210969000,4.067968994140625,0.09709499031305313,-0.19857391715049744,1.6411775350570679
1761316074220952000,4.0779521484375,0.08267514407634735,-0.1617494523525238,1.621634602546692
1761316074230935000,4.08793505859375,0.05546429753303528,-0.1601121425628662,1.5568511486053467
1761316074240917200,4.097917236328125,0.022530492395162582,-0.22202232480049133,1.4523510932922363
1761316074250900000,4.10789990234375,-0.001417185878381133,-0.3097614645957947,1.3287981748580933
1761316074260883200,4.11788330078125,-0.025424065068364143,-0.3929716646671295,1.1748218536376953
1761316074270866200,4.1278662109375,-0.041923414915800095,-0.4186994135379791,0.9931352138519287
1761316074280848100,4.13784814453125,-0.035540398210287094,-0.3870428800582886,0.8079352378845215
1761316074290831000,4.1478310546875,-0.015408234670758247,-0.34055235981941223,0.6275372505187988
1761316074300814000,4.15781396484375,-0.0002662176266312599,-0.2940085828304291,0.4964948892593384
1761316074310797300,4.16779736328125,-0.022958213463425636,-0.28977149724960327,0.4013478457927704
1761316074320779000,4.177779052734375,-0.05766429752111435,-0.2651447355747223,0.28268638253211975
1761316074330762200,4.18776220703125,-0.06916116178035736,-0.21122343838214874,0.14653441309928894
1761316074340745200,4.1977451171875,-0.06119520962238312,-0.13567844033241272,0.024991268292069435
1761316074350727200,4.20772705078125,-0.06094060838222504,-0.058553557842969894,-0.049570582807064056
1761316074360710100,4.217710205078125,-0.043253932148218155,0.009104400873184204,-0.08985230326652527
1761316074370693000,4.227693115234375,-0.013026518747210503,0.08746019005775452,-0.14337198436260223
1761316074380676000,4.237676025390625,0.043505363166332245,0.09844648092985153,-0.18556541204452515
1761316074390658000,4.247657958984375,0.13829872012138367,0.055332839488983154,-0.2556094527244568
1761316074400641300,4.257641357421875,0.2745630741119385,-0.1733671873807907,-0.5210201144218445
1761316074410624000,4.2676240234375,0.4276200234889984,-0.4941641092300415,-1.0730265378952026
1761316074420606200,4.277606201171875,0.5083834528923035,-0.8076420426368713,-1.8838777542114258
1761316074430589200,4.287589111328125,0.3760156035423279,-0.916977047920227,-2.716534376144409
1761316074440572000,4.297572021484375,0.04107946902513504,-0.7083595395088196,-3.266474723815918
1761316074450555100,4.30755517578125,-0.3153529465198517,-0.16279344260692596,-3.3779637813568115
1761316074460537000,4.317537109375,-0.5261252522468567,0.5846193432807922,-3.082397222518921
1761316074470520000,4.32752001953125,-0.5317698121070862,1.2608239650726318,-2.586540460586548
1761316074480503000,4.3375029296875,-0.3295177221298218,1.7436938285827637,-2.0589849948883057
1761316074490486300,4.347486328125,-0.01882055588066578,1.8960438966751099,-1.5886973142623901
1761316074500464000,4.357464111328125,0.23736326396465302,1.663201928138733,-1.2084845304489136
1761316074510447400,4.367447265625,0.4165324568748474,1.1670722961425781,-0.8588205575942993
1761316074520430300,4.377430419921875,0.5200426578521729,0.5372480750083923,-0.5485214591026306
1761316074530412300,4.387412353515625,0.5474705696105957,-0.08413533866405487,-0.2783144414424896
1761316074540395300,4.397395263671875,0.5235590934753418,-0.5768930315971375,-0.048264697194099426
1761316074550378200,4.407378173828125,0.5061452388763428,-0.9103397130966187,0.15093176066875458
1761316074560361200,4.417361328125,0.5119491815567017,-1.0923855304718018,0.3404064178466797
1761316074570343200,4.42734326171875,0.5193554162979126,-1.1618751287460327,0.5233138799667358
1761316074580326400,4.437326416015625,0.5144118666648865,-1.1517024040222168,0.7240433096885681
1761316074590309000,4.44730908203125,0.48804977536201477,-1.0516793727874756,0.9021632075309753
1761316074600291300,4.457291259765625,0.4102768301963806,-0.8499277830123901,1.0171668529510498
1761316074610274300,4.4672744140625,0.253567636013031,-0.5661032795906067,1.061842441558838
1761316074620257000,4.477257080078125,0.04893855005502701,-0.22157490253448486,1.0311264991760254
1761316074630240300,4.487240234375,-0.17246894538402557,0.1524261236190796,0.9374912977218628
1761316074640222200,4.49722216796875,-0.3928937017917633,0.4459555745124817,0.8053880333900452
1761316074650205200,4.507205078125,-0.5717456936836243,0.6191390752792358,0.6784388422966003
1761316074660188200,4.517188232421875,-0.6689486503601074,0.6707659363746643,0.5946229696273804
1761316074670171100,4.527171142578125,-0.6435641646385193,0.621026873588562,0.5914765000343323
1761316074680153000,4.537153076171875,-0.5418907999992371,0.4696309268474579,0.661797285079956
1761316074690136300,4.54713623046875,-0.41435888409614563,0.23055735230445862,0.7679522037506104
1761316074700119300,4.557119384765625,-0.29845982789993286,-0.025167297571897507,0.8783596754074097
1761316074710101200,4.567101318359375,-0.18964891135692596,-0.2431347817182541,0.9521877765655518
1761316074720084200,4.577084228515625,-0.09801217168569565,-0.3710770010948181,0.9719338417053223
1761316074730067200,4.587067138671875,-0.03159800171852112,-0.43084126710891724,0.9545133113861084
1761316074740050400,4.597050537109375,-0.012911736033856869,-0.4515122175216675,0.9004678726196289
1761316074750032100,4.6070322265625,-0.03282845392823219,-0.4250164330005646,0.8296219110488892
1761316074760015400,4.617015380859375,-0.079087994992733,-0.37633273005485535,0.7357403039932251
1761316074769998300,4.626998291015625,-0.1390293538570404,-0.33181533217430115,0.6203069090843201
1761316074779980300,4.636980224609375,-0.18402837216854095,-0.26168549060821533,0.4942234456539154
1761316074789963300,4.64696337890625,-0.2108277529478073,-0.2305116206407547,0.35591909289360046
1761316074799946200,4.6569462890625,-0.19435934722423553,-0.21925030648708344,0.22646981477737427
1761316074809929200,4.66692919921875,-0.1430319845676422,-0.22553883492946625,0.14392566680908203
1761316074819911200,4.6769111328125,-0.0833262950181961,-0.2928019165992737,0.09417050331830978
1761316074829894400,4.686894287109375,-0.03746984899044037,-0.4005805552005768,0.09861692041158676
1761316074839877000,4.696877197265625,-0.02928074449300766,-0.49628257751464844,0.13366134464740753
1761316074849860000,4.706860107421875,-0.04869332164525986,-0.5932866334915161,0.16063517332077026
1761316074859842300,4.71684228515625,-0.08945942670106888,-0.6444211006164551,0.1223592534661293
1761316074869825000,4.726824951171875,-0.1421162337064743,-0.5974205136299133,0.015279672108590603
1761316074879808300,4.736808349609375,-0.18262797594070435,-0.4835716784000397,-0.1445283144712448
1761316074889790200,4.746790283203125,-0.1580754965543747,-0.3358948826789856,-0.346799373626709
1761316074899773200,4.756773193359375,-0.06613492965698242,-0.19487857818603516,-0.5457955598831177
1761316074909756200,4.766756103515625,0.04791893810033798,-0.11183935403823853,-0.7081633806228638
1761316074919739100,4.7767392578125,0.14741893112659454,-0.10950133949518204,-0.9365088939666748
1761316074929721300,4.786721435546875,0.2124282866716385,-0.14099454879760742,-1.4022581577301025
1761316074939704000,4.7967041015625,0.26331451535224915,-0.1996932476758957,-2.1009702682495117
1761316074949687300,4.806687255859375,0.3066982328891754,-0.3950622081756592,-2.7492454051971436
1761316074959669200,4.816669189453125,0.21901294589042664,-0.5981457829475403,-3.0657284259796143
1761316074969652200,4.82665234375,-0.04244557023048401,-0.45045939087867737,-2.914055347442627
1761316074979635200,4.83663525390625,-0.3371553122997284,0.1419980376958847,-2.4566779136657715
1761316074989618200,4.8466181640625,-0.47046491503715515,0.9192516803741455,-1.8647491931915283
1761316074999600000,4.85660009765625,-0.34421783685684204,1.6689410209655762,-1.2327098846435547
1761316075009583400,4.866583251953125,-0.04052771255373955,2.061851978302002,-0.6714940071105957
1761316075019566300,4.87656640625,0.26663336157798767,2.0466787815093994,-0.22530466318130493
1761316075029549000,4.886549072265625,0.5124875903129578,1.7324079275131226,0.09638814628124237
1761316075039531300,4.89653125,0.5907701253890991,1.2704298496246338,0.22653882205486298
1761316075049514200,4.90651416015625,0.5128346085548401,0.7410733103752136,0.2123396396636963
1761316075059497500,4.91649755859375,0.3772989809513092,0.20562691986560822,0.10271983593702316
1761316075069479200,4.926479248046875,0.2702239453792572,-0.22243894636631012,-0.04894425719976425
1761316075079462400,4.93646240234375,0.21079029142856598,-0.5004233121871948,-0.20271526277065277
1761316075089445400,4.9464453125,0.15948636829853058,-0.6276915669441223,-0.35665982961654663
1761316075099428000,4.956427978515625,0.06595266610383987,-0.6491943597793579,-0.5232394337654114
1761316075109410300,4.966410400390625,-0.05412020906805992,-0.6076256036758423,-0.6992165446281433
1761316075119393300,4.976393310546875,-0.13243982195854187,-0.5189495086669922,-0.8236418962478638
1761316075129376300,4.986376220703125,-0.1302669495344162,-0.43202635645866394,-0.8490955829620361
1761316075139358200,4.996358154296875,-0.0865471288561821,-0.3793884217739105,-0.7381799221038818
1761316075149341400,5.006341552734375,-0.04676855355501175,-0.34786859154701233,-0.48033615946769714
1761316075159324200,5.01632421875,-0.04533341899514198,-0.30270591378211975,-0.09736669808626175
1761316075169307100,5.02630712890625,-0.0812530666589737,-0.2404470443725586,0.33914992213249207
1761316075179289300,5.036289306640625,-0.12278110533952713,-0.15975409746170044,0.7517864108085632
1761316075189272000,5.04627197265625,-0.17773541808128357,-0.06703587621450424,1.0954835414886475
1761316075199255300,5.05625537109375,-0.2311386615037918,0.01719326712191105,1.3436213731765747
1761316075209238300,5.06623828125,-0.2977786660194397,0.06028694659471512,1.4841872453689575
1761316075219220200,5.07622021484375,-0.37212443351745605,0.076530322432518,1.50167977809906
1761316075229203200,5.086203125,-0.4164162576198578,0.09597459435462952,1.382218599319458
1761316075239186200,5.096186279296875,-0.39736437797546387,0.136448934674263,1.1585288047790527
1761316075249168100,5.106168212890625,-0.2948073744773865,0.1746796816587448,0.8991944193840027
1761316075259151000,5.116151123046875,-0.17533354461193085,0.1604723483324051,0.6596401929855347
1761316075269134300,5.12613427734375,-0.09805182367563248,0.05783998966217041,0.4820992052555084
1761316075279117300,5.136117431640625,-0.06944872438907623,-0.09085424989461899,0.3855525553226471
1761316075289099300,5.146099365234375,-0.0823269709944725,-0.23927859961986542,0.35198473930358887
1761316075299082200,5.156082275390625,-0.1434093415737152,-0.30519333481788635,0.31819668412208557
1761316075309065200,5.166065185546875,-0.22749651968479156,-0.2459193617105484,0.26872339844703674
1761316075319047200,5.176047119140625,-0.3166548013687134,-0.10099038481712341,0.1782817542552948
1761316075329030400,5.186030517578125,-0.40036675333976746,0.11400474607944489,0.055655963718891144
1761316075339013400,5.196013427734375,-0.47364601492881775,0.3756656348705292,-0.08871400356292725
1761316075348996000,5.20599609375,-0.5293607115745544,0.6347784399986267,-0.2711149752140045
1761316075358978300,5.215978271484375,-0.5453342199325562,0.8974316716194153,-0.4767547845840454
1761316075368961300,5.225961181640625,-0.5277765393257141,1.0458804368972778,-0.6734294891357422
1761316075378944300,5.2359443359375,-0.49065902829170227,1.0262024402618408,-0.8200845122337341
1761316075388926200,5.24592626953125,-0.3948454260826111,0.8816654682159424,-0.8391554355621338
1761316075398909400,5.255909423828125,-0.2517857253551483,0.6229504942893982,-0.6930912137031555
1761316075408892200,5.26589208984375,-0.09902866184711456,0.3253142535686493,-0.3916056752204895
1761316075418875100,5.275875244140625,-0.008284349925816059,0.05687781423330307,0.009554099291563034
1761316075428857300,5.285857421875,-0.05941597744822502,-0.17714613676071167,0.4155847132205963
1761316075438840000,5.295840087890625,-0.2381434291601181,-0.5094295144081116,0.6756876707077026
1761316075448823300,5.3058232421875,-0.44904741644859314,-0.7864243388175964,0.7455524802207947
1761316075458806300,5.31580615234375,-0.6241647601127625,-1.021672248840332,0.5214162468910217
1761316075468788200,5.325788330078125,-0.716841995716095,-1.3760473728179932,-0.09962788969278336
1761316075478771200,5.335771240234375,-0.5761044025421143,-1.5260047912597656,-0.9851688146591187
1761316075488754200,5.345754150390625,-0.18381434679031372,-1.1409995555877686,-1.8179328441619873
1761316075498736400,5.355736328125,0.15506407618522644,-0.25539669394493103,-2.195802927017212
1761316075508719000,5.365718994140625,0.26374688744544983,0.7280288338661194,-2.000074863433838
1761316075518702300,5.375702392578125,0.29557257890701294,1.437038779258728,-1.2829667329788208
1761316075528684300,5.385684326171875,0.3799651861190796,1.7096543312072754,-0.34736573696136475
1761316075538667300,5.395667236328125,0.4845817983150482,1.5501689910888672,0.471564382314682
1761316075548650200,5.405650146484375,0.6153278350830078,1.1930023431777954,1.0148918628692627
1761316075558633200,5.41563330078125,0.7076478600502014,0.7806372046470642,1.2182692289352417
1761316075568615200,5.425615234375,0.7003780007362366,0.4280639588832855,1.1277811527252197
1761316075578598100,5.43559814453125,0.6130276918411255,0.2150656133890152,0.8240638971328735
1761316075588581400,5.445581298828125,0.4745531976222992,0.13723473250865936,0.4525816738605499
1761316075598564400,5.455564453125,0.2999274432659149,0.1155719980597496,0.1379023939371109
1761316075608546300,5.46554638671875,0.11739014834165573,0.09932378679513931,-0.05933903902769089
1761316075618529300,5.475529296875,-0.04558781906962395,0.07869523763656616,-0.135924831032753
1761316075628512300,5.48551220703125,-0.17795145511627197,0.06086377799510956,-0.12423009425401688
1761316075638494200,5.495494140625,-0.28519222140312195,0.03542737662792206,-0.06772589683532715
1761316075648477400,5.5054775390625,-0.37635543942451477,-0.006262811832129955,0.008236248046159744
1761316075658460400,5.51546044921875,-0.44032058119773865,-0.07605870068073273,0.0952666848897934
1761316075668443100,5.525443115234375,-0.46880069375038147,-0.15256012976169586,0.19035060703754425
1761316075678425300,5.53542529296875,-0.4528096914291382,-0.21782423555850983,0.29581889510154724
1761316075688408300,5.545408203125,-0.40230870246887207,-0.2548839747905731,0.39393216371536255
1761316075698391300,5.555391357421875,-0.3371303379535675,-0.2572208046913147,0.47283947467803955
1761316075708373200,5.565373291015625,-0.2615934908390045,-0.22629588842391968,0.5426763892173767
1761316075718356500,5.5753564453125,-0.16484437882900238,-0.18202261626720428,0.5912396907806396
1761316075728339200,5.585339111328125,-0.050531644374132156,-0.14201660454273224,0.619093120098114
1761316075738322200,5.595322265625,0.07669315487146378,-0.09201124310493469,0.6297972202301025
1761316075748304400,5.605304443359375,0.1858697086572647,-0.011969134211540222,0.621704638004303
1761316075758287000,5.615287109375,0.26561084389686584,0.04838772863149643,0.5972080826759338
1761316075768270300,5.625270263671875,0.3135426640510559,0.05490874499082565,0.5527687072753906
1761316075778252300,5.635252197265625,0.3454797565937042,0.07724271714687347,0.48033830523490906
1761316075788235300,5.6452353515625,0.3416386842727661,0.1038554236292839,0.4050387442111969
1761316075798218200,5.65521826171875,0.29777470231056213,0.09463296830654144,0.35724642872810364
1761316075808201200,5.665201171875,0.23169074952602386,0.018887341022491455,0.3272286057472229
1761316075818183200,5.67518310546875,0.15119515359401703,-0.07432038336992264,0.29677537083625793
1761316075828166100,5.685166259765625,0.07993961870670319,-0.17664141952991486,0.24859373271465302
1761316075838149400,5.6951494140625,0.034925274550914764,-0.26343676447868347,0.1648101508617401
1761316075848131000,5.705131103515625,0.027832742780447006,-0.2974967360496521,0.028494924306869507
1761316075858114300,5.7151142578125,0.05978154018521309,-0.27399855852127075,-0.1448172628879547
1761316075868097300,5.72509716796875,0.08760571479797363,-0.28744596242904663,-0.3109862506389618
1761316075878080300,5.735080322265625,0.12090304493904114,-0.33543428778648376,-0.434407502412796
1761316075888062200,5.745062255859375,0.14909180998802185,-0.44120919704437256,-0.503407895565033
1761316075898045200,5.755045166015625,0.16810911893844604,-0.5710387825965881,-0.5218436121940613
1761316075908028400,5.7650283203125,0.15796619653701782,-0.6331104040145874,-0.43235474824905396
1761316075918010000,5.775010009765625,0.10362827777862549,-0.5275930166244507,-0.2421760857105255
1761316075927993300,5.784993408203125,-0.013454139232635498,-0.20108041167259216,-0.03508176654577255
1761316075937976300,5.794976318359375,-0.13754063844680786,0.2795175611972809,0.11801077425479889
1761316075947959300,5.804959228515625,-0.16449902951717377,0.8317151665687561,0.19918206334114075
1761316075957941200,5.814941162109375,-0.05229853466153145,1.2573267221450806,0.3075609505176544
1761316075967924500,5.824924560546875,0.14971528947353363,1.2414566278457642,0.43524301052093506
1761316075977907200,5.8349072265625,0.2945840358734131,0.653430700302124,0.3194180727005005
1761316075987889400,5.844889404296875,0.32930606603622437,-0.22113728523254395,-0.130156010389328
1761316075997872400,5.854872314453125,0.33550381660461426,-0.9530350565910339,-0.6688413023948669
1761316076007855000,5.864855224609375,0.3482803404331207,-1.205549955368042,-1.0139135122299194
1761316076017838300,5.87483837890625,0.2825521230697632,-0.9841063022613525,-1.0238386392593384
1761316076027820300,5.8848203125,0.09654205292463303,-0.46727120876312256,-0.6939743757247925
1761316076037803300,5.89480322265625,-0.08070657402276993,0.202389195561409,-0.22418618202209473
1761316076047786200,5.9047861328125,-0.1496044248342514,0.8255132436752319,0.15621121227741241
1761316076057768400,5.9147685546875,-0.1481180191040039,1.220501184463501,0.30639904737472534
1761316076067751200,5.924751220703125,-0.13160109519958496,1.412084698677063,0.2427140772342682
1761316076077734100,5.934734130859375,-0.0935395359992981,1.395509123802185,0.0604722686111927
1761316076087717400,5.94471728515625,-0.1093728244304657,1.2141973972320557,-0.14941251277923584
1761316076097699000,5.954698974609375,-0.19830642640590668,0.928534209728241,-0.3130355477333069
1761316076107682300,5.964682373046875,-0.2889247238636017,0.5844183564186096,-0.40737828612327576
1761316076117665300,5.974665283203125,-0.30886968970298767,0.22066889703273773,-0.4317169487476349
1761316076127647500,5.9846474609375,-0.24835173785686493,-0.15077629685401917,-0.40758419036865234
1761316076137630200,5.994630126953125,-0.14231182634830475,-0.504037082195282,-0.35523751378059387
1761316076147613200,6.00461328125,-0.0322902575135231,-0.8149861693382263,-0.3078060746192932
1761316076157596400,6.014596435546875,0.034074366092681885,-1.026419997215271,-0.2993679642677307
1761316076167578000,6.024578125,0.06303277611732483,-1.0651025772094727,-0.34447818994522095
1761316076177561300,6.034561279296875,0.06151576340198517,-0.9621008038520813,-0.42797791957855225
1761316076187544300,6.04454443359375,0.01347073633223772,-0.7654870748519897,-0.5292235612869263
1761316076197526300,6.0545263671875,-0.0817694142460823,-0.48876500129699707,-0.6446369290351868
1761316076207509200,6.06450927734375,-0.19849097728729248,-0.17602945864200592,-0.7717304229736328
1761316076217492200,6.0744921875,-0.3082759976387024,0.13099731504917145,-0.8710362315177917
1761316076227475200,6.08447509765625,-0.40426644682884216,0.4035519063472748,-0.8989347219467163
1761316076237457200,6.09445703125,-0.4561137557029724,0.5930944681167603,-0.860414981842041
1761316076247440400,6.1044404296875,-0.4231688380241394,0.7179040312767029,-0.7375345826148987
1761316076257423000,6.114423095703125,-0.3358675241470337,0.7479843497276306,-0.549473226070404
1761316076267405300,6.1244052734375,-0.23029211163520813,0.6688591837882996,-0.31685730814933777
1761316076277388300,6.13438818359375,-0.13840351998806,0.4608684778213501,-0.05525897443294525
1761316076287371500,6.14437158203125,-0.08181135356426239,0.18632985651493073,0.1839192509651184
1761316076297354200,6.154354248046875,-0.04778941720724106,-0.07222796976566315,0.372763991355896
1761316076307336400,6.16433642578125,-0.01777159608900547,-0.24933616816997528,0.4958989918231964
1761316076317319400,6.1743193359375,-0.026319654658436775,-0.3106638491153717,0.5459579229354858
1761316076327302100,6.18430224609375,-0.08598245680332184,-0.28403621912002563,0.5280231237411499
1761316076337284400,6.194284423828125,-0.1641886979341507,-0.20833304524421692,0.47789686918258667
1761316076347267300,6.204267333984375,-0.2091178297996521,-0.08023474365472794,0.4084285795688629
1761316076357250300,6.214250244140625,-0.23962652683258057,0.043882761150598526,0.336495041847229
1761316076367233300,6.2242333984375,-0.26623737812042236,0.1324499100446701,0.2692265212535858
1761316076377215500,6.234215576171875,-0.28704312443733215,0.19098153710365295,0.2258916199207306
1761316076387198200,6.2441982421875,-0.3207648694515228,0.22009629011154175,0.16467246413230896
1761316076397181200,6.25418115234375,-0.3487224578857422,0.27440986037254333,0.10779985785484314
1761316076407163400,6.264163330078125,-0.34909477829933167,0.3259979486465454,0.08938808739185333
1761316076417146000,6.27414599609375,-0.33404961228370667,0.2937881052494049,0.08695922791957855
1761316076427129300,6.28412939453125,-0.3139115869998932,0.14602261781692505,0.03466833382844925
1761316076437112300,6.2941123046875,-0.2404090166091919,-0.02416309155523777,-0.003499006386846304
1761316076447094300,6.30409423828125,-0.09502917528152466,-0.10300464183092117,0.04826751723885536
1761316076457077200,6.3140771484375,0.07054842263460159,-0.036269742995500565,0.1749211847782135
1761316076467060200,6.324060302734375,0.17965415120124817,0.10030514746904373,0.39416778087615967
1761316076477042200,6.334042236328125,0.16872400045394897,0.09111224114894867,0.5071993470191956
1761316076487025200,6.344025146484375,0.05975465103983879,-0.025171754881739616,0.38169604539871216
1761316076497008400,6.35400830078125,-0.12362629920244217,-0.15859954059123993,0.10062933713197708
1761316076506992400,6.363992431640625,-0.2809528112411499,-0.23394089937210083,-0.2909144461154938
1761316076516974300,6.373974365234375,-0.29503315687179565,-0.12411510944366455,-0.6313521862030029
1761316076526957300,6.383957275390625,-0.18930113315582275,0.11328998953104019,-0.7701063752174377
1761316076536940300,6.393940185546875,-0.04011007770895958,0.2723461985588074,-0.7669175267219543
1761316076546922200,6.403922119140625,0.12668529152870178,0.2931995391845703,-0.6622867584228516
1761316076556905200,6.4139052734375,0.31861594319343567,0.2726537883281708,-0.4217800498008728
1761316076566888400,6.423888427734375,0.5117962956428528,0.19775532186031342,-0.14660225808620453
1761316076576870100,6.4338701171875,0.6298171877861023,0.05450715869665146,0.07769375294446945
1761316076586853400,6.443853271484375,0.7076674699783325,-0.13493306934833527,0.21058815717697144
1761316076596836400,6.45383642578125,0.754510760307312,-0.3939054608345032,0.24903477728366852
1761316076606819000,6.463819091796875,0.781411349773407,-0.6039665937423706,0.22801125049591064
1761316076616801300,6.47380126953125,0.8083947896957397,-0.7247524857521057,0.13120120763778687
1761316076626784300,6.4837841796875,0.8419860005378723,-0.7715593576431274,-0.05711517110466957
1761316076636767200,6.493767333984375,0.858008861541748,-0.7135892510414124,-0.30728715658187866
1761316076646749200,6.503749267578125,0.8410458564758301,-0.5798631310462952,-0.5816683769226074
1761316076656732400,6.513732421875,0.7687939405441284,-0.3975788354873657,-0.8262239694595337
1761316076666715100,6.523715087890625,0.663324773311615,-0.15452463924884796,-1.0121541023254395
1761316076676698000,6.533697998046875,0.548121988773346,0.14264874160289764,-1.1246737241744995
1761316076686680300,6.543680419921875,0.42420506477355957,0.43606036901474,-1.171547293663025
1761316076696663000,6.5536630859375,0.26549264788627625,0.6504522562026978,-1.1413090229034424
1761316076706646300,6.563646240234375,0.08435001224279404,0.7596935033798218,-1.027479648590088
1761316076716628200,6.573628173828125,-0.10009069740772247,0.781091034412384,-0.8372284770011902
1761316076726611200,6.583611083984375,-0.2502783238887787,0.7340790629386902,-0.6092174053192139
1761316076736594200,6.59359423828125,-0.35624122619628906,0.6405643820762634,-0.40358710289001465
1761316076746577200,6.6035771484375,-0.42302319407463074,0.49439895153045654,-0.2421470731496811
1761316076756559000,6.61355908203125,-0.43695637583732605,0.30627143383026123,-0.11885739862918854
1761316076766542000,6.6235419921875,-0.3843972980976105,0.13477319478988647,-0.004933754913508892
1761316076776525300,6.633525390625,-0.27363598346710205,0.0001844717189669609,0.10859644412994385
1761316076786507000,6.643507080078125,-0.15968304872512817,-0.14144909381866455,0.20526893436908722
1761316076796490200,6.653490234375,-0.08645538240671158,-0.24135354161262512,0.31398460268974304
1761316076806473200,6.66347314453125,-0.06471146643161774,-0.28406426310539246,0.43113547563552856
1761316076816456200,6.673456298828125,-0.081592857837677,-0.2757605314254761,0.5297931432723999
1761316076826438100,6.683438232421875,-0.13120834529399872,-0.2456018477678299,0.5778858661651611
1761316076836421400,6.69342138671875,-0.20336304605007172,-0.188676118850708,0.5658172965049744
1761316076846404400,6.703404296875,-0.29062390327453613,-0.07069355994462967,0.5084463953971863
1761316076856386300,6.71338623046875,-0.38414445519447327,0.0632777139544487,0.4325992465019226
1761316076866369300,6.723369384765625,-0.4646456837654114,0.19357338547706604,0.37195637822151184
1761316076876352300,6.733352294921875,-0.5352908372879028,0.2842710614204407,0.31275033950805664
1761316076886334200,6.743334228515625,-0.583243191242218,0.3060317635536194,0.24740514159202576
1761316076896317200,6.753317138671875,-0.5857983827590942,0.20041640102863312,0.11203011870384216
1761316076906300400,6.763300537109375,-0.5311649441719055,0.13268928229808807,0.015124347060918808
1761316076916283100,6.773283203125,-0.4309641122817993,0.1944056898355484,0.027381552383303642
1761316076926265300,6.783265380859375,-0.3316015899181366,0.3047196865081787,0.07259377092123032
1761316076936248300,6.793248291015625,-0.2604706883430481,0.38803401589393616,0.09190408140420914
1761316076946231000,6.80323095703125,-0.21379131078720093,0.35790354013442993,0.05655355006456375
1761316076956213200,6.813213134765625,-0.18490926921367645,0.2533508241176605,-0.024989917874336243
1761316076966196200,6.8231962890625,-0.18521952629089355,0.16729608178138733,-0.13914045691490173
1761316076976179200,6.83317919921875,-0.24541614949703217,0.14443033933639526,-0.2772514522075653
1761316076986162200,6.843162109375,-0.36172011494636536,0.10349304229021072,-0.421592116355896
1761316076996144400,6.853144287109375,-0.4495941400527954,0.06710509210824966,-0.507483720779419
1761316077006127400,6.86312744140625,-0.35910576581954956,0.07558193057775497,-0.38206055760383606
1761316077016110000,6.873110107421875,-0.11837442964315414,-0.03444109857082367,-0.054536424577236176
1761316077026092300,6.88309228515625,0.14946581423282623,-0.3903733789920807,0.33057159185409546
1761316077036075300,6.8930751953125,0.30979180335998535,-0.8440381288528442,0.6796178817749023
1761316077046058200,6.903058349609375,0.33508092164993286,-1.1412285566329956,0.9506054520606995
1761316077056041200,6.913041259765625,0.2521568834781647,-1.2924696207046509,1.0719752311706543
1761316077066023400,6.9230234375,0.11662621051073074,-1.3375591039657593,0.9697561860084534
1761316077076006100,6.933006103515625,0.005418505519628525,-1.1434327363967896,0.7183991074562073
1761316077085989000,6.942989013671875,-0.019625861197710037,-0.6662107706069946,0.4526853859424591
1761316077095971300,6.952971435546875,0.024409567937254906,-0.06348229199647903,0.2351641058921814
1761316077105954000,6.9629541015625,0.0840582475066185,0.4366750717163086,-0.0004872996360063553
1761316077115937300,6.972937255859375,0.11698989570140839,0.7960484623908997,-0.3032286465167999
1761316077125920300,6.982920166015625,0.13569460809230804,0.9811906218528748,-0.6707632541656494
1761316077135902200,6.992902099609375,0.1361711472272873,0.9901859164237976,-1.0427740812301636
1761316077145885200,7.00288525390625,0.12447160482406616,0.8863937258720398,-1.3402822017669678
1761316077155868400,7.012868408203125,0.10665714740753174,0.7042768001556396,-1.542777180671692
1761316077165850000,7.02285009765625,0.08635560423135757,0.4783720374107361,-1.6534069776535034
1761316077175833300,7.032833251953125,0.04730141535401344,0.22239434719085693,-1.665374994277954
1761316077185816300,7.04281640625,-0.01709941402077675,-0.0015040035359561443,-1.5886317491531372
1761316077195798300,7.05279833984375,-0.06314674019813538,-0.17524538934230804,-1.4454630613327026
1761316077205781200,7.06278125,-0.05078301206231117,-0.2651081681251526,-1.2390714883804321
1761316077215764200,7.07276416015625,-0.00932343304157257,-0.23975561559200287,-0.9884953498840332
1761316077225747500,7.08274755859375,0.030377108603715897,-0.14774659276008606,-0.7283021211624146
1761316077235729200,7.092729248046875,0.062296945601701736,0.022059662267565727,-0.49397578835487366
1761316077245712400,7.10271240234375,0.05953231826424599,0.2183508723974228,-0.2940160632133484
1761316077255695400,7.1126953125,-0.0018049001228064299,0.41533762216567993,-0.15892896056175232
1761316077265677300,7.12267724609375,-0.08584121614694595,0.6001855134963989,-0.09763150662183762
1761316077275660300,7.132660400390625,-0.14013898372650146,0.7375398874282837,-0.08601154386997223
1761316077285643300,7.142643310546875,-0.15074528753757477,0.7884775996208191,-0.06524980813264847
1761316077295626200,7.152626220703125,-0.12969554960727692,0.7496958374977112,0.03996880725026131
1761316077305608200,7.162608154296875,-0.07493641972541809,0.658704400062561,0.22363051772117615
1761316077315591400,7.17259130859375,0.00455107307061553,0.5232259035110474,0.44815903902053833
1761316077325574100,7.18257421875,0.08936156332492828,0.35333964228630066,0.680185079574585
1761316077335556400,7.192556396484375,0.157931387424469,0.21826601028442383,0.8761224746704102
1761316077345539300,7.202539306640625,0.20928378403186798,0.18397754430770874,0.9903861880302429
1761316077355522000,7.21252197265625,0.24505086243152618,0.22836944460868835,1.007346749305725
1761316077365504300,7.222504150390625,0.2721572816371918,0.27362266182899475,0.9501907825469971
1761316077375487200,7.2324873046875,0.2835891842842102,0.2710949182510376,0.8689764738082886
1761316077385470200,7.24247021484375,0.2630857825279236,0.17255286872386932,0.960536777973175
1761316077395453200,7.252453125,0.21017642319202423,-0.027000660076737404,1.0384695529937744
1761316077405435400,7.262435302734375,0.2401883751153946,-0.2732325494289398,1.0502128601074219
1761316077415418000,7.272418212890625,0.30639997124671936,-0.24280381202697754,1.0393987894058228
1761316077425401000,7.282401123046875,0.323203980922699,-0.11462081223726273,1.0092906951904297
1761316077435383300,7.29238330078125,0.2911013960838318,0.05548559129238129,0.9647393822669983
1761316077445366300,7.3023662109375,0.2581551671028137,0.2751785218715668,0.9419419169425964
1761316077455349200,7.312349365234375,0.22754314541816711,0.44266727566719055,0.969207227230072
1761316077465332200,7.322332275390625,0.17587143182754517,0.481304407119751,1.0698808431625366
1761316077475314200,7.332314208984375,0.10249007493257523,0.30374470353126526,1.179142951965332
