time,seconds_elapsed,z,y,x
1761315150490781200,0.08978125,0.40820962949097156,-0.15573055034000424,-0.49574616638571023
1761315150500762000,0.09976220703125,0.5555027159512043,-0.14492906074263154,-0.3516754029728472
1761315150510743000,0.109742919921875,0.7558546079039573,-0.0924588687930256,-0.161990231789276
1761315150520725000,0.11972509765625,0.9181412653565406,-0.030148214297927915,0.04858735916689038
1761315150530706200,0.1297060546875,0.9163649033337831,0.021595636138506232,0.19247304833643136
1761315150540688100,0.139688232421875,0.7775742722809315,0.054836373091675335,0.3154774236492812
1761315150550669300,0.14966943359375,0.6328104120373725,0.11060644683688878,0.42531142480894923
1761315150560650000,0.15964990234375,0.4664642500609159,0.10692107285503298,0.44550716755427416
1761315150570632200,0.169632080078125,0.27246961818039417,0.01672620347123593,0.4438534820631146
1761315150580613000,0.179613037109375,0.12756021198630332,-0.07815178222749382,0.4218802082512527
1761315150590595000,0.189594970703125,0.053344052174687386,-0.14782754039680585,0.36693536981642244
1761315150600576300,0.199576171875,0.05669979234337806,-0.17890695286393166,0.3442220182269811
1761315150610558000,0.209557861328125,0.03423252446949482,-0.18496300149988382,0.3939128085911274
1761315150620539100,0.2195390625,-0.043863107123970985,-0.18936019527921452,0.4253963996786624
1761315150630521000,0.22952099609375,-0.13099778521955013,-0.2001242754756473,0.44952765524201094
1761315150640502000,0.239501953125,-0.24309037896096705,-0.18870008740266783,0.42923853512480853
1761315150650483000,0.24948291015625,-0.32745150068998335,-0.1535486214573495,0.38626251303367315
1761315150660465000,0.25946484375,-0.34963235283792016,-0.14838868141090497,0.3497648931764066
1761315150670445800,0.26944580078125,-0.32153380107879637,-0.15263972645150498,0.33973771241977807
1761315150680428000,0.279427978515625,-0.19818565382957457,-0.16202269102046266,0.31564203962646425
1761315150690409000,0.289408935546875,-0.09535773203969002,-0.18699465345796196,0.2968123245373368
1761315150700390100,0.29939013671875,-0.11967208908498286,-0.21335750399827955,0.26825441163815555
1761315150710372000,0.3093720703125,-0.20555881294608114,-0.22029384260009974,0.2209125955529511
1761315150720352800,0.319352783203125,-0.24999241343438625,-0.20972163171395658,0.2201620694465935
1761315150730335000,0.3293349609375,-0.20304069264531135,-0.19050489006862042,0.2071941590629518
1761315150740316000,0.33931591796875,-0.10942191322743892,-0.20256242587538434,0.16701405130065977
1761315150750298000,0.349298095703125,0.006546060642600059,-0.22704561841525137,0.13644633294902742
1761315150760279000,0.359279052734375,0.06324351489841938,-0.24514884586073457,0.11163856636360286
1761315150770260000,0.369260009765625,0.038866029489040374,-0.16710585776995868,0.14272154076099394
1761315150780242000,0.379241943359375,-0.012505261307954787,-0.02177521907266928,0.1944323657106608
1761315150790222800,0.389222900390625,-0.054692544174194335,0.0893659260126762,0.2210026119239628
1761315150800205000,0.399205078125,-0.09763386027812958,0.13668946665567344,0.23400654346905647
1761315150810186000,0.40918603515625,-0.10498831469416618,0.14599775855322367,0.2581906251981854
1761315150820168000,0.41916796875,-0.0657218877106905,0.11285166848041117,0.2626919552054256
1761315150830148900,0.42914892578125,0.0036889176458120344,0.05764690960091538,0.21607925711236892
1761315150840130000,0.439130126953125,0.06017828210890293,-0.016614504991378634,0.18338154099471865
1761315150850112000,0.449112060546875,0.07383797414898872,-0.10014354154411703,0.18928389690630137
1761315150860093000,0.459093017578125,0.07634381949007511,-0.13719850302319972,0.22795644964985548
1761315150870075000,0.469074951171875,0.11763503029942513,-0.12393863308881409,0.23202632943727075
1761315150880055800,0.479055908203125,0.21202537861168383,-0.09373372016758658,0.1900409258186817
1761315150890038000,0.4890380859375,0.25686755990087984,-0.13624849968883207,0.1636805960290134
1761315150900019000,0.49901904296875,0.19250351653993128,-0.20904396991441024,0.13091105678416787
1761315150910000000,0.509000244140625,0.12369710681736469,-0.277918348572962,0.03864654151946306
1761315150919982000,0.518982177734375,0.05018938753604889,-0.30712113524693996,-0.02656725053861737
1761315150929963000,0.528962890625,-0.05575111331641674,-0.33522330373525616,-0.041976343529298896
1761315150939945000,0.538945068359375,-0.17518413294851778,-0.34353067496195433,-0.025067221239209174
1761315150949926000,0.54892578125,-0.2913631192207336,-0.3325534634714946,0.01583279829546809
1761315150959908000,0.558908203125,-0.3648153089225292,-0.30313387397537006,0.06023264264464378
1761315150969889000,0.568888916015625,-0.3648234922289848,-0.2767851615582593,0.057743236981704825
1761315150979870200,0.5788701171875,-0.3429617890328169,-0.2955887740917504,0.010605638231709598
1761315150989852000,0.588851806640625,-0.3461024251461029,-0.3688354312840849,-0.05282879612892866
1761315150999833000,0.5988330078125,-0.3285644303679466,-0.45907074227612465,-0.09236052298508583
1761315151009815000,0.60881494140625,-0.2553945647388697,-0.49085357203856106,-0.026417612934857605
1761315151019796000,0.6187958984375,-0.20307050326168535,-0.4587559407059103,0.06607537732347846
1761315151029778000,0.62877783203125,-0.1775929476559162,-0.39353462292850017,0.10049984416849911
1761315151039758800,0.6387587890625,-0.1725999616742134,-0.30323309656614433,0.12954809786789118
1761315151049741000,0.648740966796875,-0.18967676868140695,-0.22698691049795597,0.12007204818800091
1761315151059722000,0.658721923828125,-0.1795809066027403,-0.20811215069070457,0.08916757216267288
1761315151069703200,0.668703125,-0.18168050923049447,-0.18399572737030684,0.06477379320561885
1761315151079684900,0.678684814453125,-0.1942728643000126,-0.1361624562400393,0.10181991379112004
1761315151089665800,0.688665771484375,-0.28001345768868924,-0.12447822899138554,0.2053472890872508
1761315151099648000,0.69864794921875,-0.3171826201319694,-0.07305427642539143,0.2769038743007928
1761315151109629000,0.70862890625,-0.1955617350667715,0.006288688348047435,0.29991533205397425
1761315151119611100,0.718611083984375,0.05077917012274265,0.04656783603802323,0.31091333060413595
1761315151129592000,0.728592041015625,0.2832306661695242,0.02255898301163688,0.29908947568908334
1761315151139573000,0.738572998046875,0.22331366534531116,-0.047545375833287835,0.2506633714985102
1761315151149555000,0.748554931640625,0.009345335972309111,-0.12320895797424018,0.1581799527861178
1761315151159535900,0.758535888671875,-0.07051788981556892,-0.10183167729414999,0.15567067337892948
1761315151169518000,0.76851806640625,-0.030495676028728484,0.005690357128717005,0.19524908892102538
1761315151179499000,0.7784990234375,-0.0061585226297378535,0.0012791530903428791,0.24377638846375047
1761315151189481000,0.78848095703125,-0.1538262876212597,-0.0736279115948826,0.24915055578276513
1761315151199462000,0.7984619140625,-0.36142975813746453,-0.17492993899174034,0.16771847324296832
1761315151209443000,0.808443115234375,-0.5614718534886837,-0.23280290330033748,0.04844634326100349
1761315151219425000,0.818425048828125,-0.687476652726531,-0.28026217175275087,-0.10717712997533381
1761315151229406000,0.828406005859375,-0.6364227573156357,-0.27431944729816166,-0.08274601468257606
1761315151239388000,0.838387939453125,-0.518197359907627,-0.24677984459605065,0.06423690984994172
1761315151249368800,0.848368896484375,-0.34182430943548675,-0.22310838856417683,0.2183257208649069
1761315151259351000,0.85835107421875,-0.20388240416646003,-0.19166754063982516,0.32196152497157454
1761315151269332000,0.86833203125,-0.13678630549311638,-0.15273567937295884,0.27606238197535277
1761315151279313200,0.878313232421875,-0.0888397284477949,-0.14756185693163423,0.17871464516222477
1761315151289294800,0.888294921875,-0.015419687449932098,-0.1968173976836726,0.09711597388386725
1761315151299276000,0.898276123046875,0.0371481196552515,-0.2727155557654798,0.05682466083206236
1761315151309258000,0.908258056640625,0.02259820077717304,-0.34235739339888094,0.03347439957857132
1761315151319239000,0.918239013671875,-0.055745268097519875,-0.39996231788843867,-0.016614523257687686
1761315151329221000,0.92822119140625,-0.08870002771615981,-0.4246742228839546,-0.0512999791264534
1761315151339202000,0.9382021484375,-0.08755436481237411,-0.40518531323373314,-0.060653790666162964
1761315151349184000,0.94818408203125,-0.06193184777796268,-0.36099129365496335,-0.026870252073183654
1761315151359165000,0.9581650390625,-0.08951602027416229,-0.31395894537772984,0.028623379350826143
1761315151369146000,0.96814599609375,-0.10256313337385654,-0.24887619582079348,0.09400376014746725
1761315151379128000,0.978128173828125,-0.049046647241711615,-0.16456899623610077,0.1198248684938997
1761315151389109000,0.98810888671875,-0.01431552560031414,-0.12144881643392146,0.10960413792654872
1761315151399091000,0.998091064453125,0.01559036784172058,-0.1344845313567668,0.05129705651700496
1761315151409071900,1.00807177734375,0.06053893211483955,-0.14238197007570416,-0.0004451864842325449
1761315151419054000,1.01805419921875,0.05173018723726272,-0.14330138647556304,-0.01565948755517602
1761315151429035000,1.028034912109375,-0.04266542177200317,-0.10341408764738588,-0.03880355871208012
1761315151439016200,1.03801611328125,-0.15122691877782343,-0.051654053261131046,-0.02395801788829267
1761315151448998000,1.047997802734375,-0.23357903877198694,-0.02603128049839288,0.012711013013124465
1761315151458978800,1.057978759765625,-0.31925007405579087,-0.016114683976769448,0.028149332098290323
1761315151468961000,1.0679609375,-0.3599012333959341,-0.04290478348582983,-0.008269888760522008
1761315151478942000,1.07794189453125,-0.32075404887795445,-0.07387647952847182,-0.030428967468068002
1761315151488924000,1.087923828125,-0.19202479311227796,-0.09580847148187457,-0.05670074219144881
1761315151498904800,1.09790478515625,-0.03925590558946133,-0.12312796515990047,-0.06913973333016038
1761315151508886000,1.107885986328125,0.09512859945893287,-0.17148122330997137,-0.039619697400555015
1761315151518868000,1.117867919921875,0.1836789895713329,-0.20962708529829976,-0.03685067107863724
1761315151528849000,1.127848876953125,0.1916010147422552,-0.2231857646493241,-0.04049669943079352
1761315151538831000,1.1378310546875,0.07213292379677295,-0.26774883673619476,-0.035699016825482245
1761315151548812000,1.14781201171875,-0.12859306216537952,-0.3203127713838592,-0.040914194190502164
1761315151558794000,1.1577939453125,-0.2825239792048931,-0.3268147006237879,-0.04790872925296426
1761315151568775000,1.16777490234375,-0.3241524591445923,-0.32125469187647104,-0.09521269754581153
1761315151578756000,1.177756103515625,-0.2984212210386991,-0.3200920047726482,-0.1169631954524666
1761315151588738000,1.187738037109375,-0.2568856800794601,-0.3543011118339374,-0.08070384133048356
1761315151598719000,1.197718994140625,-0.19172434886097908,-0.3595111746324226,-0.021652225163951516
1761315151608701000,1.207700927734375,-0.11019698925316333,-0.3288474120277911,0.03399732747413218
1761315151618681900,1.217681884765625,-0.04619067328870296,-0.294057838197425,0.07401281925924122
1761315151628664000,1.2276640625,-0.029882512566447257,-0.3078169354913756,0.09599734511747955
1761315151638644700,1.237644775390625,-0.04088730618357658,-0.3271305981725454,0.10344831871055066
1761315151648626700,1.247626708984375,-0.10858721596896648,-0.2956802152348682,0.08596322316341101
1761315151658607600,1.257607666015625,-0.22845511988699435,-0.28797647245712577,0.0618928309418261
1761315151668588500,1.267588623046875,-0.2967939120978117,-0.2618000843996182,0.019136662146449088
1761315151678570800,1.27757080078125,-0.29756723455786704,-0.22002138233426957,0.0054595075149089095
1761315151688551700,1.2875517578125,-0.291159121081233,-0.1883504154484719,0.03282119636684656
1761315151698534000,1.297533935546875,-0.21758885795772073,-0.18024174513164906,0.0822110310230404
1761315151708514800,1.307514892578125,-0.124968441927433,-0.15320081266667693,0.15392046871073542
1761315151718496800,1.317496826171875,-0.05499766460061073,-0.11912322303056716,0.20389855158366263
1761315151728477700,1.327477783203125,-0.0035001170754432676,-0.11225819609928875,0.22856727502457796
1761315151738458600,1.337458740234375,0.0351700975805521,-0.11780275154914706,0.22917547005079686
1761315151748440800,1.34744091796875,0.08434066346287727,-0.1340868007434532,0.20307079552263022
1761315151758421800,1.357421875,0.07515139483511447,-0.1635118518659845,0.16409736013635992
1761315151768403700,1.36740380859375,0.005355389553308487,-0.20967030338551848,0.13289879653528333
1761315151778384600,1.377384521484375,0.011241524982452391,-0.18886256622169165,0.10722001926898955
1761315151788366800,1.387366943359375,0.05496726946234703,-0.10522493646163493,0.09595292145386337
1761315151798347800,1.39734765625,0.05605506469905376,-0.023318733604066073,0.09897913740724325
1761315151808328700,1.40732861328125,0.014038462224602699,-0.010563625720888375,0.12069397947862744
1761315151818310700,1.417310546875,-0.07191255904436111,-0.042404250085167586,0.1152646479062736
1761315151828291600,1.42729150390625,-0.13564122711122034,-0.07124561956822872,0.12213424141481519
1761315151838273800,1.437273681640625,-0.0998632267653942,-0.038403015087172386,0.12027553487084805
1761315151848254700,1.447254638671875,-0.05340075079798698,-0.010831227148510515,0.12248619665764271
1761315151858236700,1.457236572265625,-0.040158991909027095,-0.0137184730226174,0.10501498350538313
1761315151868217600,1.467217529296875,-0.04307283352911472,-0.05506097562778741,0.09542078733853995
1761315151878198500,1.477198486328125,-0.01393733993768692,-0.10412899445109068,0.03529730415679514
1761315151888180700,1.4871806640625,0.03615677053034305,-0.12060297672692685,-0.013019056048989295
1761315151898161700,1.49716162109375,0.06955342869758606,-0.10996891611833125,-0.06063727792277932
1761315151908143900,1.507143798828125,0.03720657184422016,-0.10436020939107983,-0.10325769150927662
1761315151918124800,1.517124755859375,-0.013711714488267898,-0.14481252169087527,-0.11018274153210222
1761315151928106800,1.527106689453125,-0.054609542065858836,-0.17780202382933347,-0.08610431213453412
1761315151938087700,1.537087646484375,-0.07106032612919808,-0.16911752638593316,-0.06485635692253708
1761315151948068600,1.547068603515625,-0.13561375458240507,-0.16814875441901384,-0.11363047083318233
1761315151958050800,1.55705078125,-0.18552841683030127,-0.19698902792353182,-0.15312953752875327
1761315151968031700,1.56703173828125,-0.18296821095347404,-0.225649159088172,-0.1359426942758262
1761315151978013700,1.577013671875,-0.09297755890488624,-0.237598941937834,-0.05866597784981131
1761315151987994600,1.58699462890625,-0.03145312288403511,-0.23913448094204068,0.010553761913999914
1761315151997976800,1.596976806640625,-0.04333060768246651,-0.23427388916835187,0.011875438971817493
1761315152007957800,1.606957763671875,-0.07067863333523274,-0.23190569873228667,-0.010520151905342936
1761315152017938700,1.616938720703125,-0.09817571206986904,-0.1964054924145341,-0.012457476643472909
1761315152027920600,1.626920654296875,-0.1047691189855337,-0.1414973692608997,-0.004100347990915179
1761315152037901600,1.636901611328125,-0.08260054179728031,-0.1100860396919772,0.01658632007651031
1761315152047883800,1.6468837890625,-0.08679039470255374,-0.11017492355182766,0.01748217293769121
1761315152057864700,1.65686474609375,-0.06432078874111175,-0.1120877349032089,-0.010483911548182368
1761315152067846700,1.6668466796875,-0.05620937847793102,-0.11713446036614476,-0.025718086363375185
1761315152077827600,1.67682763671875,-0.027644378250837324,-0.13592720444574952,-0.03286357420384884
1761315152087809800,1.686809814453125,-0.02806757209897041,-0.18495032468140124,-0.04914572370201349
1761315152097790700,1.696790771484375,-0.059845689153671264,-0.23450042793322354,-0.05582907392345369
1761315152107771600,1.706771728515625,-0.09513853633105754,-0.2652512842994183,-0.021981530183553696
1761315152117753900,1.71675390625,-0.09766483993828295,-0.26705073493681847,-0.010903890525922178
1761315152127734800,1.72673486328125,-0.08259235849082469,-0.2662176085809246,0.030004020054265855
1761315152137716700,1.736716796875,-0.09370996483266353,-0.2536383321886882,0.08299019870199263
1761315152147697700,1.74669775390625,-0.14019114550054074,-0.23556929927375167,0.12136216106377541
1761315152157679900,1.756679931640625,-0.15575287176966665,-0.22839166272934525,0.08827917195558548
1761315152167660800,1.766660888671875,-0.1229383974045515,-0.22301398827899246,0.056398836635425685
1761315152177641700,1.776641845703125,-0.04387713564932346,-0.23185762180685995,0.04731741229631006
1761315152187623700,1.786623779296875,0.03425298273563385,-0.25570702822152525,0.06628617052994668
1761315152197604600,1.7966044921875,0.04524900852441788,-0.2767383084755391,0.07014058093577623
1761315152207586800,1.8065869140625,-0.028708792611956593,-0.2862640425160527,0.06149535605683922
1761315152217567700,1.816567626953125,-0.1176490588247776,-0.27350853277407583,0.059819604864344
1761315152227549700,1.8265498046875,-0.18797990163564682,-0.25349267664030195,0.06370104940757156
1761315152237530600,1.836530517578125,-0.22898703480660915,-0.23119890216980127,0.11181107338629662
1761315152247511600,1.846511474609375,-0.30406361083984373,-0.21419596411641686,0.1625911202918738
1761315152257493800,1.85649365234375,-0.38076574224829673,-0.2039557981962338,0.17796309614256023
1761315152267474700,1.866474609375,-0.3758370536744594,-0.18242087926901876,0.17296616463810205
1761315152277456600,1.87645654296875,-0.28845103116631504,-0.166295345104672,0.1960850282885134
1761315152287437600,1.8864375,-0.1543272228807211,-0.16096311723124235,0.23798728366829452
1761315152297419800,1.896419677734375,-0.046996144452691076,-0.14312657789792865,0.2513425128690898
1761315152307400700,1.906400634765625,0.006166121414303779,-0.1337507006568834,0.24537498276680705
1761315152317383000,1.9163828125,0.040000586476922034,-0.1185719823559746,0.23436624362692235
1761315152327363800,1.92636376953125,0.05398059651255607,-0.11467873777709901,0.199634464398399
1761315152337344800,1.9363447265625,0.023846155011653897,-0.1073141638258472,0.18531813508048653
1761315152347326700,1.94632666015625,-0.021154431709647176,-0.11247465186156332,0.15773462017141282
1761315152357307600,1.9563076171875,-0.036865211060643194,-0.08694419702477753,0.10384360163845122
1761315152367289900,1.966289794921875,-0.027187282133102415,-0.07540997270606457,0.03157375358901918
1761315152377270800,1.976270751953125,-0.009075871381163596,-0.08516030928269028,0.017200798713043332
1761315152387252700,1.986252685546875,0.031359014859795566,-0.08650613440107553,0.03589497778899967
1761315152397233700,1.996233642578125,0.09541735327243804,-0.0925229835378006,0.04869111180230975
1761315152407214600,2.006214599609375,0.14956979922056196,-0.09632935355082153,0.04539426221400499
1761315152417196800,2.01619677734375,0.1562000310152769,-0.09967650855425744,0.037874753429368135
1761315152427177700,2.026177734375,0.0764133775949478,-0.10165317892208695,-0.00012158055305480956
1761315152437159700,2.03615966796875,-0.017114216408133504,-0.11857790064010769,-0.008603723824769259
1761315152447140600,2.046140625,-0.11506897920370102,-0.14269056110084055,-0.047603024304658174
1761315152457122800,2.056122802734375,-0.2327536938637495,-0.15858608590159565,-0.07697247278243304
1761315152467103700,2.066103759765625,-0.35051731897890565,-0.1382088856421411,-0.08047492794543504
1761315152477084700,2.076084716796875,-0.377184376630187,-0.10220989948939531,-0.062153819965571164
1761315152487066600,2.086066650390625,-0.298533449241519,-0.12838449744861571,-0.03813727682307362
1761315152497047600,2.096047607421875,-0.20253098955750465,-0.18878909912668168,-0.02190035470612347
1761315152507029800,2.10602978515625,-0.09707330378592013,-0.24198373289331793,-0.024184300924837587
1761315152517010700,2.1160107421875,-0.07916647569537162,-0.2525393945034593,-0.045521541855484245
1761315152526993000,2.125992919921875,-0.1289858608752489,-0.26989761226791886,-0.0972100819081068
1761315152536973800,2.135973876953125,-0.16443535991907118,-0.30031090724281967,-0.14923632948249577
1761315152546954800,2.145954833984375,-0.1728565667837858,-0.30016806470602747,-0.19120631633624433
1761315152556936700,2.155936767578125,-0.14022154063880443,-0.29858474103733895,-0.20598763281740248
1761315152566917600,2.165917724609375,-0.08437164312303065,-0.2982879135152325,-0.19339995392300188
1761315152576899800,2.17589990234375,-0.02388707154393196,-0.274285252767615,-0.16316409787423908
1761315152586880800,2.185880859375,0.010821253743767738,-0.28019283284358676,-0.1424511263217777
1761315152596862700,2.19586279296875,-0.0058329439371824264,-0.2862635310593992,-0.13223580258190631
1761315152606843600,2.20584375,-0.05609773479700088,-0.27558577743954954,-0.10214008565619587
1761315152616824600,2.215824462890625,-0.08441139061152934,-0.23501714528370649,-0.08164667513854801
1761315152626806800,2.225806884765625,-0.09508768292665482,-0.17359876345321534,-0.05624181944280862
1761315152636787700,2.23578759765625,-0.10409633429050445,-0.12161668381411582,-0.011887275540083645
1761315152646769400,2.245769287109375,-0.11185586237609386,-0.07588635804615915,0.00853723445981741
1761315152656750600,2.25575048828125,-0.14577683667838573,-0.04809650691002607,0.04105345653071999
1761315152666732500,2.265732666015625,-0.18181202665567398,-0.04948744981177151,0.06681319007873535
1761315152676713700,2.275713623046875,-0.21826514978408812,-0.03733293817024678,0.09121274118945003
1761315152686695700,2.28569580078125,-0.1946381904810667,-0.012588226883672176,0.11576726366616785
1761315152696676600,2.295676513671875,-0.15478665708601475,-0.005922266188450157,0.11020100784115493
1761315152706657500,2.305657470703125,-0.11153028368353843,-0.0216757521700114,0.10139854657389223
1761315152716639500,2.315639404296875,-0.03852992940247059,-0.048562078595161436,0.10012626161575316
1761315152726620700,2.32562060546875,0.04990414085388183,-0.07131788108684123,0.08754676602780818
1761315152736602600,2.3356025390625,0.12815934692323208,-0.07880666593965142,0.08886837002038955
1761315152746583800,2.345583740234375,0.14245382973551748,-0.0798339631607756,0.08429273266792296
1761315152756565500,2.3555654296875,0.10732231059968471,-0.0755809453587979,0.08384995733648538
1761315152766546700,2.365546630859375,0.012858312529325485,-0.07508315190449356,0.09780176419094204
1761315152776527600,2.375527587890625,-0.06225742647051811,-0.05331994064673781,0.10450206554718315
1761315152786509600,2.385509521484375,-0.09201835848391056,-0.04003868999760598,0.10174078414030373
1761315152796490800,2.39549072265625,-0.12085340782403946,-0.010769158230349421,0.13033026122152805
1761315152806472400,2.405472412109375,-0.12258593070507048,0.014986556729674338,0.1470964679095894
1761315152816453600,2.41545361328125,-0.05707037922143936,0.03222374193035066,0.15031038845479489
1761315152826435600,2.425435546875,0.029596681362390517,0.0027714374747127295,0.12445055553317069
1761315152836416800,2.435416748046875,0.08860591969192028,-0.07899327455293387,0.07313742466419935
1761315152846398500,2.4453984375,0.06702595604658126,-0.1470722102511674,0.009547434415668249
1761315152856379400,2.45537939453125,-0.016942951494455336,-0.17904490002989767,-0.04333294577002525
1761315152866360600,2.465360595703125,-0.08194996893405913,-0.18685970196668059,-0.07166114156655967
1761315152876342500,2.475342529296875,-0.0870277105897665,-0.16648805466517805,-0.07021846847757697
1761315152886323700,2.48532373046875,-0.07207330256402492,-0.14625022634379564,-0.05255655505880713
1761315152896305700,2.4953056640625,-0.09575696049034595,-0.1468960499666631,-0.002755436187982559
1761315152906286600,2.50528662109375,-0.14122224211394785,-0.15367559057157487,0.01598375107347965
1761315152916268500,2.5152685546875,-0.13796353257894514,-0.1636941130977124,0.014219371749460696
1761315152926249500,2.52524951171875,-0.09551789103746414,-0.1784251972289756,0.006103285311162472
1761315152936230700,2.535230712890625,-0.049780806735157966,-0.19967676917016505,-0.0009292436741292476
1761315152946212600,2.545212646484375,-0.07804945436418056,-0.21322507325764745,-0.009212064981460572
1761315152956193800,2.55519384765625,-0.13468787190914153,-0.18739647572450338,-0.008794570221751927
1761315152966175500,2.565175537109375,-0.13113047168850897,-0.12748469906467944,-0.000032367899641394614
1761315152976156700,2.57515673828125,-0.06720832687616347,-0.10002985203657298,0.00030256314314901824
1761315152986138600,2.585138671875,-0.008829203143715858,-0.12023750441540032,0.0039359512094408276
1761315152996119800,2.595119873046875,0.04349076668024063,-0.14406630643345414,0.03307166399657726
1761315153006101500,2.6051015625,0.09281506181955337,-0.13718206334505229,0.020713044617697594
1761315153016082400,2.61508251953125,0.13518471551537514,-0.13749449029508978,-0.0002813011594116688
1761315153026063600,2.625063720703125,0.12614859162271022,-0.12236216841917484,-0.0008414923254400491
1761315153036045600,2.635045654296875,0.043213703304529186,-0.12177983848657459,0.03029803456477821
1761315153046026800,2.64502685546875,-0.09269289674460887,-0.12035681994613259,0.06481368682458996
1761315153056008700,2.6550087890625,-0.16112813506722448,-0.07061393406856804,0.08427190907560289
1761315153065989600,2.66498974609375,-0.1510503931671381,-0.018164236917719245,0.09798355049863457
1761315153075971600,2.6749716796875,-0.12839841637611388,0.002384301320649683,0.10916771927066146
1761315153085952500,2.684952392578125,-0.09714403093457222,0.003272884190827608,0.11472491500638425
1761315153095933700,2.69493359375,-0.11994330724179744,0.028535956795699893,0.09281140855774282
1761315153105915600,2.70491552734375,-0.15454758763313292,0.045430100712366396,0.07171594049371778
1761315153115896600,2.714896484375,-0.18984686455130576,0.031445999023504555,0.07845993486121297
1761315153125878500,2.72487841796875,-0.20459668991565702,-0.01337729490213096,0.07398439688235521
1761315153135859700,2.734859619140625,-0.189853878813982,-0.02080433963034302,0.08854724830724299
1761315153145841700,2.744841552734375,-0.17583002963662148,-0.04558894453588873,0.09013707478195428
1761315153155822600,2.754822509765625,-0.14434358900487423,-0.08076072261687367,0.04995798993296921
1761315153165804500,2.764804443359375,-0.09717033441960811,-0.11398472763095051,0.019097060788422823
1761315153175785500,2.774785400390625,-0.039592590197920795,-0.12641590078938753,-0.013950418614968657
1761315153185766700,2.7847666015625,0.04449789789617061,-0.13147402442917228,-0.01918108581006527
1761315153195748600,2.79474853515625,0.10757248596847056,-0.12410386098735034,-0.02358326629176736
1761315153205729800,2.804729736328125,0.11736731927394867,-0.13755699760466814,-0.04519903190284967
1761315153215711500,2.81471142578125,0.1091828437745571,-0.1442602946355939,-0.04349347009398043
1761315153225692400,2.8246923828125,0.11914251225292682,-0.16004991137646138,-0.04297609515637159
1761315153235674600,2.834674560546875,0.06780161659419537,-0.17645828107018022,-0.02876519897431135
1761315153245655600,2.844655517578125,0.019646949756145476,-0.1782982463810593,0.007973828423395753
1761315153255636700,2.85463671875,-0.008510054191946982,-0.15171842862181364,0.019573153867572544
1761315153265618700,2.86461865234375,-0.003543371695280075,-0.12158636174108832,0.026466420512646437
1761315153275599600,2.874599609375,0.014572715231776237,-0.11616700357347726,0.03599332359693944
1761315153285581600,2.88458154296875,0.044801849278807634,-0.14967344225812704,0.0628474282529205
1761315153295562500,2.8945625,0.06025660804212093,-0.1742559487203136,0.06952909797392785
1761315153305544700,2.904544677734375,0.06098433779478073,-0.17995624272115526,0.06422923800013959
1761315153315525600,2.914525634765625,0.0406119963735342,-0.18128800278156995,0.0323063787125051
1761315153325507600,2.924507568359375,0.026187749701738355,-0.1835302652830258,-0.016322189247608185
1761315153335488500,2.934488525390625,0.02315408109426498,-0.19184987493678926,-0.023364582039788365
1761315153345469700,2.9444697265625,-0.037895138630270955,-0.18836963160559533,0.003549947566539049
1761315153355451600,2.95445166015625,-0.10617080247700214,-0.14515190971307457,0.05013699976168572
1761315153365432800,2.964432861328125,-0.1718020892947912,-0.10705996986906975,0.09488558448329568
1761315153375414500,2.97441455078125,-0.21682254976034163,-0.08222535180933772,0.12556333908066153
1761315153385395500,2.9843955078125,-0.23133505923748016,-0.10108772705905139,0.14769845239073037
1761315153395377700,2.994377685546875,-0.20852643058001993,-0.15397267382200808,0.14002068430446088
1761315153405358600,3.004358642578125,-0.1662041231572628,-0.18722342071253806,0.08629618144482373
1761315153415339800,3.01433984375,-0.14988368747532366,-0.2178026468388736,0.03760696933865547
1761315153425321500,3.024321533203125,-0.14188450541496275,-0.21956286144442855,0.007470482011139392
1761315153435302700,3.034302734375,-0.13672200808525084,-0.18801201380696148,0.019256927525252102
1761315153445284600,3.04428466796875,-0.12804185802340506,-0.14755582904964684,0.05059139246568083
1761315153455265500,3.054265625,-0.19434183788299558,-0.13398567845653742,0.08894019314758479
1761315153465247700,3.064247802734375,-0.26085283014476296,-0.12132080614008009,0.09435213519372046
1761315153475228700,3.074228759765625,-0.2576630941927433,-0.10045607809200882,0.07087247540690005
1761315153485210600,3.084210693359375,-0.2212286757647991,-0.10678995728865265,0.0498843401748687
1761315153495191600,3.094191650390625,-0.16586217785179613,-0.13710731760840864,0.014869140895083545
1761315153505172700,3.1041728515625,-0.09853519303202629,-0.17430241821054368,-0.0187836839903146
1761315153515154700,3.11415478515625,-0.008704115459322929,-0.17865447594020514,-0.041992271750792856
1761315153525135600,3.124135498046875,0.08479425244927406,-0.19839801793862133,-0.04674275421351194
1761315153535117600,3.13411767578125,0.11673019041419029,-0.20251265018321574,-0.03355016822852194
1761315153545098500,3.144098388671875,0.11435001727938651,-0.19696951950546354,-0.04710303889326751
1761315153555080700,3.154080810546875,0.11526362499296665,-0.18964991720709948,-0.038651217694580554
1761315153565061600,3.1640615234375,0.10295768564939499,-0.13627156090401113,-0.01886880499050021
1761315153575042800,3.174042724609375,0.05159399363696575,-0.09863693637344986,-0.010329232443124056
1761315153585024500,3.1840244140625,-0.05224222841262817,-0.09491977901384234,-0.009797463653981686
1761315153595005400,3.19400537109375,-0.15233634132444857,-0.08649627059418707,-0.010856471187621354
1761315153604987600,3.203987548828125,-0.2235691014111042,-0.07975128984600305,-0.02196443291828036
1761315153614968600,3.213968505859375,-0.2842173391193151,-0.056330191846005614,-0.04054828348755836
1761315153624950500,3.223950439453125,-0.32721593836843965,-0.035472368462756275,-0.04813998072557151
1761315153634931500,3.233931396484375,-0.26804478747546673,-0.04153221649099141,-0.04016556778028607
1761315153644913700,3.24391357421875,-0.1778641658127308,-0.04029127651918679,0.019517185896635054
1761315153654894600,3.25389453125,-0.051633741125464434,-0.03356507353670895,0.051720542626082895
1761315153664875500,3.26387548828125,0.0410913043230772,-0.03405943292491138,0.05059986803308129
1761315153674857700,3.273857666015625,0.13246142803132532,-0.06231639011614024,0.03022116993628442
1761315153684838700,3.283838623046875,0.2460650108575821,-0.09450608364641666,-0.008614318284019828
1761315153694820600,3.293820556640625,0.32238077329695225,-0.1327615434890613,-0.05909618596062064
1761315153704801500,3.303801513671875,0.30364509316682814,-0.18586999680958688,-0.08647592192590237
1761315153714783700,3.31378369140625,0.14606792857944964,-0.21008805387355386,-0.09283478943333029
1761315153724764700,3.3237646484375,-0.08592413326203822,-0.18879969358593224,-0.13889058429598808
1761315153734746600,3.33374658203125,-0.3177677265435457,-0.1273400664296001,-0.15609028703048825
1761315153744727600,3.3437275390625,-0.4782049567371607,-0.08964264232851564,-0.11945464694201946
1761315153754708500,3.35370849609375,-0.5131178646862506,-0.0739681763999164,-0.05787753088586032
1761315153764690700,3.363690673828125,-0.43434594126641746,-0.06995320513751357,-0.0026704613182693716
1761315153774671600,3.373671630859375,-0.265461200723052,-0.062256513155065474,0.034479923359304665
1761315153784653600,3.383653564453125,-0.10690788457989692,-0.08615600578915328,0.04012779305316508
1761315153794634500,3.393634521484375,0.030151977157592772,-0.1429561167018488,0.022964549871534106
1761315153804616700,3.40361669921875,0.12061083123981951,-0.2088636997103691,-0.02445354632027447
1761315153814597600,3.41359765625,0.14281272617578505,-0.27046598674040284,-0.09075527974553406
1761315153824578600,3.42357861328125,0.09568740238547324,-0.3065300009533763,-0.17161007385402915
1761315153834560500,3.433560546875,-0.006194762986898422,-0.3263024402527138,-0.2464865242052823
1761315153844541400,3.44354150390625,-0.05771686043143272,-0.31426406580414623,-0.25487602075748145
1761315153854523600,3.453523681640625,-0.04179448415637016,-0.2864795849628746,-0.20506803375445304
1761315153864504600,3.463504638671875,-0.0083393738001585,-0.26590784851200877,-0.12402940751165151
1761315153874486800,3.47348681640625,0.02524082424044609,-0.2342795882567763,-0.03775383046343923
1761315153884467700,3.4834677734375,0.01987082163989544,-0.19160536212380974,0.012953954923525452
1761315153894449700,3.49344970703125,-0.00004793079495429992,-0.18167806154508143,0.05737082347273826
1761315153904430600,3.5034306640625,-0.03887596636116505,-0.1824193083664402,0.11700608474612235
1761315153914411500,3.51341162109375,-0.08473872286975383,-0.1628226274928078,0.14499255443289874
1761315153924393700,3.523393798828125,-0.0867617531299591,-0.14119652315080164,0.1466327228553593
1761315153934374700,3.533374755859375,-0.058010874941945074,-0.12826434166766704,0.15318528630398212
1761315153944356600,3.543356689453125,-0.023467969349026677,-0.13771445318870246,0.1514130889996886
1761315153954337500,3.553337646484375,-0.03594049743115902,-0.1444549769574776,0.12804836082942783
1761315153964319700,3.56331982421875,-0.045831776848435396,-0.15836330999638884,0.11961137187369167
1761315153974300700,3.57330078125,-0.09948913275599479,-0.13565518257133663,0.127024643804878
1761315153984282600,3.58328271484375,-0.16324702691733836,-0.12118625650759786,0.1287237758729607
1761315153994263600,3.593263671875,-0.21184008517265318,-0.10366250945050269,0.12639474840350448
1761315154004244500,3.603244384765625,-0.2126987478286028,-0.10951138160917907,0.12481566251851618
1761315154014226700,3.613226806640625,-0.15356325277090072,-0.12776822871379553,0.14075316329747437
1761315154024207600,3.62320751953125,-0.0870972686946392,-0.1360690240692347,0.16103651126101612
1761315154034189800,3.63318994140625,-0.030784429842233656,-0.1392607327826321,0.1721172196585685
1761315154044170500,3.64317041015625,0.020967969226837156,-0.14368746318370104,0.16691665534079073
1761315154054152700,3.653152587890625,0.021900866162776946,-0.12648038086034358,0.19404533915445207
1761315154064133600,3.663133544921875,-0.015315642553567885,-0.07801306787654758,0.19646862077862023
1761315154074115600,3.673115478515625,-0.03247428262531757,-0.05715352746024727,0.20043606310486792
1761315154084096800,3.6830966796875,-0.07098375376164913,-0.06398625955712049,0.20904767797514795
1761315154094077700,3.69307763671875,-0.12827625130116938,-0.07071863655205815,0.18271248262673614
1761315154104059600,3.7030595703125,-0.13101941252946853,-0.03968099913373589,0.1206633651446551
1761315154114040600,3.71304052734375,-0.11688391967117785,-0.030416071453876793,0.033273616309463974
1761315154124022800,3.723022705078125,-0.08973989215791225,-0.0528405596319586,-0.01313661801405251
1761315154134003700,3.733003662109375,-0.07396423087716102,-0.06347023632638156,-0.004518135011568665
1761315154143985400,3.7429853515625,-0.06838906109333039,-0.07359857590254396,-0.011762260920926929
1761315154153966600,3.752966552734375,-0.04543137935400009,-0.06420782988592982,-0.017124299410730598
1761315154163947500,3.762947509765625,-0.014091653716564177,-0.07660100912153721,-0.019553426253795622
1761315154173929700,3.7729296875,-0.014475100076198576,-0.09786127582583576,-0.0036008009709417818
1761315154183910700,3.78291064453125,-0.06919277869164943,-0.0768689758753404,0.0010028934322297573
1761315154193892600,3.792892578125,-0.0956195978462696,-0.05836432802211493,-0.004061915676668286
1761315154203873500,3.80287353515625,-0.09523322887718677,-0.07273209526631981,0.0022014555670320985
1761315154213855500,3.81285546875,-0.08923428072333335,-0.12127784378118812,-0.02409545359760523
1761315154223836700,3.822836669921875,-0.08156593805253505,-0.17517032361887394,-0.05280168892629444
1761315154233818600,3.832818603515625,-0.03912555720806122,-0.1850344958335161,-0.07611249495223164
1761315154243799800,3.8427998046875,-0.021827800926566124,-0.19490918944217264,-0.06902151377797126
1761315154253780500,3.852780517578125,-0.006358429116010665,-0.2035371343927458,-0.05602737297452986
1761315154263762700,3.8627626953125,-0.034403789383172984,-0.22740137305036187,-0.0586213349904865
1761315154273743600,3.87274365234375,-0.0945475847005844,-0.25988047798126934,-0.08929229452088475
1761315154283725800,3.882725830078125,-0.14179858069717882,-0.27335904130078853,-0.14937924508452416
1761315154293706800,3.892706787109375,-0.1905634883880615,-0.2712779607104137,-0.15913922627232968
1761315154303688400,3.9026884765625,-0.2230330948382616,-0.2821088225327432,-0.14956651128493248
1761315154313669600,3.912669677734375,-0.2453366965830326,-0.30174583541676403,-0.1304608287986368
1761315154323651600,3.922651611328125,-0.2109463512033224,-0.31388427270632235,-0.0945860170148313
1761315154333632800,3.9326328125,-0.12396540236473083,-0.2839738857522607,-0.03901837050653994
1761315154343613700,3.94261376953125,-0.044460488495230675,-0.23825327766072005,-0.009407952879741787
1761315154353595600,3.952595703125,-0.0037970541954040525,-0.19866941875852642,0.015398790792375803
1761315154363576600,3.96257666015625,0.004919920745491981,-0.14579364168271422,0.015243161839246748
1761315154373558500,3.97255859375,-0.027765958803892134,-0.11928524519186466,0.033720921685546634
1761315154383539700,3.982539794921875,-0.13286533265709877,-0.12366097605805844,0.03680975454635918
1761315154393521700,3.992521728515625,-0.24163959563076495,-0.14112265419699252,0.009330430664122103
1761315154403502600,4.002502685546875,-0.31381869665682316,-0.14371051526572554,-0.0038999300479888913
1761315154413484500,4.012484619140625,-0.29536943225264545,-0.1291565777996555,0.028652020923420785
1761315154423465700,4.0224658203125,-0.23086159650683402,-0.12960402930621057,0.07685995231866836
1761315154433446700,4.03244677734375,-0.13504559930562973,-0.11837635018602014,0.11921842703334987
1761315154443428600,4.0424287109375,-0.04344751206040382,-0.10391743405964225,0.11911423600651323
1761315154453409800,4.052409912109375,0.0846136351853609,-0.0919916531400755,0.08749518197104335
1761315154463391500,4.0623916015625,0.16953765149414537,-0.09583619973901658,0.05871916934177279
1761315154473372700,4.07237255859375,0.19359891056120396,-0.1289588998030871,0.02198825218528509
1761315154483354600,4.082354736328125,0.19340251120626925,-0.12381152697727084,0.01092186457403004
1761315154493335800,4.092335693359375,0.18258534911572932,-0.1046394281912595,-0.007837488692626357
1761315154503317500,4.1023173828125,0.18433073147833345,-0.09508750026356429,-0.018666122025251388
1761315154513298400,4.11229833984375,0.1145294654995203,-0.11294106379691511,-0.019426219677552578
1761315154523279600,4.122279541015625,-0.03841887024343014,-0.10940116270035505,-0.011949892447516321
1761315154533261600,4.132261474609375,-0.17421558017730712,-0.06536328353136778,-0.010064663222804665
1761315154543242800,4.14224267578125,-0.23554887754023074,-0.016175693449005484,0.028543811308592557
1761315154553224400,4.152224365234375,-0.22567630282342432,-0.01574292805492878,0.0676424805097282
1761315154563205600,4.16220556640625,-0.20465163497328756,-0.05234956124462187,0.1136430380538106
1761315154573187600,4.1721875,-0.19405074598193167,-0.06988163773864507,0.12109013918936253
1761315154583168500,4.18216845703125,-0.16691607081890106,-0.06732340462319553,0.09349478771202266
1761315154593150700,4.192150634765625,-0.11940262449383734,-0.05876421405989676,0.043921851573884486
1761315154603131600,4.202131591796875,-0.04973872115910053,-0.060588945269025855,-0.0012543109100311993
1761315154613112600,4.212112548828125,0.005180032986402511,-0.10821129532866179,-0.03246558786220848
1761315154623094500,4.222094482421875,0.031363106513023375,-0.15789872469194233,-0.044498117091879244
1761315154633075700,4.23207568359375,0.012464929297566414,-0.18243523658793417,-0.054841231929883355
1761315154643058200,4.24205810546875,-0.008731003466248511,-0.17785843019168823,-0.06785327371619641
1761315154653039000,4.2520390625,0.017278467059135435,-0.13961835058126598,-0.04379720228090882
1761315154663021000,4.26202099609375,0.050424365335702895,-0.13649901298433542,-0.015881313612312077
1761315154673002000,4.272001953125,0.048017304193973535,-0.1829146906679496,0.013618994703516364
1761315154682984200,4.281984130859375,0.0325122765481472,-0.21445585716161875,0.0194999425008893
1761315154692965000,4.291965087890625,-0.02077916865646839,-0.20921112490855157,0.009254442818462848
1761315154702946300,4.3019462890625,-0.11219897672533988,-0.18494981322474777,-0.007981134947016836
1761315154712928000,4.311927978515625,-0.2087894654303789,-0.15039390201978384,-0.012906097193807363
1761315154722909000,4.321908935546875,-0.2389619008541107,-0.1137511380707845,0.00034114158786833284
1761315154732891100,4.33189111328125,-0.2364917113482952,-0.08478427904453129,0.029364187780767676
1761315154742872000,4.3418720703125,-0.22179215486645698,-0.06964655034113675,0.027229806100577115
1761315154752854000,4.35185400390625,-0.17294892124235628,-0.07936309424601495,0.01677095592841506
1761315154762835000,4.3618349609375,-0.0997065748989582,-0.11482304161861538,-0.006261836873739958
1761315154772817200,4.371817138671875,-0.07299626262784004,-0.15233984845578669,-0.01684621312171221
1761315154782798000,4.381798095703125,-0.10222118806838988,-0.1751375173278153,-0.011672609876096248
1761315154792779000,4.391779052734375,-0.13688976586759088,-0.14511205262672155,0.016048267677053807
1761315154802761000,4.401760986328125,-0.1484972015529871,-0.09498056929036974,0.03908800167664885
1761315154812742000,4.411741943359375,-0.18519290126562118,-0.07974000126700848,0.040509631977602836
1761315154822724000,4.42172412109375,-0.18814999750554562,-0.10100030450392514,0.0313963511954993
1761315154832705000,4.431705078125,-0.16446049436032772,-0.12198131587542593,0.01538973070308566
1761315154842687200,4.441687255859375,-0.11050386324524879,-0.14518621384147554,-0.007837634823098778
1761315154852668200,4.451668212890625,-0.06336626449525357,-0.15651424806360154,-0.02923310874700546
1761315154862650000,4.461650146484375,-0.006171966633200645,-0.1552346931144595,-0.035025647608563304
1761315154872631000,4.471631103515625,0.042810967722535134,-0.15900029272567479,-0.044158802134916186
1761315154882613200,4.48161328125,0.10387538501620291,-0.16143975829966364,-0.03545578265413642
1761315154892594200,4.49159423828125,0.13744973783791065,-0.19319635764230042,-0.025786402359232304
1761315154902575000,4.5015751953125,0.13662263936400412,-0.20733966848086566,-0.01653670878112316
1761315154912557000,4.51155712890625,0.07972177149057388,-0.20412004884723572,-0.016749401683732866
1761315154922538000,4.5215380859375,0.013657353952527046,-0.17208434030227363,-0.03509871284477412
1761315154932520200,4.531520263671875,-0.03855155671238899,-0.15010923985950647,0.00662519029341638
1761315154942501000,4.541501220703125,-0.04300912064313888,-0.14221877887062728,0.04957096337676048
1761315154952483000,4.551483154296875,0.005028057295084,-0.15750512226447463,0.08453830492682754
1761315154962464000,4.561464111328125,0.08235854973495006,-0.1986819859791547,0.10239851739667355
1761315154972446000,4.571446044921875,0.1369499716222286,-0.2596000170720741,0.09260499926544725
1761315154982427100,4.58142724609375,0.1492722775787115,-0.3171095183631405,0.08818879025839269
1761315154992408000,4.591407958984375,0.11965864508152008,-0.31757300768904384,0.10450820302702486
1761315155002390300,4.601390380859375,0.014191606959700584,-0.2745869391279295,0.11710669557638466
1761315155012371000,4.611370849609375,-0.1686082616895437,-0.22495335884373635,0.1164190786384046
1761315155022353200,4.621353271484375,-0.2922504234492779,-0.1792737768823281,0.11418883536830544
1761315155032334000,4.631333984375,-0.35842882275581356,-0.14394969431646168,0.1318495797432959
1761315155042316000,4.64131591796875,-0.35125030942857266,-0.1554000032113865,0.16514789210259914
1761315155052297200,4.651297119140625,-0.31499884635210035,-0.14898366989567874,0.20846308302022515
1761315155062279000,4.66127880859375,-0.27233751623332497,-0.15270188670121132,0.22663901037573814
1761315155072260000,4.671260009765625,-0.21230068842172622,-0.17147431864514945,0.20808906207606195
1761315155082241000,4.681240966796875,-0.1436164437741041,-0.19304328597243875,0.17227898609153924
1761315155092223200,4.69122314453125,-0.08884615818858146,-0.21837880275901406,0.14942315729148686
1761315155102204200,4.7012041015625,-0.041001872473955155,-0.24065756232347338,0.11212291581444442
1761315155112186000,4.71118603515625,-0.03420797455012798,-0.23663331177607178,0.07019727955907583
1761315155122167000,4.7211669921875,-0.059876084291934965,-0.23182507124412804,0.04503237009905278
1761315155132149000,4.73114892578125,-0.08215688968300819,-0.20261727960146964,0.0031656974893063306
1761315155142130200,4.741130126953125,-0.11415595601201056,-0.16232772011533378,-0.05726232159696519
1761315155152112000,4.751112060546875,-0.13722820404171943,-0.14589531195890157,-0.09031184682697058
1761315155162093000,4.761093017578125,-0.15633388652801514,-0.12744699740279467,-0.09470226380564271
1761315155172074000,4.771073974609375,-0.15196809253394603,-0.10413465700689703,-0.0979310896590352
1761315155182056200,4.78105615234375,-0.13374620714485644,-0.04971899354532361,-0.08185045408234
1761315155192037000,4.791037109375,-0.10923603526651858,-0.013876695791631937,-0.045689080442115663
1761315155202019000,4.80101904296875,-0.10134206714630126,-0.015570165303908288,-0.021804054724797604
1761315155212000300,4.811000244140625,-0.10779869593977928,-0.03614840456079691,-0.011945654663816094
1761315155221982000,4.82098193359375,-0.10374620567858218,-0.040365766527503726,-0.01064662782922387
1761315155231963100,4.830963134765625,-0.08625906430482864,-0.029171149426698684,-0.019837650022655723
1761315155241945000,4.840945068359375,-0.0478928010314703,-0.043021103341877455,-0.01618241545073688
1761315155251926300,4.85092626953125,-0.032685879549384116,-0.05617766816541552,-0.030956790734454988
1761315155261907200,4.8609072265625,-0.010843465575575828,-0.0603887465218082,-0.0602685907408595
1761315155271889000,4.870888916015625,0.023026070800423622,-0.06959646412171423,-0.08075600990913807
1761315155281870000,4.8808701171875,0.022470190483331678,-0.07240158467032015,-0.11233392821662128
1761315155291852000,4.89085205078125,0.02873334253132343,-0.06109112263750285,-0.09114625182449818
1761315155301833200,4.900833251953125,0.05003507375717163,-0.04854801353719085,-0.05297383062280714
1761315155311815000,4.91081494140625,0.061063832771778105,-0.04282247549723833,-0.010723200196772814
1761315155321796000,4.920796142578125,0.07065759054720401,-0.04046813092343509,0.004771232989802956
1761315155331778000,4.930778076171875,0.029765023666620254,-0.03472947767358273,-0.007820610623061656
1761315155341759000,4.940759033203125,0.006821954974532127,-0.036838834510371087,-0.029147695485875008
1761315155351740200,4.950740234375,-0.007441548177599906,-0.06318235929571092,-0.04752046058773994
1761315155361722000,4.96072216796875,0.0052998599737882615,-0.08289134143739939,-0.05478051471859216
1761315155371703000,4.970703125,-0.02016658971607685,-0.08070961348414421,-0.06852664293311536
1761315155381685000,4.98068505859375,-0.022517536756396294,-0.07116765896119177,-0.05966565641164779
1761315155391666200,4.990666259765625,-0.02924479918479919,-0.055717795568704605,-0.06313369784839451
1761315155401648000,5.000648193359375,-0.08498188397586345,-0.05346336770541966,-0.04151340219266712
1761315155411629000,5.010629150390625,-0.11204875459969044,-0.0378096888365224,-0.020889716358855365
1761315155421611000,5.020611083984375,-0.13844810122549533,-0.05818824080284685,0.0026495646607130764
1761315155431592000,5.030592041015625,-0.17801847959160805,-0.11784838078916073,0.026238018584251403
1761315155441573000,5.040572998046875,-0.17289222261905668,-0.1493633168630302,0.005097761530429124
1761315155451555000,5.05055517578125,-0.12339198639094828,-0.15650091365799307,-0.03597805296257138
1761315155461536300,5.060536376953125,-0.019428338569402695,-0.16900796506423502,-0.06853051539063454
1761315155471518000,5.07051806640625,0.09892857626378536,-0.19353296918552368,-0.0594037906050682
1761315155481499100,5.0804990234375,0.15189327373206615,-0.22731950345318763,-0.018486819935590027
1761315155491481000,5.090481201171875,0.13461714476048944,-0.2638598664736375,-0.004550064519792795
1761315155501462000,5.1004619140625,0.03214753488898277,-0.2708511136004701,-0.031912703219801185
1761315155511444000,5.11044384765625,-0.06805822170376777,-0.2733376331865787,-0.07349032975509762
1761315155521425000,5.1204248046875,-0.11533318309783935,-0.2305524209598079,-0.05919869648702442
1761315155531406000,5.130406005859375,-0.11739888345599174,-0.190937253603898,-0.0018034692253917455
1761315155541388000,5.140387939453125,-0.11822422836422919,-0.17075575857963413,0.07413439981229603
1761315155551369200,5.150369140625,-0.09135200352966785,-0.1594965152774006,0.12088847913742065
1761315155561351200,5.16035107421875,-0.053937926414608955,-0.14154150066357105,0.13836129972487687
1761315155571332000,5.17033203125,-0.04393500331640243,-0.14391856852583587,0.12913856721892952
1761315155581314000,5.18031396484375,-0.07963701581656932,-0.17523904147353023,0.09995945368148386
1761315155591295000,5.190294921875,-0.13098901739120483,-0.2047328469833359,0.06896591113321483
1761315155601277200,5.200277099609375,-0.17261106759011743,-0.2092694674996659,0.054558761726692315
1761315155611258000,5.210258056640625,-0.13230360712110995,-0.1805154840391129,0.08154781787395476
1761315155621239300,5.2202392578125,-0.02932195607423782,-0.14630798441302031,0.1576171312715858
1761315155631221000,5.230220947265625,0.047376083680987356,-0.13480046543814242,0.21794125159196553
1761315155641202200,5.2402021484375,0.07802782705426216,-0.10783621493857354,0.2640240805920213
1761315155651184400,5.250184326171875,0.026636077991127965,-0.08079385770149529,0.2527107324823737
1761315155661165300,5.260165283203125,-0.09993512295782565,-0.049839222391508516,0.20396847501471638
1761315155671147000,5.27014697265625,-0.25546470736563204,-0.024822379632666706,0.1656870404805988
1761315155681128200,5.280128173828125,-0.38990474199354647,-0.025270634856820105,0.13737608807981014
1761315155691110100,5.290110107421875,-0.4712561605125665,-0.025692476998083292,0.09640497607029974
1761315155701091300,5.30009130859375,-0.45591421447396274,-0.03413637061864137,0.083158760201931
1761315155711072300,5.310072265625,-0.3713941027909517,-0.03869958688095212,0.08181297161616384
1761315155721054200,5.32005419921875,-0.2431704584598541,-0.03160992088094353,0.08589505329802632
1761315155731035100,5.33003515625,-0.13933482093214988,-0.03233706611171364,0.08501673609353601
1761315155741017000,5.34001708984375,-0.07169044072628021,-0.04273121701721102,0.08251958551555871
1761315155750998300,5.349998291015625,-0.010532499930262566,-0.04744341329615563,0.03174414171986282
1761315155760980200,5.359980224609375,0.03727496090531349,-0.07740311928465962,-0.036690219819918275
1761315155770961400,5.36996142578125,0.0847445680886507,-0.10987400437649339,-0.07410575823970139
1761315155780943000,5.379943115234375,0.1421136379957199,-0.14900595479272305,-0.1136518789473921
1761315155790924300,5.38992431640625,0.18828736014962194,-0.18068981769271195,-0.13056604273878036
1761315155800906200,5.39990625,0.18768939425647257,-0.17924257802646607,-0.13627294914349913
1761315155810887200,5.40988720703125,0.13731003710627554,-0.18137462161909787,-0.1327412678860128
1761315155820868400,5.419868408203125,0.08746201035380363,-0.17700933908168226,-0.1252080959022045
1761315155830850000,5.42985009765625,0.06700958943367004,-0.15711725545804947,-0.10147168487533927
1761315155840831200,5.439831298828125,0.05716507176756858,-0.169171886921674,-0.06215045896470547
1761315155850813200,5.449813232421875,0.03499240292608738,-0.1750490718593821,-0.04900521925278008
1761315155860794400,5.45979443359375,-0.008637479963898659,-0.17872279193606228,-0.02781089392416179
1761315155870776000,5.469776123046875,-0.0337321737319231,-0.18079583535045385,-0.017871464516222475
1761315155880757000,5.479757080078125,-0.08642389947772025,-0.1605394484590739,0.0054112844590097665
1761315155890739200,5.4897392578125,-0.16608838782310484,-0.14351247194297612,-0.002292567916586995
1761315155900720000,5.49972021484375,-0.24585867463052272,-0.1265158540325239,-0.020373145138844848
1761315155910701300,5.509701416015625,-0.27820611600577827,-0.11135145651791244,0.0007179390110075473
1761315155920683300,5.519683349609375,-0.2513409054338932,-0.10448091316130012,0.022058760138228533
1761315155930664200,5.529664306640625,-0.2348755083233118,-0.1228135654484853,0.04612177277095616
1761315155940646100,5.539646240234375,-0.257439806830883,-0.15472104450389743,0.09298976079933345
1761315155950627000,5.549626953125,-0.2623077051281929,-0.15886621801722794,0.13444851019531487
1761315155960609300,5.559609375,-0.2893126164317131,-0.16458101546745746,0.16728249297849834
1761315155970590200,5.569590087890625,-0.30201135448515415,-0.15376827382370828,0.19277721891477703
1761315155980572200,5.579572265625,-0.2966314150124788,-0.1266979326011613,0.2173367828927934
1761315155990553000,5.589552978515625,-0.2382511222362518,-0.10863832510169595,0.21363222928643225
1761315156000534300,5.5995341796875,-0.15432079313993452,-0.10638305698819459,0.15003836658038197
1761315156010516200,5.60951611328125,-0.09904723420739173,-0.1233407676603645,0.08811689406596124
1761315156020497400,5.619497314453125,-0.08400631694197654,-0.1286415044169873,0.02771839333511889
1761315156030479000,5.62947900390625,-0.08792144455909728,-0.13609868855513632,-0.0036504853315651414
1761315156040460000,5.6394599609375,-0.09258592923879623,-0.14830266536157577,-0.013772212503850459
1761315156050442200,5.649442138671875,-0.10658113684356212,-0.15047157036587594,-0.012383534624427556
1761315156060423200,5.659423095703125,-0.12825930016636847,-0.15420940518733114,-0.003327390857040882
1761315156070405000,5.669405029296875,-0.09188158036172389,-0.14957706921156494,-0.0038660277783870694
1761315156080386000,5.679385986328125,-0.012692308312654494,-0.15569690379872916,0.007791676789522171
1761315156090368300,5.6893681640625,0.0805833567559719,-0.1427338887859136,0.03992423330508172
1761315156100349200,5.69934912109375,0.14841303040087223,-0.13070687598157674,0.06658106182329357
1761315156110330000,5.709330078125,0.15713585056066512,-0.1301247652446851,0.07970956959612667
1761315156120312300,5.719312255859375,0.14107377355396747,-0.11664368117451666,0.07287022509537637
1761315156130293200,5.729293212890625,0.09885083485245703,-0.11287124996371567,0.034370544700697066
1761315156140275200,5.739275146484375,0.03917641061246395,-0.12970606490857897,0.012408522935211658
1761315156150256000,5.749256103515625,-0.030495676028728484,-0.1389142574325204,-0.0023687749579548835
1761315156160238300,5.75923828125,-0.07414075648784638,-0.140985583813861,-0.028535847197845576
1761315156170219300,5.76921923828125,-0.07521452319920062,-0.12689893506597727,-0.027875045201554892
1761315156180201200,5.779201171875,-0.0769061295479536,-0.13652674124147743,-0.030995369179174302
1761315156190182100,5.78918212890625,-0.0625321517586708,-0.12503902294561267,-0.023685265361517667
1761315156200163000,5.7991630859375,-0.06938800900280476,-0.12110873429197817,-0.018373934145644307
1761315156210145300,5.809145263671875,-0.11962532733380794,-0.136579969266057,-0.022872195412963627
1761315156220126200,5.819126220703125,-0.16133973199129104,-0.14570081230010837,-0.02607084532380104
1761315156230108200,5.829108154296875,-0.1872662004083395,-0.11338942861892282,0.006109715051949024
1761315156240089000,5.839089111328125,-0.1787269201219082,-0.06972294004559516,0.04314231856875121
1761315156250071300,5.8490712890625,-0.133390817835927,-0.03970920231491327,0.06637231444343925
1761315156260052200,5.85905224609375,-0.07787818945050239,-0.04506250950898975,0.07701740790270269
1761315156270034400,5.869034423828125,0.008083937734365464,-0.10482095877062529,0.06880429083071649
1761315156280015000,5.87901513671875,0.03208265295922756,-0.17338859130125492,0.06658288845419884
1761315156289996000,5.88899609375,-0.00994447090923786,-0.1884922716045752,0.04293116003610194
1761315156299978200,5.898978271484375,-0.07222644729912281,-0.13535963369086385,-0.006464958230406046
1761315156309959200,5.908959228515625,-0.15832476808428764,-0.08814736226946115,-0.013034326683357357
1761315156319941400,5.91894140625,-0.23079671457707882,-0.06493727667164056,-0.0039681729786098
1761315156329922300,5.92892236328125,-0.2285831301808357,-0.044915538786351676,0.03315503143109381
1761315156339904300,5.938904296875,-0.1927911013096571,-0.04256510320268571,0.06068140932545066
1761315156349885200,5.94888525390625,-0.1254302142202854,-0.07023574840594082,0.06815488701127469
1761315156359867100,5.9588671875,-0.05918810202777385,-0.11462434070874004,0.08664353357777
1761315156369848300,5.968848388671875,0.012945990812778472,-0.14832874965090304,0.08862411293573677
1761315156379830000,5.978830078125,0.0847661953985691,-0.15432714981548487,0.07545045084692538
1761315156389811200,5.988811279296875,0.14985796851217745,-0.15202738497313112,0.06887348360940813
1761315156399792000,5.998792236328125,0.18047347152829168,-0.14091496626306324,0.02530117612555623
1761315156409774300,6.0087744140625,0.20684476110339164,-0.14112104676179588,0.002971343960985541
1761315156419755300,6.01875537109375,0.19828326898515222,-0.1626071581112221,-0.022553923244029283
1761315156429737200,6.0287373046875,0.16812310852110385,-0.19290548493694512,-0.03455269633457064
1761315156439718100,6.03871826171875,0.13300970956385136,-0.20526702692527324,-0.05510645873732865
1761315156449700000,6.0487001953125,0.05377952098250389,-0.19306904146820306,-0.06562836420834064
1761315156459681300,6.058681396484375,-0.02367138296663761,-0.18587101972289383,-0.06202683258503675
1761315156469663200,6.068663330078125,-0.07833177843689917,-0.1590840254863724,-0.02881846353150904
1761315156479644400,6.07864453125,-0.13015899630784988,-0.12853471957426518,0.025910832456499337
1761315156489625000,6.088625,-0.1498258198082447,-0.09550437396876513,0.08409202246405184
1761315156499607000,6.09860693359375,-0.12733692462444304,-0.05392521306350827,0.12118176299557089
1761315156509588200,6.108588134765625,-0.09075169954895973,-0.021442016479372977,0.10449673178493976
1761315156519570200,6.118570068359375,-0.04406944335103035,-0.0027805706292390823,0.07832878276221454
1761315156529551400,6.12855126953125,-0.010445990690588951,-0.0318641879029572,0.0494590274348855
1761315156539533000,6.138532958984375,-0.010365911191701889,-0.05832845299113541,0.025404782630503175
1761315156549514200,6.14851416015625,-0.007090835043787956,-0.09353913831040263,0.009372516240179539
1761315156559496200,6.15849609375,-0.05889350299537181,-0.10455430719107389,-0.029201690695434806
1761315156569477400,6.168477294921875,-0.10572188966572284,-0.08634955559987574,-0.059570890800282356
1761315156579459000,6.178458984375,-0.06613105303347111,-0.08326558157727122,-0.024590835899114608
1761315156589440000,6.18843994140625,0.010225041416287422,-0.08058379514738917,0.044304494215920566
1761315156599421200,6.198421142578125,0.053802317336201666,-0.09752985191438346,0.0862506618026644
1761315156609403100,6.208403076171875,0.04377367527484893,-0.12005743514075874,0.09048091978356242
1761315156619384300,6.21838427734375,0.005908347260951996,-0.1531296471266076,0.055328138663992284
1761315156629366300,6.2283662109375,-0.03868424318134785,-0.18336612422987816,0.016740779985859988
1761315156639347000,6.238346923828125,-0.08693886326253414,-0.20850947944521903,0.0049169981360435485
1761315156649328600,6.24832861328125,-0.13564005806744098,-0.2068661326849833,-0.009338613970577716
1761315156659309800,6.258309814453125,-0.16223755761384964,-0.19020316717568783,-0.043218671740591526
1761315156669291800,6.268291748046875,-0.1535597456395626,-0.1618856023710221,-0.07566518957614898
1761315156679272700,6.278272705078125,-0.13824351856410502,-0.17279526505060494,-0.0722743050288409
1761315156689254000,6.28825390625,-0.1557861895173788,-0.17138674995955078,-0.05573248168118298
1761315156699235600,6.298235595703125,-0.19304127667844295,-0.17535601891670374,-0.04152582328282296
1761315156709216800,6.308216796875,-0.20510522395968436,-0.1564936436669901,-0.025747970044985413
1761315156719198700,6.31819873046875,-0.20436638829112053,-0.15622282736897466,-0.005688713160902262
1761315156729180000,6.328179931640625,-0.1907470282614231,-0.18824282688815144,-0.005766966028884053
1761315156739161900,6.338161865234375,-0.1374263569623232,-0.22016685521956533,-0.002881839046627283
1761315156749142500,6.348142578125,-0.051560091367363926,-0.22344145644344388,0.0033454379703849553
1761315156759124700,6.358124755859375,0.035134441745281214,-0.2517420335806906,0.0012364099271595477
1761315156769105700,6.368105712890625,0.06409165616035462,-0.2628004936138168,-0.008398410511016845
1761315156779088000,6.378087890625,0.08669628667831421,-0.2746632922997698,-0.021828823839873075
1761315156789068800,6.38806884765625,0.10190905337929725,-0.28036968724783506,-0.027684271869808433
1761315156799049700,6.3980498046875,0.11217325776219367,-0.2642836813762784,-0.049302813959866756
1761315156809031700,6.40803173828125,0.1093096850246191,-0.22394242823552338,-0.037815424457564945
1761315156819012600,6.4180126953125,0.050697921580076216,-0.16631225970685481,-0.02818637617304921
1761315156828994800,6.427994873046875,-0.011221651238203048,-0.11316212266907096,-0.01891037910990417
1761315156838975700,6.437975830078125,-0.06735445734858513,-0.09598770050629973,-0.005349763530120253
1761315156848957700,6.447957763671875,-0.11755202819108962,-0.11375880992058664,-0.01846037032008171
1761315156858938600,6.457938720703125,-0.1869219170153141,-0.131433034831658,-0.02377696223296225
1761315156868920800,6.4679208984375,-0.21280863794386384,-0.11801014722213149,-0.0063525838971138
1761315156878901800,6.47790185546875,-0.2434025136500597,-0.08292283255420625,0.0032486265324056145
1761315156888882700,6.487882568359375,-0.23963643911480903,-0.0756895933650434,0.027282340005412697
1761315156898864600,6.49786474609375,-0.19410510651767252,-0.0816836461480707,0.06428710566721856
1761315156908845600,6.507845458984375,-0.138819857147336,-0.07662829898726195,0.08637823370508849
1761315156918827800,6.517827880859375,-0.06670914518237113,-0.0948520475398749,0.11286482022292911
1761315156928808700,6.52780859375,-0.016080781707167625,-0.10111965656727552,0.11205160414390265
1761315156938791000,6.537791015625,0.011628478473424912,-0.10171711100377141,0.10678542724400758
1761315156948771800,6.547771728515625,-0.017993921852111815,-0.08222659391835331,0.0740201257828623
1761315156958753800,6.55775390625,-0.07273556586503982,-0.06172229668051004,0.021774244108423588
1761315156968734700,6.567734619140625,-0.1215571721792221,-0.06671659783646464,-0.005900894606858492
1761315156978717000,6.577717041015625,-0.16907178754806518,-0.08018803729545325,0.009737477095052599
1761315156988697900,6.58769775390625,-0.20347557693123816,-0.09161207923796028,0.02015175747312605
1761315156998678800,6.5976787109375,-0.1939098762065172,-0.08829561163373291,0.027474501576647162
1761315157008660700,6.60766064453125,-0.13300094173550606,-0.09432648929581046,0.037699908319115634
1761315157018641700,6.6176416015625,-0.05008183550834656,-0.11545852651055902,0.03997011827342212
1761315157028624000,6.627623779296875,0.0411480029463768,-0.15090250912904737,0.02023322521150112
1761315157038604800,6.637604736328125,0.12243746214509009,-0.1849155456289649,-0.019022022790834307
1761315157048586800,6.647586669921875,0.16461247005164623,-0.2022843943852931,-0.06767594438791275
1761315157058567700,6.657567626953125,0.14299042083024976,-0.216447688565962,-0.11038666660636663
1761315157068549600,6.667549560546875,0.05242985993921757,-0.2353582138063386,-0.15721242292821405
1761315157078530800,6.67753076171875,-0.02397416530549526,-0.2327490542212501,-0.16570603744201362
1761315157088512800,6.6875126953125,-0.07029869410693645,-0.18452950545344501,-0.13811726183593273
1761315157098493700,6.69749365234375,-0.0839250683993101,-0.1274951839260757,-0.07680361902154982
1761315157108474600,6.707474609375,-0.12613339405357837,-0.10673990760184823,-0.03600552549138665
1761315157118456800,6.717456787109375,-0.13527122475504874,-0.08332567773405462,-0.034808936117962
1761315157128437800,6.727437744140625,-0.124048988994956,-0.09540127892047166,-0.038415436177328226
1761315157138419700,6.737419677734375,-0.11163491310179233,-0.13211173781082033,-0.024153905786573886
1761315157148401000,6.74740087890625,-0.12453355764150618,-0.15892368382550776,-0.0053747518409043545
1761315157158382600,6.757382568359375,-0.15756138249635696,-0.14973784926384687,0.0013550678707659244
1761315157168363800,6.76736376953125,-0.17834522732794283,-0.13327574008889495,-0.004360825558006763
1761315157178345700,6.777345703125,-0.16417232506871224,-0.11555950266700238,-0.016967428348585962
1761315157188327000,6.787326904296875,-0.15211948370337486,-0.1045044766999781,-0.01953895933702588
1761315157198307800,6.797307861328125,-0.11044891818761825,-0.1111108892276883,-0.023412366704270243
1761315157208289800,6.807289794921875,-0.07049918511509895,-0.1189682151319459,-0.005889715625718235
1761315157218270700,6.817270751953125,-0.07747779195606708,-0.10417246826663612,0.006327814782038331
1761315157228252700,6.827252685546875,-0.11386018793582915,-0.09249346518237143,0.03649213996455073
1761315157238233900,6.83723388671875,-0.1336924311310053,-0.09658128248527645,0.04957534729093313
1761315157248215600,6.847215576171875,-0.11834931604862213,-0.10085592759717255,0.051216465561464426
1761315157258196700,6.85719677734375,-0.05521919839680194,-0.12386102867480367,0.04330839585065841
1761315157268178700,6.8671787109375,0.025373510709404943,-0.16065277264043687,0.038686069812253115
1761315157278160000,6.877159912109375,0.09795125566422938,-0.16248367786202578,0.04665595271289348
1761315157288141800,6.887141845703125,0.11674538798332214,-0.1578391034591943,0.050252442834898825
1761315157298122800,6.897122802734375,0.09059387863874435,-0.15662881435398013,0.023647855960577724
1761315157308103700,6.907103759765625,0.00770458302795887,-0.14845350854173303,-0.005840981113165617
1761315157318085600,6.917085693359375,-0.06586392652988433,-0.13439298061579466,-0.046490971409529444
1761315157328066800,6.92706689453125,-0.10376081872582435,-0.13944540516715495,-0.05903627246692776
1761315157338048800,6.937048828125,-0.1332896955490112,-0.15354710535369812,-0.08446275547258555
1761315157348030000,6.947030029296875,-0.14660685776174068,-0.17142141941413283,-0.07661408779881894
1761315157358011600,6.95701171875,-0.11449731679558753,-0.18726462950576095,-0.0403217081900686
1761315157367992600,6.96699267578125,-0.07503741306662559,-0.16956819276288151,-0.005043108733743429
1761315157377974800,6.976974853515625,-0.03419102341532707,-0.13124996988233179,0.022415464621409774
1761315157387955700,6.986955810546875,-0.024563363370299338,-0.07906586486510932,0.04709470945633948
1761315157397937700,6.996937744140625,-0.03052665568888187,-0.06391103889644145,0.05283727169632911
1761315157407918600,7.006918701171875,-0.04828092356622219,-0.08596873958874493,0.03351151671856641
1761315157417899800,7.016899658203125,-0.059306175449490545,-0.1200834463648498,0.007696399721503257
1761315157427881700,7.0268818359375,-0.07670739210546017,-0.1262267714254558,-0.013089929328113793
1761315157437862700,7.036862548828125,-0.07559387790560722,-0.12928816829007117,-0.018967735320329665
1761315157447844900,7.046844970703125,-0.06599953560829162,-0.13192249884903431,-0.002648907073587179
1761315157457825500,7.056825439453125,-0.06848433816134929,-0.12357717023212463,0.0449150273296982
1761315157467807700,7.066807861328125,-0.08228022380173206,-0.10306121908910572,0.11233896971791982
1761315157477788700,7.07678857421875,-0.10223054041862487,-0.07710742427371442,0.13514884048439563
1761315157487771000,7.08677099609375,-0.12474457004368304,-0.06667389120589941,0.13896123837940394
1761315157497751800,7.096751708984375,-0.13168576748371125,-0.08716832463685423,0.13542539240345358
1761315157507733800,7.106733642578125,-0.11879121459722518,-0.09097798258550464,0.14718779945485294
1761315157517714700,7.116714599609375,-0.11572948893904686,-0.09114745740089565,0.1191699847817421
1761315157527695600,7.126695556640625,-0.09981821857988833,-0.09658332831189036,0.07429908885471523
1761315157537677800,7.136677734375,-0.07132102289199829,-0.09817834241837263,0.05488631318062544
1761315157547658800,7.14665869140625,-0.011241524982452391,-0.11204422455504535,0.07164499414935707
1761315157557640700,7.156640625,0.037054596152901645,-0.14066610606852917,0.07554843132868409
1761315157567621600,7.16662158203125,0.07701309705376624,-0.18396328640542922,0.07535575830079615
1761315157577603800,7.176603759765625,0.06713467711806297,-0.2145978959808126,0.07715762009099125
1761315157587584800,7.186584716796875,0.0016477672070264815,-0.19371636292841285,0.08234685929715634
1761315157597566700,7.196566650390625,-0.09787000712156295,-0.11981931553594767,0.06888721987381577
1761315157607547600,7.206547607421875,-0.22485621861219404,-0.045453225859627126,0.053911330668628216
1761315157617529600,7.216529541015625,-0.3058008098959923,-0.005847155125625431,0.047693113740906116
1761315157627510800,7.2265107421875,-0.36758185102641583,-0.00011204553972929716,0.05744995312355458
1761315157637491700,7.23649169921875,-0.3788660461068153,-0.02652465350590646,0.02677417128756642
1761315157647474000,7.246473876953125,-0.2914116345375776,-0.0741327923770994,-0.0036888445805758237
1761315157657454800,7.256454833984375,-0.159528883177042,-0.1089080454211682,-0.030078400464728473
1761315157667436500,7.2664365234375,-0.028059973314404487,-0.13279434978011995,-0.03272350814603269
1761315157677417700,7.276417724609375,0.04379588710665703,-0.13889646604750305,-0.04634988243840635
1761315157687399700,7.286399658203125,0.09172317492961883,-0.11521521927397697,-0.07870499566346406
1761315157697380900,7.296380859375,0.08307868070304393,-0.10969013570956886,-0.0569336010992527
1761315157707362600,7.306362548828125,0.041618543067574496,-0.11050751650705933,-0.045202685164660215
1761315157717343700,7.31634375,0.005614332750439643,-0.10542911726422607,-0.05306209342814982
1761315157727325700,7.32632568359375,-0.015981997507810593,-0.10509312677551061,-0.09620587330162525
1761315157737306600,7.336306640625,-0.011772855380177498,-0.10679309909380971,-0.12544058948382736
1761315157747287800,7.346287841796875,0.028857261171936988,-0.1246348991241306,-0.13774623656645416
1761315157757269500,7.35626953125,0.017716273954510687,-0.14303663459215313,-0.1222714579284191
1761315157767250700,7.366250732421875,-0.01599602603316307,-0.13239190645907073,-0.12098229490071534
1761315157777232600,7.376232666015625,-0.005243745872378349,-0.10670954899620264,-0.10058438064679504
1761315157787213800,7.3862138671875,0.0063064066678285595,-0.08428714317735284,-0.04573467314951121
1761315157797195800,7.39619580078125,-0.0074836337536573405,-0.061528308478370305,-0.015800941852480172
1761315157807176700,7.4061767578125,-0.04106616988182068,-0.023963205520063636,0.02488492347486317
1761315157817158700,7.41615869140625,-0.08643383634984493,-0.00850227274429053,0.04985584473274648
1761315157827139600,7.4261396484375,-0.142009008577466,-0.025797398677282035,0.022791385261714456
1761315157837121800,7.436121826171875,-0.19153613281249998,-0.05726696123946458,-0.012897183234989642
1761315157847102700,7.446102783203125,-0.1913531774610281,-0.08011420487426221,-0.02174669851437211
1761315157857084700,7.456084716796875,-0.12509411413371563,-0.08817717288583517,-0.014206146941706537
1761315157867065600,7.466065673828125,-0.05422083500921726,-0.0922373349968344,0.02806238446719944
1761315157877046500,7.476046630859375,-0.009644611179828642,-0.07798048078119754,0.09518135255947709
1761315157887028700,7.48602880859375,0.02474281159043312,-0.06562211713064461,0.1444446382265538
1761315157897009700,7.496009765625,0.03825637315809727,-0.06495780800301582,0.15237623494341968
1761315157906991600,7.50599169921875,0.014962006810307502,-0.07441873317901045,0.12471746284104883
1761315157916972500,7.51597265625,0.0002916764229536056,-0.07713328936733305,0.06921141032688319
1761315157926954800,7.525954833984375,-0.0007125321835279464,-0.09680690793469547,0.04936674604155123
1761315157936935700,7.535935791015625,-0.025549451798200607,-0.11275295734629034,0.04957885442227125
1761315157946918000,7.54591796875,-0.03420154480934143,-0.09878854673858731,0.05088387260623276
1761315157956898800,7.55589892578125,-0.026952304333448408,-0.0873989550549537,0.042175811624154444
1761315157966879500,7.56587939453125,-0.011762918508052824,-0.06915829190015793,0.05267777028568089
1761315157976861700,7.57586181640625,-0.001242109015583992,-0.07106288341246544,0.08001008691266179
1761315157986842600,7.585842529296875,-0.0021896189987659453,-0.07938136055506766,0.09715382167622447
1761315157996824800,7.595824951171875,-0.0482411760777235,-0.08715294440463185,0.08922142124176025
1761315158006805800,7.6058056640625,-0.10651391682624817,-0.09218034411258995,0.07666201859377324
1761315158016787700,7.61578759765625,-0.15037293229699134,-0.07923442636504768,0.04180011017955839
1761315158026768600,7.6257685546875,-0.17280746694505214,-0.07782572861090302,0.026694676310569047
1761315158036750800,7.635750732421875,-0.17723112860620022,-0.07964066907837987,0.027155571820586918
1761315158046731800,7.645731689453125,-0.15767477974295616,-0.08679404796436428,0.044512803204357625
1761315158056713700,7.655713623046875,-0.12855331467688083,-0.10175397241543978,0.04692249469459057
1761315158066694700,7.665694580078125,-0.10635726495981215,-0.11381605653315782,0.026814576363191008
1761315158076676600,7.675676513671875,-0.1025952820777893,-0.14714381418265401,0.0023733780678361653
1761315158086657800,7.68565771484375,-0.10718553247749806,-0.16529446096643804,-0.010195011604204773
1761315158096638700,7.695638671875,-0.12673837420940398,-0.16183336072713136,-0.009317351986840366
1761315158106620700,7.70562060546875,-0.12366262002587318,-0.15199841460697353,0.00976947966851294
1761315158116601600,7.7156015625,-0.0960334393441677,-0.14343926057629286,0.014069076558575033
1761315158126583800,7.725583740234375,-0.0694382778853178,-0.11779135337229818,0.0409076913844794
1761315158136564700,7.735564697265625,-0.06692775636911392,-0.11308781532384454,0.06720218939632178
1761315158146546700,7.745546630859375,-0.06863222219944,-0.12168032363485544,0.07250029580444096
1761315158156527900,7.75552783203125,-0.11760171255171298,-0.13429653450399637,0.03922704482115805
1761315158166509600,7.765509521484375,-0.17412614832818507,-0.15755754657145588,-0.009418401208519936
1761315158176490800,7.77549072265625,-0.20415596041083334,-0.1538392567006871,-0.03034896103441715
1761315158186472700,7.78547265625,-0.18925532839894293,-0.1475211961276829,-0.05711056510135531
1761315158196454000,7.795453857421875,-0.12001286534667015,-0.13861363051813094,-0.07078070547021925
1761315158206434800,7.805434814453125,-0.03830196586549282,-0.16804226183723658,-0.013519479851797222
1761315158216416500,7.81541650390625,0.045562312257289884,-0.17829335101023316,0.05362140781134367
1761315158226397700,7.825397705078125,0.10150456423163413,-0.1650706621479243,0.07791961743943393
1761315158236379600,7.835379638671875,0.16310440357625483,-0.16839987963587044,0.08558496443554758
1761315158246360800,7.84536083984375,0.15291209538578987,-0.1759334169458598,0.05253616985790431
1761315158256342500,7.855342529296875,0.07757482258975505,-0.16769874562919138,0.02056450299248099
1761315158266323700,7.86532373046875,-0.03434942884743213,-0.13597626775186508,-0.03204487823210656
1761315158276305700,7.8753056640625,-0.17585107242465017,-0.10670253473352641,-0.07694090860038995
1761315158286286600,7.88528662109375,-0.3025491146236658,-0.09506477697510271,-0.06422317358553409
1761315158296268800,7.895268798828125,-0.3882949687093496,-0.09444383206516503,0.005600815681740642
1761315158306249700,7.905249755859375,-0.42478667028248307,-0.08098945333883166,0.0503926550231874
1761315158316231700,7.915231689453125,-0.39947745698094367,-0.07492010682988912,0.06740655286200344
1761315158326212600,7.925212646484375,-0.28207681995928285,-0.08461856708880514,0.07221008068621158
1761315158336193800,7.93519384765625,-0.12414894223809242,-0.0924183175869286,0.04499050371870398
1761315158346175700,7.94517578125,0.0099514851719141,-0.1303907957697287,0.0018779227010905742
1761315158356156700,7.95515673828125,0.13480068463385103,-0.18776804898325353,-0.05507686731666326
1761315158366138600,7.965138671875,0.1937327660739422,-0.235718790747039,-0.0872512171473354
1761315158376119600,7.97511962890625,0.20725684903562067,-0.2608239693764597,-0.09488390398286282
1761315158386101800,7.985101806640625,0.16550445045530796,-0.2632123623503372,-0.07542780062370001
1761315158396082700,7.995082763671875,0.08370996434390544,-0.22746479367539285,-0.03589088613577187
1761315158406064600,8.005064697265626,-0.052123570469021795,-0.1856832785984501,-0.015382351114228367
1761315158416045600,8.015045654296875,-0.16431611745357513,-0.14635828982815147,-0.018529490033537148
1761315158426027800,8.02502783203125,-0.22944003927111625,-0.10917042268440126,-0.0235099818598479
1761315158436008700,8.0350087890625,-0.20201310316324234,-0.08173121161684394,-0.0027975948292762037
1761315158445989600,8.04498974609375,-0.13709610209465026,-0.0740410589730367,0.033944574373587964
1761315158455971800,8.054971923828125,-0.0736561878412962,-0.08404544337596744,0.06681450525298714
1761315158465952500,8.064952392578125,-0.011322773525118826,-0.09354341262672096,0.07228365737907588
1761315158475934700,8.074934814453124,-0.0014805939465761184,-0.10327964761275797,0.04050605178102851
1761315158485915600,8.08491552734375,-0.05243921228945255,-0.11662731456160545,0.013815978580340742
1761315158495897900,8.09489794921875,-0.14315408695936202,-0.12069365068506449,0.0030829876419156787
1761315158505878800,8.104878662109375,-0.2174158394783735,-0.09958674791157245,0.026711189053952693
1761315158515860700,8.11486083984375,-0.2506435708194971,-0.06633037499785423,0.07956263540610671
1761315158525841700,8.124841552734376,-0.25885025815069673,-0.025804705200903118,0.12817900147177277
1761315158535824000,8.134823974609375,-0.20590368086099622,-0.0205517165761441,0.16294241794757544
1761315158545804800,8.1448046875,-0.1584475176811218,-0.03873297769390047,0.1767901799056679
1761315158555786500,8.154786376953124,-0.07595102078020573,-0.07063066600766033,0.1571099854670465
1761315158565767700,8.164767578125,0.042566637572646136,-0.09265176101662218,0.12964213282689452
1761315158575748600,8.17474853515625,0.11856909627914428,-0.10808080081678927,0.13412417361177503
1761315158585730800,8.184730712890625,0.14517945530712603,-0.1457468433989212,0.12838051539324224
1761315158595711700,8.194711669921874,0.11738602397441864,-0.15403459660969673,0.12559125000089405
1761315158605693700,8.204693603515626,0.057442719665169714,-0.1349529160534963,0.09506927048712968
1761315158615674600,8.214674560546875,-0.008482581663131714,-0.10589523693863302,0.08229125665239989
1761315158625656600,8.224656494140625,-0.06347206295728683,-0.0854763894945383,0.08666443023532629
1761315158635637800,8.2346376953125,-0.07994096719920635,-0.06149882665555924,0.06321165845543146
1761315158645620200,8.2446201171875,-0.04171674274504184,-0.043007732403650877,0.018020736793801187
1761315158655601200,8.25460107421875,-0.05996434709727764,-0.05330894432868808,0.0023440058428794144
1761315158665583000,8.2645830078125,-0.08247194698154926,-0.08046816941108555,-0.020120047160610555
1761315158675564300,8.274564208984375,-0.07671089923679829,-0.08995112375579774,-0.05230075366683304
1761315158685545200,8.284545166015626,-0.0669715955108404,-0.0944381695093587,-0.05633380857519805
1761315158695527400,8.29452734375,-0.04708323821425438,-0.08983641133494674,-0.04050619791150093
1761315158705508400,8.30450830078125,-0.03165069128274917,-0.08645316210482269,-0.009681070732697843
1761315158715490300,8.314490234375,-0.02096212400794029,-0.07683094541989266,-0.019842764589190483
1761315158725471200,8.32447119140625,-0.015745266142487526,-0.0749402363024652,-0.007770707066729664
1761315158735453200,8.334453125,-0.03736322371065617,-0.10482421017363668,-0.005600231159850954
1761315158745434400,8.344434326171875,-0.0356669411867857,-0.12466653637140988,-0.07118716737926006
1761315158755416000,8.354416015625,-0.013121931901574135,-0.12827248844150452,-0.12958017350658774
1761315158765397200,8.364397216796876,-0.05025251590013504,-0.13542298125065863,-0.11135492711663246
1761315158775379200,8.374379150390626,-0.10725509058237075,-0.14307196163386104,-0.07248385612629353
1761315158785360400,8.3843603515625,-0.15280629692375658,-0.1250345294335857,-0.049970776349306106
1761315158795342000,8.394342041015625,-0.15933073025643824,-0.0895242766458541,-0.05682553761489689
1761315158805323300,8.4043232421875,-0.15060674105286598,-0.06984620109908282,-0.06954809493534267
1761315158815304200,8.41430419921875,-0.12619944502711294,-0.07975655054301023,-0.07512216874063014
1761315158825286100,8.4242861328125,-0.09412731346189976,-0.08935553248282521,-0.07896116238161921
1761315158835267300,8.434267333984375,-0.05710895766615867,-0.07345619002347811,-0.06206256148554384
1761315158845249300,8.444249267578124,-0.03669862232208252,-0.05511699839765206,-0.012401143346354365
1761315158855230200,8.454230224609375,-0.021150340056419373,-0.02412148308800533,-0.000604103372991085
1761315158865212200,8.464212158203125,0.02070727246403694,0.0012999766826629637,-0.011256649486348032
1761315158875193300,8.474193359375,0.0936024128049612,-0.017458317138068377,-0.019654329345002768
1761315158885175300,8.48417529296875,0.18578677550554273,-0.0672088200665079,-0.02999116057269275
1761315158895156200,8.49415625,0.2703594941586256,-0.12834533448200672,-0.04239902592077851
1761315158905138200,8.50413818359375,0.2835948233067989,-0.16493417628668247,-0.0595246405057609
1761315158915119000,8.514119140625,0.20078502267301082,-0.17894355854727326,-0.050356414666026826
1761315158925101300,8.524101318359374,0.041050972312688824,-0.15124102036841214,-0.034319252904877064
1761315158935082200,8.534082275390626,-0.10196049130558967,-0.06691515261586756,-0.017583587485551833
1761315158945063400,8.5440634765625,-0.2153904711306095,0.003654485653247684,0.0159172617085278
1761315158955045000,8.554045166015625,-0.2907429414957762,0.027711890529096124,0.060835211647674435
1761315158965026000,8.564026123046874,-0.30313480555713174,0.021518826308939604,0.09170805042572319
1761315158975008300,8.57400830078125,-0.23736498705148695,-0.01145706742927432,0.07286065354943275
1761315158984989200,8.5839892578125,-0.1524479850053787,-0.06279202653756365,0.025291020057722925
1761315158994971400,8.593971435546875,-0.09701134446561335,-0.14703852717727423,-0.00008365969546139239
1761315159004952300,8.603952392578124,-0.06133621997237205,-0.2130228286838159,-0.001357698219269514
1761315159014934300,8.613934326171876,-0.027871172744035718,-0.21861692236382513,-0.009980419005453586
1761315159024915200,8.623915283203125,-0.013019640570878982,-0.19341113290414214,-0.027151407102122903
1761315159034897400,8.6338974609375,-0.012103110247850418,-0.16376357987103982,-0.014199571070447564
1761315159044878300,8.64387841796875,-0.017559622088074683,-0.16002324256524442,0.010527093102782964
1761315159054860300,8.6538603515625,-0.053336453390121455,-0.16737660100273788,0.024805282367393374
1761315159064841200,8.66384130859375,-0.0854243670463562,-0.1455171810952015,0.00449899191968143
1761315159074822100,8.673822265625,-0.09555646948218345,-0.11129784490084275,-0.014043795986846089
1761315159084804400,8.683804443359374,-0.12030629533529281,-0.08923154077697545,-0.00655680123232305
1761315159094785300,8.693785400390626,-0.12668342915177344,-0.08355093785729259,0.036948505429923534
1761315159104767200,8.703767333984375,-0.1310153208762407,-0.08802874085847288,0.053858796763792634
1761315159114748200,8.713748046875,-0.13413959037661552,-0.10240388769153505,0.03148030315190554
1761315159124730400,8.72373046875,-0.10235153644978999,-0.11270825968803837,0.01996602564267814
1761315159134711300,8.733711181640626,-0.06449088461101055,-0.12437840361241251,0.009587401099875568
1761315159144693200,8.743693359375,-0.006407528954744338,-0.115612054838147,-0.0033634850837290283
1761315159154674200,8.753674072265625,0.067947747066617,-0.109920656529814,-0.019565116691589356
1761315159164656000,8.76365625,0.12110007606148719,-0.11139330463195218,-0.023775062536820768
1761315159174637300,8.77363720703125,0.11341536677777767,-0.11985816797530278,-0.04000394747778773
1761315159184618200,8.7836181640625,0.07348258484005928,-0.10798409897666424,-0.0378643781658262
1761315159194600400,8.793600341796875,0.028525252738595006,-0.09674608112554997,-0.024953970123082397
1761315159204581400,8.803581298828124,0.004439443752169609,-0.07140952315935864,-0.0009875497326254845
1761315159214563000,8.81356298828125,-0.024881927800178526,-0.061837904150504615,0.01842391076721251
1761315159224544300,8.823544189453125,-0.047844870236516,-0.046920065275486554,0.01761807427704334
1761315159234526200,8.833526123046875,-0.06068623163104057,-0.03331553748873994,0.007423647194728255
1761315159244507400,8.84350732421875,-0.01806640256643295,-0.041166013527102766,0.02127447789274156
1761315159254489000,8.853489013671876,0.024092823249101638,-0.05803144280593842,0.02629559399038553
1761315159264470300,8.86347021484375,0.002841360905766487,-0.08254649178879335,0.034859278065711256
1761315159274452200,8.8734521484375,-0.03187047151327133,-0.06726263261297717,0.023332652531564236
1761315159284433200,8.88343310546875,-0.05021276841163635,-0.031702695464622226,-0.01725406327024102
1761315159294415400,8.893415283203124,-0.04053191687464714,-0.021933654187526554,-0.042472967939823865
1761315159304396000,8.90339599609375,-0.027727964881062505,-0.04151464430168271,-0.06633468584679067
1761315159314378200,8.913378173828125,-0.026035189488530158,-0.06819695432102307,-0.07326653093658388
1761315159324359200,8.923359130859374,-0.03901858970224857,-0.08797719333432615,-0.06930712578631937
1761315159334340400,8.93334033203125,-0.05319207648336887,-0.0845238380100578,-0.037380101780220866
1761315159344322300,8.943322265625,-0.10103870028555392,-0.09133618490602821,-0.027182752088457343
1761315159354303200,8.95330322265625,-0.14988427199721335,-0.06691785602960736,0.008548778767138719
1761315159364285200,8.96328515625,-0.14220657697618005,0.008158683471009134,0.09001951281689106
1761315159374266000,8.97326611328125,-0.0876069717824459,0.02822318278579041,0.1107415444586426
1761315159384248300,8.983248291015625,-0.032574235868453975,-0.02801295583490282,0.13269224111251532
1761315159394229200,8.993229248046875,-0.029559856483340263,-0.07976389359924942,0.1303422439202666
1761315159404211200,9.003211181640625,-0.04444353736042976,-0.08680208514034747,0.08882190053015947
1761315159414192000,9.013192138671876,-0.04152852669656276,-0.0916635902294889,0.019957915401458737
1761315159424174300,9.02317431640625,-0.07124328148066997,-0.12166954651251434,-0.01744198705777526
1761315159434155300,9.0331552734375,-0.1278700085878372,-0.14407565878368914,-0.015874664675816892
1761315159444137200,9.04313720703125,-0.10515957960784435,-0.1501458455428481,0.0006247077696025371
1761315159454118100,9.0531181640625,0.001681084954738617,-0.2143050505140796,0.060747168038040394
1761315159464099000,9.06309912109375,-0.15590601650476454,-0.25184279054142533,-0.01260937926955521
1761315159474081300,9.073081298828125,-0.22528175054788588,-0.2189765859890729,0.01956394764780998
1761315159484062200,9.083062255859375,-0.31599954782724377,-0.18023268504235893,0.002285992045328021
1761315159494044400,9.09304443359375,-0.3743219729363918,-0.16964808959867805,0.061367638023942704
1761315159504025300,9.103025390625,-0.35389468645751476,-0.16664138206336646,0.11122465180046856
1761315159514007300,9.11300732421875,-0.2625204710960388,-0.14146631653551012,0.11627777047157287
1761315159523988200,9.12298828125,-0.14317980592250823,-0.14197306048125027,0.05955342820882797
1761315159533970400,9.132970458984374,-0.08485621176958083,-0.1961397176178172,0.014645122880861162
1761315159543951400,9.142951416015626,-0.06778408093750476,-0.25984734289664774,0.04457797739505768
1761315159553933000,9.15293310546875,-0.0300941094905138,-0.2808335053673014,-0.022337796275317668
1761315159563914200,9.162914306640625,-0.037456747213006014,-0.27822405352126806,-0.023657573636993764
1761315159573896200,9.172896240234374,-0.13822130673229693,-0.23986670420672743,0.036055063721537585
1761315159583877400,9.18287744140625,-0.23033611132800577,-0.20555599993448703,0.05406038375049829
1761315159593859000,9.192859130859375,-0.3038905923604965,-0.1723325794422999,0.05958579610846936
1761315159603840300,9.20284033203125,-0.3586977028250694,-0.08666307852845638,0.0887255274835974
1761315159613821200,9.2128212890625,-0.3890384805530309,-0.011671842691116034,0.06821406985260546
1761315159623803100,9.22280322265625,-0.4227911125510931,-0.006347907721996307,0.04302563338652253
1761315159633784300,9.232784423828125,-0.4695405887663364,-0.04789937690272927,0.02672010301277041
1761315159643766000,9.24276611328125,-0.45307811426520345,-0.09153758922964333,0.02579553551375866
1761315159653747000,9.252746826171874,-0.36208033100068565,-0.097323479154706,0.017897914131730794
1761315159663729000,9.26272900390625,-0.22489538157880304,-0.0990280545828864,0.013490692148730159
1761315159673709800,9.272709716796875,-0.08013152133524418,-0.10533559376187622,-0.021236118643730876
1761315159683692000,9.282692138671875,0.04022562740445137,-0.14468144265711308,-0.06076258480288088
1761315159693673000,9.2926728515625,0.09526128592789172,-0.2042980722952634,-0.04196319178678095
1761315159703654700,9.302654541015626,0.11375205138623713,-0.21887796618649735,0.016045564263314008
1761315159713635800,9.3126357421875,0.12741525055766104,-0.17735952249253167,0.03547280685417354
1761315159723617800,9.32261767578125,0.15293430721759796,-0.13715997937740756,0.0420465592212975
1761315159733599000,9.332598876953124,0.19230887075066566,-0.12313625806421041,0.02530577923543751
1761315159743580000,9.342579833984376,0.24087270291149615,-0.13752711392305791,0.004453033886104822
1761315159753561900,9.352561767578125,0.2588163558810949,-0.16742420300412922,-0.0000339022696018219
1761315159763542800,9.362542724609375,0.23525778563916683,-0.14849641610169784,-0.000845657043904066
1761315159773524700,9.372524658203124,0.21176701993644237,-0.10969002611171454,0.026608240136131642
1761315159783506000,9.382505859375,0.15596622225940227,-0.10488193171024322,0.036738735136762256
1761315159793488000,9.39248779296875,0.0784656339496374,-0.11257749118153006,0.04859853814803063
1761315159803469000,9.402468994140625,0.02536766549050808,-0.09453112675612792,0.04290829061716795
1761315159813450800,9.41245068359375,0.007332827106118202,-0.07492522139642387,0.032334362697973844
1761315159823432000,9.422431884765626,-0.015045593440532683,-0.07936364223528652,0.024517040010541676
1761315159833414000,9.432413818359375,-0.00372223539352417,-0.08747419398194178,0.010375482737645506
1761315159843394800,9.442394775390625,0.055199909174442285,-0.10891118722632527,0.004738353633508086
1761315159853376800,9.452376708984374,0.13321136961579322,-0.10893204735126345,-0.006552563448622822
1761315159863357700,9.462357666015626,0.14829144984781742,-0.12227881925096734,-0.00867408564724028
1761315159873339000,9.4723388671875,0.07098842993676661,-0.11611733747916296,0.0009310703050345181
1761315159883320800,9.48232080078125,-0.003706453302502632,-0.11237754816263913,0.01914835258424282
1761315159893302000,9.492302001953124,-0.06901508403718472,-0.12817726617241276,0.011299173453822732
1761315159903283700,9.50228369140625,-0.14332768996059894,-0.15565649872310458,-0.00523227463029325
1761315159913264600,9.5122646484375,-0.22111410947442053,-0.1790984933806583,-0.002765373060107231
1761315159923246800,9.522246826171875,-0.2020394066482782,-0.18036518884822725,-0.002401946575194597
1761315159933227800,9.532227783203124,-0.12375380544066428,-0.15855558116547763,-0.022395956203341484
1761315159943210000,9.5422099609375,-0.0473830979436636,-0.15967194490954278,-0.023426029903441666
1761315159953191000,9.55219091796875,-0.06329203021526336,-0.16216463850811122,0.017666443463414908
1761315159963172900,9.5621728515625,-0.13813012131750582,-0.13346585583351553,0.0546970742188394
1761315159973153800,9.57215380859375,-0.16926584881544113,-0.05937098431400954,0.01930178958028555
1761315159983136000,9.582135986328124,-0.1574713661253452,-0.015312610346265137,-0.023620310366526245
1761315159993117000,9.592116943359375,-0.15335457845628261,-0.051126796250324694,-0.009622253217548131
1761315160003099000,9.602098876953125,-0.16043781471550464,-0.12629932520501314,-0.007916106886789202
1761315160013079800,9.612079833984374,-0.10694061780571937,-0.16589671944221482,-0.02463452891036868
1761315160023060700,9.622060791015626,-0.05734451998770237,-0.18184001064114272,-0.04708323821425438
1761315160033043000,9.63204296875,0.00767184980213642,-0.19154263561852275,-0.05787424295023083
1761315160043024000,9.64202392578125,0.0035550621330738066,-0.20242369325812906,-0.06706731097027659
1761315160053005800,9.652005859375,-0.08993103081583977,-0.2114684571149759,-0.07281060386262833
1761315160062986800,9.66198681640625,-0.198472069555521,-0.1846013468469493,-0.07507898718602955
1761315160072969000,9.671968994140625,-0.24661855308711528,-0.11109481487572193,-0.0357790232591331
1761315160082950000,9.681949951171875,-0.21155542301237582,-0.011896901884954422,-0.023795301607251167
1761315160092932000,9.69193212890625,-0.13747721036672592,0.005726670551113784,-0.0066793316334486
1761315160102913000,9.7019130859375,-0.051208209189772605,-0.029801885078288612,-0.00010813654959201812
1761315160112894700,9.711894775390626,0.024262919119000432,-0.057886864969786254,-0.0050119098778814075
1761315160122876000,9.7218759765625,0.0789279907643795,-0.092669022678677,-0.040479529100283976
1761315160132857900,9.73185791015625,0.11002572433948517,-0.1473341491229832,-0.0680414897646755
1761315160142839000,9.741839111328124,0.0697521661400795,-0.19753656053738666,-0.08353058918900787
1761315160152820700,9.75182080078125,-0.0659872606486082,-0.21983101086132228,-0.09930654273070394
1761315160162802000,9.761802001953125,-0.17334288899600506,-0.18698075279677287,-0.10421258108131587
1761315160172783900,9.771783935546875,-0.2455494625508785,-0.11701662440644577,-0.13287278531119226
1761315160182764800,9.781764892578124,-0.2316331654012203,-0.06194096266617998,-0.12292334596589206
1761315160192746000,9.79174609375,-0.19909692345559596,-0.05332339297914877,-0.08504705816656351
1761315160202727700,9.801727783203125,-0.10938567287027835,-0.07241512000532821,-0.009376680958643555
1761315160212708900,9.811708984375,0.06492226176559925,-0.08107097587613389,0.03304886764287948
1761315160222690800,9.82169091796875,0.22439269275367257,-0.10666899779010564,0.06138875387720763
1761315160232672000,9.831672119140626,0.31372692672014235,-0.1336459616407752,0.055552375873923296
1761315160242654000,9.841654052734375,0.2844932334512472,-0.15821781884478403,0.024903116718679664
1761315160252635000,9.851634765625,0.13707973548173905,-0.15921134166046977,0.0001657119557261467
1761315160262616800,9.861616943359374,-0.07200374445915221,-0.13530487129632382,-0.015779606803506614
1761315160272597800,9.87159765625,-0.20472294664382934,-0.10865147684421389,-0.0426352458294481
1761315160282580000,9.881580078125,-0.2731470790505409,-0.07829495355784892,-0.034593758997321124
1761315160292561000,9.891560791015625,-0.30334114178419114,-0.0699345369696617,0.009096329647302627
1761315160302542800,9.90154296875,-0.2612263396322727,-0.07952694303821772,0.012021350248530507
1761315160312523800,9.911523681640626,-0.19360300221443175,-0.06090882487315684,0.01745798834450543
1761315160322506000,9.921506103515625,-0.13852642715871333,-0.05004873695634305,-0.01535955476053059
1761315160332487000,9.93148681640625,-0.08654957168400287,-0.08111549087129533,-0.021315248294547198
1761315160342467800,9.9414677734375,-0.012443301987648009,-0.09411759578548372,-0.022255963210761547
1761315160352449800,9.95144970703125,0.038244098198413845,-0.0972215531501919,-0.0031195202600210904
1761315160362430700,9.9614306640625,0.0657826779872179,-0.09110889722248539,0.020961466420814395
1761315160372413000,9.971412841796875,0.05904606320858001,-0.09328443289697169,0.052608358311280606
1761315160382393900,9.981393798828124,0.026565935364365575,-0.0841171386389993,0.058194049489125606
1761315160392376000,9.9913759765625,-0.023158757269382477,-0.07563371672565117,0.041089331561699506
1761315160402356700,10.001356689453125,-0.07770926262438296,-0.05937189762946218,0.02176635306291282
1761315160412339000,10.0113388671875,-0.08374503565728664,-0.0336855581112206,0.020682064957544207
1761315160422319900,10.02131982421875,-0.06783142721056938,-0.012034173197485506,0.04145670356936752
1761315160432301800,10.0313017578125,-0.07400397836565971,-0.022788754913210866,0.04363879684880376
1761315160442283000,10.041282958984375,-0.11290215655863284,-0.05532510645668953,0.03758278474546969
1761315160452264700,10.0512646484375,-0.12771101863384246,-0.0845743991535157,0.01758789833448827
1761315160462246000,10.061245849609374,-0.1340448978304863,-0.10761599631663411,0.01415302851498127
1761315160472227800,10.071227783203126,-0.10902151573300362,-0.10807217911891638,0.04381035402342677
1761315160482209000,10.081208984375,-0.06930033071935177,-0.08865929384697228,0.08406162732578813
1761315160492190000,10.09118994140625,-0.040943420284986494,-0.06313097616834566,0.09516666644699871
1761315160502171600,10.101171630859374,0.012615151423215865,-0.062393181679397815,0.09214132727645337
1761315160512152800,10.11115283203125,0.04026362132728099,-0.07385896213809028,0.09366407986432314
1761315160522134800,10.121134765625,-0.0009878419935703277,-0.08397643326036631,0.08089242270514369
1761315160532116000,10.131115966796875,-0.04768880289196968,-0.08979670037906616,0.03646028352156281
1761315160542098000,10.141097900390625,-0.06398702674210072,-0.09129417239520699,-0.011034969559684395
1761315160552078800,10.151078857421876,-0.0591249736636877,-0.14534118520747868,-0.03407726084254682
1761315160562060800,10.161060791015625,-0.04757774373292923,-0.2082400148540735,-0.018234525674954056
1761315160572042000,10.1710419921875,-0.037298341780900954,-0.2165462901022285,-0.002177782430499792
1761315160582024000,10.18102392578125,-0.024678514182567595,-0.17651329919304698,0.00872296629026532
1761315160592004900,10.1910048828125,-0.023540450063347814,-0.13966960584446786,0.02231207731217146
1761315160601986800,10.20098681640625,-0.07580313674211502,-0.14731409271564333,0.057598494748771184
1761315160611967700,10.2109677734375,-0.1555687473744154,-0.15956819227412342,0.07357179749347269
1761315160621950000,10.220949951171875,-0.20468319915533065,-0.15661730657927692,0.08679324424676596
1761315160631931000,10.230930908203124,-0.21027590459585188,-0.10422376006245612,0.07997187379412353
1761315160641912800,10.240912841796876,-0.19125439326167107,-0.08164941508490592,0.052602293896675104
1761315160651893800,10.250893798828125,-0.1471025323241949,-0.09941376596484333,0.03850742530971765
1761315160661874700,10.260874755859374,-0.1235135669440031,-0.1402302719345316,0.02678293911591172
1761315160671857000,10.27085693359375,-0.08943535625338554,-0.15484613218829035,0.018827523132041096
1761315160681837800,10.280837890625,-0.07730769608616829,-0.1375617285787128,0.005868892033398151
1761315160691820000,10.290820068359375,-0.0871364316612482,-0.12175985514447092,0.007156666821613907
1761315160701800700,10.30080078125,-0.08971417319476604,-0.10352772235600277,0.01967464148066938
1761315160711783000,10.310782958984374,-0.07670914567112923,-0.09899718452058733,0.024468378563225267
1761315160721763800,10.320763916015625,-0.05693477014303207,-0.09590060674473642,0.028419454276561736
1761315160731745800,10.330745849609375,-0.04274316318333149,-0.09414462992288172,0.02177344039082527
1761315160741727000,10.34072705078125,-0.013080430847406387,-0.08699035598775372,0.0009391074810177087
1761315160751708700,10.350708740234374,0.0005810147583484649,-0.08785153939435258,0.00023519699536263941
1761315160761689900,10.36068994140625,-0.01634673916697502,-0.08029102274589241,0.05119206177257001
1761315160771671800,10.370671875,-0.021409867775440215,-0.06199968884978443,0.08314071308858692
1761315160781653000,10.380653076171875,-0.029082886621356007,-0.05547967596389353,0.06370309523418545
1761315160791634700,10.390634765625,-0.04955108963251113,-0.07103214121432974,0.008481120358407496
1761315160801615600,10.40061572265625,-0.06620762540102004,-0.08547047121040523,-0.03569821310788393
1761315160811597800,10.410597900390625,-0.044159459722042084,-0.1068992811483331,-0.08197912196330726
1761315160821578800,10.420578857421875,-0.026585224586725232,-0.15048417411912232,-0.0842024971012026
1761315160831561000,10.43056103515625,-0.060545361855626104,-0.14441038889707997,-0.09697196230329573
1761315160841542000,10.4405419921875,-0.09356208079457283,-0.07372662272900342,-0.10128419947922229
1761315160851522800,10.450522705078125,-0.08567512693703173,0.012134984957147389,-0.05739047802127897
1761315160861504800,10.4605048828125,-0.05431845016479492,0.04814241014467552,0.007858458415418863
1761315160871485700,10.470485595703124,0.027854806131124496,0.021013543667923656,0.07445793267823755
1761315160881468000,10.480468017578126,0.10588263318538665,-0.03146751673556864,0.08114552068337798
1761315160891448800,10.49044873046875,0.11493103203773498,-0.07775271817361935,0.04571085388250649
1761315160901430800,10.5004306640625,0.06147416713833809,-0.10765278466306626,0.008294438679888844
1761315160911411700,10.51041162109375,-0.057363809210062025,-0.09503955120230093,-0.014228212643042207
1761315160921394000,10.520393798828126,-0.18793197084069252,-0.03849189894702285,-0.005761193875223398
1761315160931374800,10.530374755859375,-0.2467261051148176,0.0287783507168293,-0.030971842173114418
1761315160941356800,10.540356689453125,-0.2083148336559534,0.06786704651322216,-0.06862440421916544
1761315160951337700,10.550337646484374,-0.14779635980725286,0.031748507367726414,-0.0632226913060993
1761315160961320000,10.56031982421875,-0.1016284828722477,-0.03409622127134353,-0.03072268971763551
1761315160971300900,10.57030078125,-0.07644669534265995,-0.09749324623104184,-0.0074624448351562015
1761315160981282800,10.58028271484375,-0.11788988184332846,-0.09289700448196381,0.018217939866334198
1761315160991263700,10.590263671875,-0.11469546971619128,-0.0633901933601126,0.036562757515348494
1761315161001244700,10.60024462890625,-0.08974456833302974,-0.038363011870346964,0.02509703185558319
1761315161011227000,10.610226806640625,-0.015452420675754546,-0.04509962664898485,-0.02492441523503512
1761315161021207800,10.620207763671875,0.029556349352002142,-0.10710388207603246,-0.047943837098963556
1761315161031190000,10.63018994140625,0.06924713922739029,-0.17984927521534264,-0.1037624992262572
1761315161041171000,10.6401708984375,0.1150169567555189,-0.20865893438588826,-0.10788747020177543
1761315161051153000,10.65015283203125,0.08905833963453769,-0.2012048189876601,-0.09980254608672112
1761315161061133800,10.6601337890625,0.06118073714971542,-0.1962821217631921,-0.09199187233578413
1761315161071115800,10.67011572265625,0.014313187512755393,-0.15361392351221292,-0.15710636873785405
1761315161081097000,10.680096923828126,-0.035593291428685184,-0.09863174874167889,-0.19312493637390435
1761315161091078700,10.69007861328125,-0.10419336492419243,-0.09766743375416845,-0.19079992749243974
1761315161101059800,10.700059814453125,-0.2106108356386423,-0.12215743962731211,-0.1566193158732727
1761315161111041800,10.710041748046875,-0.17949089023172854,-0.1672256482247263,-0.07175364215560256
1761315161121023000,10.72002294921875,-0.19804127692282197,-0.14630202959626912,-0.03593717296291143
1761315161131005000,10.7300048828125,0.07906593793034553,-0.26509883368406445,0.07126607783436775
1761315161140985600,10.739985595703125,0.231585234606266,-0.38139983890075235,0.4384798992659896
1761315161150967800,10.7499677734375,0.14464812490940093,-0.23371135991476474,0.3345338601663708
1761315161160948700,10.75994873046875,0.0544020367950201,0.008177716965042055,0.13252367961257697
1761315161170931000,10.769930908203126,-0.08251286351382732,0.07454038679730146,0.12198694189861416
1761315161180911900,10.779911865234375,-0.1606307069391012,0.030177403859794137,0.09483020103424787
1761315161190893000,10.78989306640625,-0.25130641864240166,0.03441953494157642,0.07387585847396404
