time,seconds_elapsed,z,y,x
1761316153748832300,0.071832275390625,0.31671038269996643,-0.5475696921348572,0.01999618671834469
1761316153758814200,0.081814208984375,0.2734034061431885,-0.551085352897644,0.04070652648806572
1761316153768796200,0.091796142578125,0.20913386344909668,-0.5386044383049011,0.06861113011837006
1761316153778779100,0.101779052734375,0.1452358216047287,-0.5312857627868652,0.10306897759437561
1761316153788761000,0.111760986328125,0.10726472735404968,-0.5420933961868286,0.16091549396514893
1761316153798743300,0.121743408203125,0.14660285413265228,-0.63550865650177,0.22250139713287354
1761316153808725000,0.13172509765625,0.25641748309135437,-0.7971066236495972,0.2465907484292984
1761316153818707200,0.141707275390625,0.3445351719856262,-0.8802474141120911,0.27606239914894104
1761316153828690200,0.151690185546875,0.4200930595397949,-0.8464582562446594,0.3268672525882721
1761316153838672100,0.161672119140625,0.4764741361141205,-0.8268014788627625,0.41248857975006104
1761316153848654000,0.171654052734375,0.5183320641517639,-0.8918651342391968,0.4988093674182892
1761316153858636000,0.181635986328125,0.5872628092765808,-0.9849292039871216,0.5816249251365662
1761316153868618200,0.1916181640625,0.6155439615249634,-1.0256439447402954,0.6057614088058472
1761316153878601000,0.20160107421875,0.6013606190681458,-1.040096640586853,0.5889359712600708
1761316153888583200,0.211583251953125,0.5628558397293091,-1.0345215797424316,0.4888535737991333
1761316153898565000,0.221565185546875,0.4754440486431122,-0.9021899700164795,0.3237147331237793
1761316153908547000,0.231547119140625,0.3316975235939026,-0.5432369112968445,0.14654794335365295
1761316153918529000,0.241529052734375,0.22300565242767334,-0.26482072472572327,-0.037128906697034836
1761316153928512000,0.251511962890625,0.11441419273614883,-0.2098837047815323,-0.24464988708496094
1761316153938494200,0.261494140625,-0.011932728812098503,-0.24883686006069183,-0.4024365246295929
1761316153948476200,0.27147607421875,-0.16827332973480225,-0.3889444172382355,-0.4957830011844635
1761316153958458000,0.2814580078125,-0.34242263436317444,-0.4603922665119171,-0.5084445476531982
1761316153968440000,0.291440185546875,-0.49301478266716003,-0.3475032448768616,-0.43554240465164185
1761316153978423000,0.301423095703125,-0.5469065308570862,-0.2227000594139099,-0.3007851243019104
1761316153988405200,0.3114052734375,-0.510830819606781,-0.17499834299087524,-0.17287619411945343
1761316153998387200,0.32138720703125,-0.41239288449287415,-0.2973668575286865,-0.10619702190160751
1761316154008369200,0.331369140625,-0.332232803106308,-0.4491252303123474,-0.11691012233495712
1761316154018351000,0.34135107421875,-0.24208615720272064,-0.3920848071575165,-0.19457322359085083
1761316154028334000,0.351333984375,-0.1001705676317215,-0.11777043342590332,-0.3098633289337158
1761316154038316300,0.36131640625,0.08368135988712311,0.28056085109710693,-0.46187302470207214
1761316154048298200,0.37129833984375,0.27293330430984497,0.7110637426376343,-0.6574792861938477
1761316154058280200,0.3812802734375,0.41375118494033813,1.1013121604919434,-0.8914585113525391
1761316154068263200,0.39126318359375,0.49663060903549194,1.300892949104309,-1.1564126014709473
1761316154078245000,0.4012451171875,0.5606489777565002,1.2084376811981201,-1.4158556461334229
1761316154088227000,0.41122705078125,0.642717182636261,0.9698495268821716,-1.5804164409637451
1761316154098209000,0.421208984375,0.75873863697052,0.7566743493080139,-1.6498711109161377
1761316154108191200,0.431191162109375,0.9297332763671875,0.6675450205802917,-1.6340916156768799
1761316154118174000,0.441174072265625,1.1116814613342285,0.6131740808486938,-1.5895984172821045
1761316154128156200,0.45115625,1.1996651887893677,0.6119575500488281,-1.5294299125671387
1761316154138138000,0.46113818359375,1.153192400932312,0.6124213337898254,-1.4028661251068115
1761316154148120000,0.4711201171875,1.0207520723342896,0.4514561593532562,-1.2182917594909668
1761316154158102000,0.48110205078125,0.848658561706543,0.20098386704921722,-0.9882202744483948
1761316154168085000,0.4910849609375,0.5956041812896729,-0.0021966793574392796,-0.7065337300300598
1761316154178067200,0.501067138671875,0.32624784111976624,-0.2290208339691162,-0.47060105204582214
1761316154188049200,0.511049072265625,0.10406193882226944,-0.3902517855167389,-0.3502892851829529
1761316154198031000,0.521031005859375,-0.0251163337379694,-0.45265889167785645,-0.3503841459751129
1761316154208013000,0.531012939453125,-0.12995247542858124,-0.3818776607513428,-0.40641945600509644
1761316154217996000,0.54099609375,-0.26101920008659363,-0.3563673794269562,-0.4495328962802887
1761316154227978200,0.550978271484375,-0.40583470463752747,-0.46345576643943787,-0.4426228106021881
1761316154237960200,0.560960205078125,-0.5165385603904724,-0.675380527973175,-0.3957380950450897
1761316154247942100,0.570942138671875,-0.6027781367301941,-0.9778964519500732,-0.32139861583709717
1761316154257924000,0.580924072265625,-0.7119140625,-1.207562804222107,-0.34120839834213257
1761316154267907000,0.590906982421875,-0.8047041893005371,-1.3400225639343262,-0.4363756477832794
1761316154277889300,0.60088916015625,-0.8596255779266357,-1.3792346715927124,-0.5620071887969971
1761316154287871200,0.610871337890625,-0.8676563501358032,-1.368593692779541,-0.6694303154945374
1761316154297853200,0.620853271484375,-0.8343969583511353,-1.3978583812713623,-0.7184567451477051
1761316154307835100,0.630835205078125,-0.7194845080375671,-1.386796474456787,-0.7145765423774719
1761316154317818000,0.640818115234375,-0.481019526720047,-1.223730444908142,-0.7415432333946228
1761316154327800000,0.650800048828125,-0.022362733259797096,-0.7726031541824341,-0.9236589670181274
1761316154337782300,0.6607822265625,0.413339763879776,-0.28462687134742737,-0.8949398994445801
1761316154347764200,0.67076416015625,0.803180992603302,-0.08990319818258286,-0.8761102557182312
1761316154357747200,0.680747314453125,1.0452162027359009,-0.08822742849588394,-0.8505712151527405
1761316154367729200,0.690729248046875,1.1780909299850464,-0.12531140446662903,-0.7801199555397034
1761316154377711000,0.700711181640625,1.2078090906143188,-0.20258094370365143,-0.6484980583190918
1761316154387693000,0.710693115234375,1.0983128547668457,-0.16844934225082397,-0.4896317422389984
1761316154397675000,0.720675048828125,0.9211515784263611,0.09434156119823456,-0.2829250693321228
1761316154407658000,0.730657958984375,0.7125900983810425,0.39377325773239136,0.04744431748986244
1761316154417640200,0.74064013671875,0.5154892802238464,0.6795147657394409,0.504909098148346
1761316154427622100,0.7506220703125,0.4349707365036011,0.8967258930206299,0.9988061785697937
1761316154437604000,0.76060400390625,0.5372057557106018,0.7747347354888916,1.448965311050415
1761316154447586000,0.7705859375,0.8797604441642761,0.5316891074180603,1.7699729204177856
1761316154457569000,0.780569091796875,1.2358617782592773,0.36605796217918396,1.9181687831878662
1761316154467551200,0.79055126953125,1.4097307920455933,0.300115704536438,1.8279904127120972
1761316154477533200,0.800533203125,1.3003816604614258,0.4426800012588501,1.5784426927566528
1761316154487515100,0.81051513671875,0.970170259475708,0.6897894144058228,1.319617509841919
1761316154497497000,0.8204970703125,0.7147159576416016,0.9298840761184692,1.1824665069580078
1761316154507480000,0.83047998046875,0.6744465827941895,1.0894415378570557,1.1915425062179565
1761316154517462300,0.840462158203125,0.7120505571365356,1.1212999820709229,1.3128433227539062
1761316154527444200,0.8504443359375,0.7282857298851013,1.0492521524429321,1.5007312297821045
1761316154537426200,0.86042626953125,0.6900746822357178,0.862724244594574,1.6435351371765137
1761316154547408100,0.870408203125,0.5871632099151611,0.5787723660469055,1.6601189374923706
1761316154557391000,0.88039111328125,0.4155302941799164,0.2155686318874359,1.4988572597503662
1761316154567373000,0.890373046875,0.18898212909698486,-0.1413671225309372,1.1826494932174683
1761316154577355800,0.900355712890625,-0.06148787960410118,-0.39116498827934265,0.727744460105896
1761316154587338000,0.910337890625,-0.27748915553092957,-0.5024401545524597,0.15964534878730774
1761316154597320000,0.92031982421875,-0.4216901957988739,-0.4341472089290619,-0.43765023350715637
1761316154607303000,0.930302978515625,-0.5028181076049805,-0.2602396011352539,-0.9659252762794495
1761316154617285000,0.94028515625,-0.5103697776794434,-0.07524435967206955,-1.347862720489502
1761316154627266800,0.950266845703125,-0.45591267943382263,0.07589589059352875,-1.5454682111740112
1761316154637249000,0.9602490234375,-0.38870659470558167,0.19754961133003235,-1.535002589225769
1761316154647231000,0.97023095703125,-0.33759230375289917,0.25845158100128174,-1.3275940418243408
1761316154657214000,0.9802138671875,-0.30788230895996094,0.254997193813324,-0.9869516491889954
1761316154667196000,0.99019580078125,-0.3260432183742523,0.18377070128917694,-0.5509908199310303
1761316154677177900,1.000177734375,-0.3669309914112091,0.07662773132324219,-0.05722503364086151
1761316154687160000,1.01016015625,-0.41989460587501526,-0.061249710619449615,0.43382564187049866
1761316154697141800,1.020141845703125,-0.4789153039455414,-0.18866917490959167,0.8663384318351746
1761316154707125000,1.030125,-0.5113207101821899,-0.296938955783844,1.1706243753433228
1761316154717107000,1.04010693359375,-0.5104590654373169,-0.36385923624038696,1.3028713464736938
1761316154727089000,1.0500888671875,-0.4833153188228607,-0.3737611472606659,1.291930079460144
1761316154737070800,1.06007080078125,-0.4249333441257477,-0.37070366740226746,1.1683340072631836
1761316154747053800,1.0700537109375,-0.34703004360198975,-0.3777804970741272,0.9902343153953552
1761316154757036000,1.0800361328125,-0.2699034810066223,-0.39984455704689026,0.7951593399047852
1761316154767017700,1.090017822265625,-0.2239716798067093,-0.4771880805492401,0.6266970634460449
1761316154777000000,1.1,-0.19443833827972412,-0.5756368041038513,0.498735636472702
1761316154786982000,1.10998193359375,-0.1715010553598404,-0.6706176400184631,0.42517220973968506
1761316154796964900,1.11996484375,-0.140886589884758,-0.7344544529914856,0.3925020098686218
1761316154806947000,1.129947021484375,-0.0916772335767746,-0.738090991973877,0.3789268136024475
1761316154816928800,1.1399287109375,-0.021207861602306366,-0.6515965461730957,0.38304221630096436
1761316154826911000,1.149910888671875,0.04630433768033981,-0.514611005783081,0.3733901083469391
1761316154836893000,1.159892822265625,0.09439250081777573,-0.352023720741272,0.34124627709388733
1761316154846876000,1.1698759765625,0.13053293526172638,-0.1848517507314682,0.29448676109313965
1761316154856858000,1.179858154296875,0.16516909003257751,-0.06093334034085274,0.25258344411849976
1761316154866839800,1.18983984375,0.18779504299163818,-0.004595497623085976,0.22541441023349762
1761316154876822000,1.199822021484375,0.18751703202724457,0.00010442174971103668,0.23642553389072418
1761316154886804000,1.209803955078125,0.17744682729244232,-0.039863500744104385,0.2632209062576294
1761316154896787000,1.219786865234375,0.19073882699012756,-0.07488303631544113,0.305460125207901
1761316154906769000,1.229768798828125,0.22276386618614197,0.004080488812178373,0.3653322458267212
1761316154916750800,1.239750732421875,0.2673562169075012,0.2303149700164795,0.40497756004333496
1761316154926732800,1.24973291015625,0.2716745138168335,0.5257630944252014,0.3469539284706116
1761316154936715000,1.259715087890625,0.25529274344444275,0.9133825302124023,0.33263713121414185
1761316154946698000,1.269697998046875,0.33292415738105774,1.3138465881347656,0.38808733224868774
1761316154956680000,1.279679931640625,0.5517638921737671,1.488032579421997,0.3811560571193695
1761316154966662000,1.289661865234375,0.8009337782859802,1.3125278949737549,0.18665474653244019
1761316154976643800,1.299643798828125,0.8517634272575378,0.5681008100509644,-0.3192113935947418
1761316154986625800,1.309625732421875,0.6400916576385498,-0.5508432984352112,-1.0820826292037964
1761316154996609000,1.319609130859375,0.4831624925136566,-1.6105889081954956,-1.817281723022461
1761316155006590700,1.3295908203125,0.4928731918334961,-2.107328414916992,-2.102839469909668
1761316155016573000,1.339572998046875,0.5267102122306824,-1.8017162084579468,-1.517710566520691
1761316155026555000,1.349554931640625,0.6355637311935425,-1.0874428749084473,-0.174857959151268
1761316155036536800,1.359536865234375,0.9088461995124817,-0.3286799192428589,1.3780136108398438
1761316155046520000,1.36952001953125,1.2572622299194336,0.29467660188674927,2.4351441860198975
1761316155056501800,1.379501708984375,1.545946717262268,0.7521474361419678,2.6887567043304443
1761316155066484000,1.38948388671875,1.5991852283477783,1.0221989154815674,2.217986583709717
1761316155076466000,1.3994658203125,1.3760545253753662,1.1062402725219727,1.371032953262329
1761316155086447900,1.40944775390625,0.935411810874939,1.0366816520690918,0.4748048484325409
1761316155096430800,1.419430908203125,0.42642244696617126,0.8126590251922607,-0.2653420865535736
1761316155106412800,1.429412841796875,0.05521242693066597,0.5062021613121033,-0.740401566028595
1761316155116395000,1.43939501953125,-0.1177268922328949,0.23433750867843628,-0.9523512125015259
1761316155126377000,1.449376953125,-0.16712427139282227,0.005295544862747192,-0.9745031595230103
1761316155136359000,1.45935888671875,-0.19322161376476288,-0.1783711165189743,-0.8814894556999207
1761316155146342000,1.469341796875,-0.23668281733989716,-0.31238189339637756,-0.7208502292633057
1761316155156323800,1.47932373046875,-0.2802920937538147,-0.35761719942092896,-0.5144878029823303
1761316155166305800,1.489305908203125,-0.3418002128601074,-0.3105676770210266,-0.2891228497028351
1761316155176288000,1.4992880859375,-0.46063148975372314,-0.1854114532470703,-0.057637348771095276
1761316155186270000,1.50927001953125,-0.6387024521827698,0.00014030374586582184,0.15936368703842163
1761316155196253000,1.5192529296875,-0.8363168835639954,0.18657982349395752,0.360462486743927
1761316155206235000,1.52923486328125,-1.0294482707977295,0.33584627509117126,0.5176177620887756
1761316155216216800,1.539216796875,-1.1815714836120605,0.36951354146003723,0.6499159932136536
1761316155226198800,1.54919873046875,-1.2472738027572632,0.3163427412509918,0.7709143161773682
1761316155236180700,1.5591806640625,-1.1833735704421997,0.18419381976127625,0.8718487620353699
1761316155246164000,1.5691640625,-0.991187572479248,0.028271066024899483,0.9765578508377075
1761316155256146000,1.57914599609375,-0.7373566627502441,-0.16367504000663757,1.06268310546875
1761316155266128000,1.5891279296875,-0.49058711528778076,-0.3884037435054779,1.1131691932678223
1761316155276109800,1.59910986328125,-0.309277206659317,-0.6418328881263733,1.1056761741638184
1761316155286091800,1.609091796875,-0.21574166417121887,-0.8694740533828735,1.0518605709075928
1761316155296074800,1.61907470703125,-0.19328173995018005,-1.0210132598876953,0.9396347403526306
1761316155306057000,1.629056884765625,-0.20990119874477386,-1.0755231380462646,0.7594034671783447
1761316155316039000,1.639038818359375,-0.2421877533197403,-1.0113627910614014,0.5361160635948181
1761316155326020900,1.649020751953125,-0.27085456252098083,-0.8659120798110962,0.3183400630950928
1761316155336002800,1.6590029296875,-0.304042249917984,-0.7294945120811462,0.1293974071741104
1761316155345985800,1.66898583984375,-0.3246905505657196,-0.5824919939041138,-0.013626065105199814
1761316155355968000,1.678968017578125,-0.3128769099712372,-0.43652069568634033,-0.09849712997674942
1761316155365950000,1.688949951171875,-0.27913838624954224,-0.31279075145721436,-0.10116614401340485
1761316155375932000,1.698931884765625,-0.23691435158252716,-0.23468288779258728,-0.03980174660682678
1761316155385913900,1.708913818359375,-0.2095503807067871,-0.21119141578674316,0.04969724640250206
1761316155395896800,1.718896728515625,-0.2131137251853943,-0.2781293988227844,0.12242764979600906
1761316155405878800,1.728878662109375,-0.2493700087070465,-0.3955031633377075,0.1778395026922226
1761316155415861000,1.738861083984375,-0.29530346393585205,-0.5340926051139832,0.18221844732761383
1761316155425843000,1.748843017578125,-0.31408965587615967,-0.6008926630020142,0.13767708837985992
1761316155435825000,1.758824951171875,-0.30852508544921875,-0.5461453199386597,0.07507354021072388
1761316155445807900,1.768807861328125,-0.2765756845474243,-0.3654745817184448,0.06718658655881882
1761316155455789800,1.778789794921875,-0.15449419617652893,0.01333649642765522,0.14429713785648346
1761316155465772000,1.78877197265625,0.1815570592880249,0.6877927184104919,0.17372293770313263
1761316155475753700,1.798753662109375,0.6375079154968262,1.0949937105178833,-0.08610136806964874
1761316155485736000,1.80873583984375,0.9716843366622925,0.7228471040725708,-0.7225683927536011
1761316155495719000,1.818718994140625,1.0337295532226562,-0.2228434979915619,-1.7180498838424683
1761316155505700900,1.828700927734375,0.9033441543579102,-1.0472724437713623,-2.5711896419525146
1761316155515682800,1.838682861328125,0.708995521068573,-1.1488126516342163,-2.68520188331604
1761316155525664800,1.848664794921875,0.5533678531646729,-0.5382964015007019,-1.8489327430725098
1761316155535647000,1.85864697265625,0.6010569930076599,0.3068675100803375,-0.42323654890060425
1761316155545630000,1.8686298828125,0.926882803440094,0.9464772939682007,0.8270746469497681
1761316155555612000,1.87861181640625,1.3224375247955322,1.3364921808242798,1.421506404876709
1761316155565593900,1.88859375,1.6488984823226929,1.5107595920562744,1.3696634769439697
1761316155575575800,1.898575927734375,1.7816375494003296,1.4262728691101074,0.8900163173675537
1761316155585557800,1.908557861328125,1.6927878856658936,1.1311341524124146,0.28617197275161743
1761316155595540700,1.918540771484375,1.4735932350158691,0.690483570098877,-0.23066329956054688
1761316155605522700,1.928522705078125,1.2423237562179565,0.2545238733291626,-0.581155002117157
1761316155615504600,1.938504638671875,1.0584826469421387,-0.04998261481523514,-0.7862719297409058
1761316155625486600,1.948486572265625,0.9283875226974487,-0.20553359389305115,-0.9115699529647827
1761316155635468800,1.95846875,0.818406879901886,-0.2537808418273926,-1.0039763450622559
1761316155645451500,1.968451416015625,0.6829853653907776,-0.22201785445213318,-1.0797182321548462
1761316155655433700,1.978433837890625,0.5479140281677246,-0.08741755038499832,-1.1003972291946411
1761316155665415700,1.988415771484375,0.4116770625114441,0.10461314767599106,-1.0557721853256226
1761316155675397600,1.998397705078125,0.2627851068973541,0.29961854219436646,-0.9251490235328674
1761316155685379800,2.0083798828125,0.09355800598859787,0.5015774965286255,-0.7182855606079102
1761316155695362600,2.018362548828125,-0.08299364149570465,0.6536605954170227,-0.4700010120868683
1761316155705344800,2.0283447265625,-0.2938467562198639,0.6881730556488037,-0.24726541340351105
1761316155715326500,2.038326416015625,-0.5271617770195007,0.7176027894020081,-0.10111874341964722
1761316155725308700,2.04830859375,-0.7452017068862915,0.7096450328826904,-0.017342621460556984
1761316155735290600,2.05829052734375,-0.9556546807289124,0.5922778844833374,0.04555283859372139
1761316155745273600,2.068273681640625,-1.0500911474227905,0.4738604426383972,0.13051380217075348
1761316155755255800,2.078255859375,-1.0124415159225464,0.28673040866851807,0.21350911259651184
1761316155765237500,2.088237548828125,-0.8406880497932434,0.05915263295173645,0.31005266308784485
1761316155775219700,2.0982197265625,-0.6387166976928711,-0.11500672996044159,0.3787214457988739
1761316155785201700,2.10820166015625,-0.44624659419059753,-0.1929209679365158,0.3665923476219177
1761316155795184600,2.1181845703125,-0.2913762927055359,-0.2172122299671173,0.27072787284851074
1761316155805166800,2.128166748046875,-0.1980050653219223,-0.23988744616508484,0.13257719576358795
1761316155815148500,2.1381484375,-0.15882380306720734,-0.25827428698539734,-0.009382018819451332
1761316155825130800,2.148130859375,-0.1534934788942337,-0.28055933117866516,-0.1446351855993271
1761316155835112400,2.158112548828125,-0.18673747777938843,-0.331795871257782,-0.27060699462890625
1761316155845095700,2.168095703125,-0.2387482076883316,-0.37274301052093506,-0.3798365592956543
1761316155855077600,2.17807763671875,-0.3156391680240631,-0.3878539502620697,-0.47108620405197144
1761316155865059600,2.1880595703125,-0.41348159313201904,-0.3794522285461426,-0.5302408933639526
1761316155875041800,2.198041748046875,-0.48528578877449036,-0.36300233006477356,-0.5527435541152954
1761316155885023500,2.2080234375,-0.5320982933044434,-0.34323927760124207,-0.5657567977905273
1761316155895006700,2.2180068359375,-0.5675336122512817,-0.248567134141922,-0.62078458070755
1761316155904988400,2.227988525390625,-0.5784075856208801,0.023728298023343086,-0.7063215374946594
1761316155914970600,2.237970703125,-0.57388836145401,0.3004928231239319,-0.7745851874351501
1761316155924952800,2.247952880859375,-0.5661888718605042,0.43473267555236816,-0.8242722749710083
1761316155934934500,2.2579345703125,-0.5634248852729797,0.514437735080719,-0.9048305749893188
1761316155944917800,2.267917724609375,-0.5186185240745544,0.6936154961585999,-1.068995475769043
1761316155954899500,2.2778994140625,-0.40682488679885864,1.0187677145004272,-1.3126975297927856
1761316155964881700,2.287881591796875,-0.32863712310791016,1.4667161703109741,-1.3710167407989502
1761316155974863600,2.297863525390625,-0.4206099212169647,1.7693227529525757,-1.133996844291687
1761316155984845600,2.307845458984375,-0.5642882585525513,1.397891640663147,-0.8667846322059631
1761316155994828800,2.317828857421875,-0.587948739528656,0.4729470908641815,-0.8282859325408936
1761316156004810500,2.327810546875,-0.4177098870277405,-0.5424237847328186,-1.0726380348205566
1761316156014792700,2.337792724609375,-0.028362488374114037,-1.1376841068267822,-1.2696441411972046
1761316156024774700,2.347774658203125,0.38560324907302856,-1.0032380819320679,-1.0027892589569092
1761316156034756600,2.357756591796875,0.6991035342216492,-0.33435410261154175,-0.1553652137517929
1761316156044739800,2.36773974609375,0.943976104259491,0.37635383009910583,1.0154083967208862
1761316156054721500,2.377721435546875,1.1619350910186768,0.7393449544906616,2.066300630569458
1761316156064703700,2.387703857421875,1.3078579902648926,0.7950417399406433,2.715622663497925
1761316156074685700,2.397685791015625,1.3120367527008057,0.6237289309501648,2.907351016998291
1761316156084667600,2.407667724609375,1.1485154628753662,0.33127227425575256,2.6558516025543213
1761316156094650600,2.417650634765625,0.8835271000862122,0.02039887197315693,2.125572443008423
1761316156104632600,2.427632568359375,0.5435948371887207,-0.2336248755455017,1.4606618881225586
1761316156114614800,2.43761474609375,0.21383516490459442,-0.3962878882884979,0.7737792730331421
1761316156124596500,2.447596435546875,-0.04579799622297287,-0.4536222815513611,0.13939990103244781
1761316156134578700,2.45757861328125,-0.19813382625579834,-0.38749104738235474,-0.4199678897857666
1761316156144561400,2.4675615234375,-0.2715124189853668,-0.21339088678359985,-0.8866575360298157
1761316156154543600,2.477543701171875,-0.3241250216960907,0.0035781129263341427,-1.241405725479126
1761316156164525800,2.48752587890625,-0.35411593317985535,0.21159230172634125,-1.4458643198013306
1761316156174507500,2.497507568359375,-0.37495672702789307,0.35568946599960327,-1.4603371620178223
1761316156184489700,2.50748974609375,-0.37982630729675293,0.4047161340713501,-1.2499791383743286
1761316156194472400,2.517472412109375,-0.37080493569374084,0.32866784930229187,-0.8299897313117981
1761316156204454700,2.52745458984375,-0.3786841630935669,0.16574443876743317,-0.2602846920490265
1761316156214436600,2.5374365234375,-0.39835700392723083,-0.0008054827339947224,0.33834052085876465
1761316156224418600,2.54741845703125,-0.4070940613746643,-0.15688456594944,0.8478351831436157
1761316156234400800,2.55740087890625,-0.4100169837474823,-0.3215441107749939,1.2193677425384521
1761316156244382700,2.5673828125,-0.40762412548065186,-0.4945926070213318,1.4512563943862915
1761316156254365700,2.57736572265625,-0.39588403701782227,-0.6498324275016785,1.5590457916259766
1761316156264347600,2.58734765625,-0.34670212864875793,-0.793168842792511,1.5388743877410889
1761316156274329600,2.59732958984375,-0.25232335925102234,-0.9167419672012329,1.4382115602493286
1761316156284311600,2.6073115234375,-0.16328243911266327,-1.0188018083572388,1.3029706478118896
1761316156294293800,2.617293701171875,-0.13716258108615875,-1.1171314716339111,1.144213318824768
1761316156304276700,2.62727685546875,-0.16005271673202515,-1.180790662765503,0.9808645248413086
1761316156314258700,2.6372587890625,-0.2048051655292511,-1.1700931787490845,0.8192834258079529
1761316156324240600,2.64724072265625,-0.24511396884918213,-1.123896837234497,0.6575310230255127
1761316156334222600,2.65722265625,-0.2846010625362396,-1.0732258558273315,0.5030701756477356
1761316156344204500,2.66720458984375,-0.3070850670337677,-1.0364912748336792,0.37780335545539856
1761316156354187800,2.677187744140625,-0.292487770318985,-0.9540594816207886,0.2986758351325989
1761316156364169500,2.68716943359375,-0.27312710881233215,-0.7910606861114502,0.2699717581272125
1761316156374151700,2.697151611328125,-0.29875269532203674,-0.5603646039962769,0.3284418284893036
1761316156384133600,2.707133544921875,-0.3754440248012543,-0.3230540454387665,0.4792606234550476
1761316156394115600,2.717115478515625,-0.4866611659526825,-0.1266622543334961,0.7179514169692993
1761316156404098800,2.727098876953125,-0.59328293800354,0.012713214382529259,0.9657644033432007
1761316156414080500,2.73708056640625,-0.648944079875946,0.09453891217708588,1.0900744199752808
1761316156424062700,2.747062744140625,-0.624289870262146,0.11148460954427719,1.037981629371643
1761316156434044700,2.757044677734375,-0.4769110083580017,0.08771811425685883,0.8108172416687012
1761316156444026600,2.767026611328125,-0.23856955766677856,0.1490962654352188,0.4782129228115082
1761316156454009600,2.777009521484375,0.026856141164898872,0.29248160123825073,0.10710902512073517
1761316156463991600,2.786991455078125,0.2327331304550171,0.4508882761001587,-0.22656401991844177
1761316156473973800,2.796973876953125,0.3209569454193115,0.5856190919876099,-0.4802922010421753
1761316156483955700,2.806955810546875,0.3555940091609955,0.4069555997848511,-0.7128288149833679
1761316156493937700,2.816937744140625,0.41764649748802185,-0.44960570335388184,-1.1118725538253784
1761316156503920600,2.826920654296875,0.4656824767589569,-1.559558629989624,-1.568129301071167
1761316156513902600,2.836902587890625,0.46287229657173157,-2.3773887157440186,-1.9541305303573608
1761316156523884500,2.846884521484375,0.4004454016685486,-2.406148672103882,-2.1631414890289307
1761316156533866800,2.85686669921875,0.2736954391002655,-1.5276973247528076,-2.12062668800354
1761316156543848700,2.8668486328125,0.18123313784599304,-0.05780861899256706,-1.676910638809204
1761316156553831700,2.876831787109375,0.20418904721736908,1.4183696508407593,-0.829075038433075
1761316156563813600,2.886813720703125,0.2998518943786621,2.4085912704467773,0.14954212307929993
1761316156573795600,2.896795654296875,0.41466617584228516,2.8135619163513184,0.9055523872375488
1761316156583777500,2.906777587890625,0.5118319392204285,2.7290475368499756,1.3103984594345093
1761316156593759200,2.91675927734375,0.5095421075820923,2.262462615966797,1.4147573709487915
1761316156603741400,2.926741455078125,0.4126856029033661,1.5335743427276611,1.2939822673797607
1761316156613724400,2.936724365234375,0.29569414258003235,0.7657372951507568,0.9635764360427856
1761316156623706400,2.946706298828125,0.18427279591560364,0.12664976716041565,0.48150351643562317
1761316156633688600,2.9566884765625,0.061041057109832764,-0.30008697509765625,-0.04300777614116669
1761316156643670300,2.966670166015625,-0.06636670231819153,-0.5050132274627686,-0.5442658066749573
1761316156653652500,2.976652587890625,-0.19126281142234802,-0.47813209891319275,-1.012479543685913
1761316156663635200,2.98663525390625,-0.32010337710380554,-0.2955271303653717,-1.4025365114212036
1761316156673617400,2.996617431640625,-0.47771430015563965,-0.08628471195697784,-1.6589237451553345
1761316156683599400,3.006599365234375,-0.6754431128501892,0.08833903074264526,-1.7643755674362183
1761316156693581300,3.016581298828125,-0.9189717173576355,0.16324017941951752,-1.708759069442749
1761316156703563500,3.0265634765625,-1.1848710775375366,0.18434466421604156,-1.4706701040267944
1761316156713546200,3.036546142578125,-1.4213343858718872,0.23851971328258514,-1.1250674724578857
1761316156723528400,3.046528564453125,-1.6046661138534546,0.29670125246047974,-0.748750627040863
1761316156733510100,3.05651025390625,-1.7327346801757812,0.32292306423187256,-0.39737769961357117
1761316156743492400,3.066492431640625,-1.765289068222046,0.3081028461456299,-0.1033649742603302
1761316156753474300,3.076474365234375,-1.7111406326293945,0.18578220903873444,0.13618174195289612
1761316156763457300,3.086457275390625,-1.5710103511810303,-0.04650190472602844,0.33176562190055847
1761316156773439500,3.096439453125,-1.407799482345581,-0.3621426820755005,0.48269379138946533
1761316156783421200,3.106421142578125,-1.274505615234375,-0.6818850040435791,0.6024484038352966
1761316156793403400,3.1164033203125,-1.2105835676193237,-0.9434559941291809,0.6776540279388428
1761316156803385300,3.12638525390625,-1.2109196186065674,-1.1077080965042114,0.7040643095970154
1761316156813368300,3.136368408203125,-1.2600719928741455,-1.2041887044906616,0.6771764159202576
1761316156823350500,3.1463505859375,-1.339914083480835,-1.242342472076416,0.5823217630386353
1761316156833332200,3.156332275390625,-1.4381465911865234,-1.2010358572006226,0.42209362983703613
1761316156843314400,3.166314453125,-1.5013178586959839,-1.0500609874725342,0.19672629237174988
1761316156853296400,3.17629638671875,-1.521531581878662,-0.8583598136901855,-0.07395526766777039
1761316156863279400,3.186279296875,-1.4770737886428833,-0.6906770467758179,-0.3416365087032318
1761316156873261600,3.196261474609375,-1.3500558137893677,-0.5775192379951477,-0.5806413292884827
1761316156883243300,3.2062431640625,-1.165675163269043,-0.47562533617019653,-0.7730264663696289
1761316156893225500,3.2162255859375,-0.9695197939872742,-0.41025713086128235,-0.8905637860298157
1761316156903207400,3.22620751953125,-0.7846481800079346,-0.40376007556915283,-0.9232354760169983
1761316156913190400,3.2361904296875,-0.644488513469696,-0.43705031275749207,-0.8873977661132812
1761316156923172400,3.24617236328125,-0.5710704922676086,-0.46691182255744934,-0.7956734299659729
1761316156933154300,3.256154296875,-0.5582211017608643,-0.4381686747074127,-0.656292736530304
1761316156943136500,3.266136474609375,-0.5760986804962158,-0.27457016706466675,-0.5134530067443848
1761316156953118200,3.2761181640625,-0.6124204397201538,0.012527024373412132,-0.36924198269844055
1761316156963100400,3.286100341796875,-0.6139965057373047,0.3359767496585846,-0.23518484830856323
1761316156973083100,3.296083251953125,-0.5587589144706726,0.7039632797241211,-0.15865826606750488
1761316156983065300,3.3060654296875,-0.4951847195625305,1.0300023555755615,-0.1552339792251587
1761316156993047300,3.31604736328125,-0.43908217549324036,1.2180415391921997,-0.19780342280864716
1761316157003029200,3.326029296875,-0.28786763548851013,1.2502250671386719,-0.32495203614234924
1761316157013011500,3.336011474609375,-0.04849012941122055,1.007356882095337,-0.4244985282421112
1761316157022994200,3.345994140625,0.1829092800617218,0.010991312563419342,-0.2839091718196869
1761316157032976400,3.355976318359375,0.3335902690887451,-1.5017952919006348,0.0569491870701313
1761316157042958300,3.365958251953125,0.32600638270378113,-2.659745931625366,0.5318307280540466
1761316157052940300,3.375940185546875,0.24150660634040833,-2.9670255184173584,1.104263424873352
1761316157062922200,3.385922119140625,0.18145045638084412,-2.2860610485076904,1.7445083856582642
1761316157072905200,3.3959052734375,0.12426526844501495,-1.0575705766677856,2.3931665420532227
1761316157082887400,3.405887451171875,0.018172120675444603,0.12837199866771698,2.8255882263183594
1761316157092869400,3.415869384765625,-0.17828606069087982,1.0476012229919434,2.835207462310791
1761316157102851300,3.425851318359375,-0.4742596447467804,1.5643715858459473,2.5039055347442627
1761316157112833300,3.435833251953125,-0.8392414450645447,1.6957597732543945,1.9763075113296509
1761316157122816300,3.445816162109375,-1.1945213079452515,1.5068820714950562,1.3994084596633911
1761316157132798500,3.455798583984375,-1.445550799369812,1.0989363193511963,0.8142443299293518
1761316157142780400,3.465780517578125,-1.5506764650344849,0.5896448493003845,0.25538957118988037
1761316157152762400,3.475762451171875,-1.5074986219406128,0.12745040655136108,-0.2515104413032532
1761316157162744300,3.485744384765625,-1.380288004875183,-0.2605851888656616,-0.6477288603782654
1761316157172727300,3.495727294921875,-1.2439707517623901,-0.6275759339332581,-0.872098982334137
1761316157182709500,3.50570947265625,-1.1199171543121338,-1.0229908227920532,-0.9501181244850159
1761316157192691200,3.515691162109375,-0.9676870107650757,-1.4545549154281616,-0.9118041396141052
1761316157202673400,3.52567333984375,-0.796107828617096,-1.9092925786972046,-0.7885229587554932
1761316157212655400,3.5356552734375,-0.6313422918319702,-2.308004379272461,-0.5662278532981873
1761316157222637300,3.54563720703125,-0.4867161214351654,-2.6010549068450928,-0.2615814208984375
1761316157232620300,3.555620361328125,-0.4037906229496002,-2.7909655570983887,0.15428683161735535
1761316157242602200,3.565602294921875,-0.38074761629104614,-2.863426685333252,0.6936113238334656
1761316157252584400,3.57558447265625,-0.37021294236183167,-2.799207925796509,1.2577807903289795
1761316157262566400,3.58556640625,-0.403248131275177,-2.5854365825653076,1.6815717220306396
1761316157272548400,3.59554833984375,-0.49732136726379395,-2.2498066425323486,1.8933436870574951
1761316157282531300,3.60553125,-0.6334091424942017,-1.83034348487854,1.925315499305725
1761316157292513300,3.61551318359375,-0.7833019495010376,-1.3838499784469604,1.814978837966919
1761316157302495200,3.6254951171875,-0.9418332576751709,-0.963310182094574,1.6055047512054443
1761316157312477400,3.6354775390625,-1.0865150690078735,-0.6245743632316589,1.3445569276809692
1761316157322459400,3.64545947265625,-1.2037889957427979,-0.3946322202682495,1.0804448127746582
1761316157332442400,3.6554423828125,-1.2637180089950562,-0.31821170449256897,0.8198679685592651
1761316157342424300,3.66542431640625,-1.2715719938278198,-0.36130619049072266,0.5662420988082886
1761316157352406300,3.67540625,-1.268277645111084,-0.4804873466491699,0.32894834876060486
1761316157362388500,3.685388427734375,-1.2710163593292236,-0.6229060292243958,0.11239048838615417
1761316157372370200,3.6953701171875,-1.2651429176330566,-0.6896900534629822,-0.09430865198373795
1761316157382352400,3.705352294921875,-1.2343629598617554,-0.6531379222869873,-0.26918408274650574
1761316157392335400,3.71533544921875,-1.1812248229980469,-0.5772587656974792,-0.39632099866867065
1761316157402317300,3.7253173828125,-1.1283549070358276,-0.5021342039108276,-0.48663145303726196
1761316157412299500,3.735299560546875,-1.0911638736724854,-0.41401174664497375,-0.5645877718925476
1761316157422281200,3.74528125,-1.0589436292648315,-0.3567838668823242,-0.6658850908279419
1761316157432263400,3.755263427734375,-1.032165288925171,-0.29837220907211304,-0.777795135974884
1761316157442246400,3.765246337890625,-1.0157439708709717,-0.2517906129360199,-0.9011260867118835
1761316157452228400,3.775228271484375,-1.014379620552063,-0.24090494215488434,-1.0226043462753296
1761316157462210300,3.785210205078125,-0.9985414743423462,-0.27298298478126526,-1.1025844812393188
1761316157472192300,3.795192138671875,-0.9750297665596008,-0.30827945470809937,-1.1058180332183838
1761316157482174500,3.805174560546875,-0.9688043594360352,-0.3402549624443054,-1.0345321893692017
1761316157492157400,3.815157470703125,-0.9762816429138184,-0.30408918857574463,-0.8833115696907043
1761316157502139400,3.825139404296875,-1.0184495449066162,-0.16105908155441284,-0.6021110415458679
1761316157512121300,3.835121337890625,-1.099312424659729,0.08399904519319534,-0.3084395229816437
1761316157522103300,3.845103271484375,-1.176753044128418,0.5127893090248108,-0.10617561638355255
1761316157532085500,3.85508544921875,-1.2183557748794556,1.0789248943328857,-0.05127372220158577
1761316157542067200,3.865067138671875,-1.2266576290130615,1.7417291402816772,-0.06957096606492996
1761316157552050400,3.875050537109375,-1.1445696353912354,2.341477155685425,-0.17029573023319244
1761316157562032400,3.885032470703125,-0.8578793406486511,2.3773353099823,-0.6147541403770447
1761316157572014300,3.895014404296875,-0.34985285997390747,1.4969141483306885,-1.4333381652832031
1761316157581996500,3.90499658203125,0.102487713098526,0.045361701399087906,-2.124709367752075
1761316157591978200,3.914978271484375,0.19859786331653595,-1.5227559804916382,-2.2742631435394287
1761316157601961500,3.92496142578125,-0.052567258477211,-2.462608814239502,-1.6777862310409546
1761316157611943400,3.934943359375,-0.3866458833217621,-2.170302152633667,-0.543247640132904
1761316157621925400,3.94492529296875,-0.5307077169418335,-0.5257889032363892,0.5803035497665405
1761316157631907600,3.954907470703125,-0.4337560832500458,1.6769882440567017,1.207895278930664
1761316157641889300,3.96488916015625,-0.27511903643608093,3.538043737411499,1.2126532793045044
1761316157651872500,3.97487255859375,-0.1555107980966568,4.7299628257751465,0.7769156098365784
1761316157661854500,3.9848544921875,-0.15657712519168854,4.938791275024414,0.17020036280155182
1761316157671836400,3.99483642578125,-0.34317126870155334,4.243783473968506,-0.3715031147003174
1761316157681818400,4.004818359375,-0.6728255748748779,3.0563137531280518,-0.7387194633483887
1761316157691800300,4.01480029296875,-1.0379782915115356,1.7336753606796265,-0.9757123589515686
1761316157701783300,4.024783203125,-1.3247381448745728,0.4879666268825531,-1.1449085474014282
1761316157711765200,4.03476513671875,-1.4737858772277832,-0.46598994731903076,-1.2590194940567017
1761316157721747500,4.04474755859375,-1.4796959161758423,-1.1118414402008057,-1.313677430152893
1761316157731729400,4.0547294921875,-1.3863455057144165,-1.5976160764694214,-1.2382177114486694
1761316157741711400,4.06471142578125,-1.2445697784423828,-1.9926440715789795,-0.9874853491783142
1761316157751693600,4.074693603515625,-1.0756185054779053,-2.277905225753784,-0.5827832818031311
1761316157761676300,4.08467626953125,-0.9215390682220459,-2.4395999908447266,-0.11177768558263779
1761316157771658500,4.094658447265625,-0.8320154547691345,-2.490488290786743,0.34069228172302246
1761316157781640200,4.10464013671875,-0.791772723197937,-2.4057869911193848,0.7375405430793762
1761316157791622400,4.114622314453125,-0.7950956225395203,-2.1664414405822754,1.0367218255996704
1761316157801604600,4.1246044921875,-0.8360968232154846,-1.829209804534912,1.2157407999038696
1761316157811587300,4.13458740234375,-0.9161630272865295,-1.4780399799346924,1.2749053239822388
1761316157821569500,4.144569580078125,-0.993823230266571,-1.1243172883987427,1.2598485946655273
1761316157831551200,4.15455126953125,-1.0352638959884644,-0.7911439538002014,1.1893479824066162
1761316157841533400,4.164533447265625,-1.0439509153366089,-0.49882474541664124,1.0851632356643677
1761316157851515400,4.174515380859375,-1.014882206916809,-0.2621581554412842,0.9664389491081238
1761316157861497300,4.184497314453125,-0.9501599669456482,-0.09090595692396164,0.8632936477661133
1761316157871480600,4.19448046875,-0.87727952003479,-0.001982844201847911,0.7976385354995728
1761316157881462300,4.204462158203125,-0.8401223421096802,-0.07880012691020966,0.7701528668403625
1761316157891444500,4.214444580078125,-0.816352128982544,-0.26223284006118774,0.7683976888656616
1761316157901426400,4.224426513671875,-0.7839446663856506,-0.4771616458892822,0.7604234218597412
1761316157911408400,4.234408447265625,-0.7527804970741272,-0.7356603741645813,0.7434368133544922
1761316157921391400,4.244391357421875,-0.7240686416625977,-0.9754830598831177,0.7118443250656128
1761316157931373300,4.254373291015625,-0.6917159557342529,-1.1030346155166626,0.6285971999168396
1761316157941355500,4.26435546875,-0.644121527671814,-1.1292158365249634,0.4895476996898651
1761316157951337200,4.274337158203125,-0.5644811391830444,-1.0919339656829834,0.3078922927379608
1761316157961319400,4.2843193359375,-0.4477420151233673,-1.0156415700912476,0.10094445198774338
1761316157971302400,4.294302490234375,-0.3121708035469055,-0.9273608922958374,-0.10393540561199188
1761316157981284400,4.304284423828125,-0.1648402065038681,-0.8570199012756348,-0.2903236448764801
1761316157991266600,4.3142666015625,-0.005789072718471289,-0.7883039116859436,-0.44038721919059753
1761316158001248300,4.324248291015625,0.1511821746826172,-0.7008686065673828,-0.525719404220581
1761316158011230500,4.33423046875,0.2744847238063812,-0.6948497295379639,-0.5148856043815613
1761316158021212400,4.34421240234375,0.38465651869773865,-0.7487525939941406,-0.4037111699581146
1761316158031195400,4.3541953125,0.5319864749908447,-0.7956610321998596,-0.28169724345207214
1761316158041177600,4.364177490234375,0.6677752137184143,-0.7740518450737,-0.26626262068748474
1761316158051159300,4.3741591796875,0.7652425765991211,-0.5889332890510559,-0.43492332100868225
1761316158061141500,4.3841416015625,0.8184368014335632,-0.17510175704956055,-0.7903860807418823
1761316158071123500,4.39412353515625,0.8497219681739807,0.4335651099681854,-1.229371190071106
1761316158081106400,4.4041064453125,0.7936182022094727,1.1126245260238647,-1.575373888015747
1761316158091088400,4.41408837890625,0.6048280596733093,1.7226839065551758,-1.6510388851165771
1761316158101070300,4.4240703125,0.37018465995788574,2.1087143421173096,-1.4950906038284302
1761316158111052500,4.434052490234375,0.21018211543560028,2.18680477142334,-1.3924717903137207
1761316158121034500,4.444034423828125,0.2544105648994446,1.9668811559677124,-1.5094412565231323
1761316158131016400,4.454016357421875,0.6197536587715149,1.3024612665176392,-1.7379032373428345
1761316158140999400,4.46399951171875,1.1218024492263794,0.26235437393188477,-1.8797557353973389
1761316158150981400,4.4739814453125,1.3309253454208374,-0.8892757892608643,-1.9271152019500732
1761316158160963300,4.48396337890625,1.2407400608062744,-1.6287024021148682,-1.8779710531234741
1761316158170945300,4.4939453125,0.9633992314338684,-1.477018117904663,-1.600895643234253
1761316158180927500,4.503927490234375,0.6072054505348206,-0.37599268555641174,-0.9154077172279358
1761316158190910500,4.513910400390625,0.307649165391922,1.1749736070632935,0.10256295651197433
1761316158200892400,4.523892333984375,0.1735115796327591,2.491161823272705,1.0329867601394653
1761316158210874400,4.533874267578125,0.1726108342409134,3.2569291591644287,1.5327839851379395
1761316158220856300,4.543856201171875,0.2743867337703705,3.4432151317596436,1.602512240409851
1761316158230838300,4.55383837890625,0.3181241750717163,3.068937063217163,1.383939266204834
1761316158240820500,4.563820556640625,0.269465833902359,2.2244513034820557,1.061456322669983
1761316158250803500,4.573803466796875,0.1802653968334198,1.2189953327178955,0.7738010287284851
1761316158260785400,4.583785400390625,0.08993682265281677,0.3230331540107727,0.5614778399467468
1761316158270767400,4.593767333984375,0.014542164281010628,-0.2832058370113373,0.4054773151874542
1761316158280749300,4.603749267578125,-0.03664086014032364,-0.5733122229576111,0.28529632091522217
1761316158290731500,4.6137314453125,-0.05783306062221527,-0.6093344688415527,0.19002453982830048
1761316158300714500,4.623714599609375,-0.06777571141719818,-0.48272672295570374,0.09873829782009125
1761316158310696400,4.633696533203125,-0.11880306899547577,-0.29247742891311646,0.032044418156147
1761316158320678400,4.643678466796875,-0.25860998034477234,-0.1491900384426117,0.04160836338996887
1761316158330660400,4.653660400390625,-0.4710404872894287,-0.15905331075191498,0.12397639453411102
1761316158340642600,4.663642578125,-0.6732742786407471,-0.212119460105896,0.27516937255859375
1761316158350625500,4.67362548828125,-0.8200526833534241,-0.22632800042629242,0.45249825716018677
1761316158360607500,4.683607421875,-0.8935372829437256,-0.13904769718647003,0.6198688745498657
1761316158370589400,4.69358935546875,-0.8772748112678528,0.005174168385565281,0.7700161933898926
1761316158380571400,4.7035712890625,-0.7857853770256042,0.10310658812522888,0.9313939213752747
1761316158390553600,4.7135537109375,-0.6781888008117676,0.11829157173633575,1.1017212867736816
1761316158400535300,4.723535400390625,-0.5971897840499878,0.08709876239299774,1.236297369003296
1761316158410518500,4.7335185546875,-0.5350186824798584,0.0995234027504921,1.2849100828170776
1761316158420500200,4.743500244140625,-0.4672524333000183,0.16303527355194092,1.2234818935394287
1761316158430482400,4.753482421875,-0.4214150309562683,0.2574523091316223,1.0874481201171875
1761316158440464400,4.76346435546875,-0.39632299542427063,0.35501694679260254,0.8951308131217957
1761316158450446300,4.7734462890625,-0.3961111903190613,0.39502257108688354,0.6913450360298157
1761316158460428500,4.783428466796875,-0.3922613263130188,0.35717958211898804,0.5205431580543518
1761316158470411300,4.793411376953125,-0.36343884468078613,0.24707187712192535,0.38465023040771484
1761316158480393500,4.8033935546875,-0.32348743081092834,0.09702300280332565,0.28230974078178406
1761316158490375200,4.813375244140625,-0.2633006274700165,-0.07573495805263519,0.1904132068157196
1761316158500357400,4.823357421875,-0.18235623836517334,-0.24921965599060059,0.11520501226186752
1761316158510339600,4.833339599609375,-0.0836845338344574,-0.42134854197502136,0.050452426075935364
1761316158520322300,4.843322265625,0.019991792738437653,-0.5429537892341614,0.013869380578398705
1761316158530304500,4.853304443359375,0.10970886051654816,-0.6085894703865051,-0.019999969750642776
1761316158540286200,4.8632861328125,0.1590396612882614,-0.5941337943077087,-0.06491950899362564
1761316158550268400,4.873268310546875,0.1524282991886139,-0.47443950176239014,-0.11934684962034225
1761316158560250400,4.88325048828125,0.08728630840778351,-0.2751154899597168,-0.1944996565580368
1761316158570232300,4.893232421875,0.0023389970883727074,-0.111484594643116,-0.26530155539512634
1761316158580215600,4.903215576171875,-0.0753648579120636,0.0024014869704842567,-0.32268229126930237
1761316158590197200,4.913197265625,-0.13204026222229004,0.04151057451963425,-0.3910101354122162
1761316158600179500,4.923179443359375,-0.15896429121494293,0.042482890188694,-0.4904043674468994
1761316158610161400,4.933161376953125,-0.14024093747138977,0.03345610946416855,-0.6113284230232239
1761316158620143400,4.943143310546875,-0.054591815918684006,0.013891726732254028,-0.7137953639030457
1761316158630126600,4.953126708984375,0.11250731348991394,-0.0010116230696439743,-0.7673404812812805
1761316158640108300,4.9631083984375,0.3367313742637634,0.052966393530368805,-0.7181566953659058
1761316158650090500,4.973090576171875,0.5449867844581604,0.12778310477733612,-0.5480546951293945
1761316158660072400,4.983072509765625,0.7178872227668762,0.11184116452932358,-0.27241113781929016
1761316158670054400,4.993054443359375,0.8134543895721436,-0.10112767666578293,0.034488745033741
1761316158680036400,5.003036376953125,0.8241627216339111,-0.39174461364746094,0.2621365487575531
1761316158690019300,5.013019287109375,0.7599086761474609,-0.6614062190055847,0.24748387932777405
1761316158700001500,5.02300146484375,0.6260536313056946,-1.0286864042282104,-0.30477529764175415
1761316158709983200,5.032983154296875,0.5390417575836182,-1.4557926654815674,-1.3843122720718384
1761316158719965400,5.04296533203125,0.6275140643119812,-1.932945966720581,-2.7191920280456543
1761316158729947400,5.052947509765625,0.815765917301178,-2.1829710006713867,-3.692843437194824
1761316158739930400,5.062930419921875,0.8427493572235107,-1.932281255722046,-3.6519272327423096
1761316158749912600,5.07291259765625,0.6348902583122253,-1.0654932260513306,-2.419558525085449
1761316158759894300,5.082894287109375,0.2656930983066559,0.21920153498649597,-0.7467737197875977
1761316158769876500,5.09287646484375,0.046136144548654556,1.25460684299469,0.40108269453048706
1761316158779858400,5.1028583984375,0.019822249189019203,1.872515082359314,0.7518361806869507
1761316158789840400,5.11284033203125,0.1026817262172699,2.0695912837982178,0.6379080414772034
1761316158799823400,5.1228232421875,0.2056637704372406,1.8682794570922852,0.4382401704788208
1761316158809805300,5.132805419921875,0.2590807378292084,1.4196381568908691,0.3688551187515259
1761316158819787500,5.14278759765625,0.22057408094406128,0.841180145740509,0.4218967854976654
1761316158829769500,5.15276953125,0.10809917747974396,0.2962409555912018,0.4766813814640045
1761316158839751400,5.16275146484375,-0.00960881169885397,-0.1423177570104599,0.4375651478767395
1761316158849734400,5.172734375,-0.0961560532450676,-0.45792636275291443,0.2922446131706238
1761316158859716400,5.18271630859375,-0.1403392255306244,-0.6861822009086609,0.09768471121788025
1761316158869698300,5.1926982421875,-0.13948580622673035,-0.840699315071106,-0.07713142782449722
1761316158879680500,5.202680419921875,-0.11922527849674225,-0.9651291370391846,-0.19871856272220612
1761316158889662500,5.212662353515625,-0.0764608234167099,-1.0568602085113525,-0.23981809616088867
1761316158899644400,5.22264453125,-0.0284312441945076,-1.1457719802856445,-0.19149956107139587
1761316158909627400,5.23262744140625,-0.010154209099709988,-1.2385480403900146,-0.0676380842924118
1761316158919609300,5.242609375,-0.02342793717980385,-1.273332118988037,0.13345187902450562
1761316158929591300,5.25259130859375,-0.11482185125350952,-1.233687162399292,0.3642439842224121
1761316158939573200,5.2625732421875,-0.26986709237098694,-1.1007397174835205,0.5833627581596375
1761316158949555500,5.272555419921875,-0.42956840991973877,-0.9006736278533936,0.7653959393501282
1761316158959538400,5.282538330078125,-0.5401902198791504,-0.6948935985565186,0.9174509644508362
1761316158969520400,5.292520263671875,-0.5803492665290833,-0.496521919965744,1.0424100160598755
1761316158979502300,5.30250244140625,-0.5706268548965454,-0.3203897476196289,1.1586884260177612
1761316158989484300,5.312484375,-0.4952240288257599,-0.1576092541217804,1.286368727684021
1761316158999466500,5.322466552734375,-0.3906174600124359,-0.06091893091797829,1.403509497642517
1761316159009448200,5.3324482421875,-0.29908517003059387,-0.04199524223804474,1.4925549030303955
1761316159019431400,5.342431396484375,-0.23061902821063995,-0.04819188266992569,1.5253655910491943
1761316159029413400,5.352413330078125,-0.19254520535469055,-0.06878573447465897,1.4986618757247925
1761316159039395300,5.362395263671875,-0.1752471774816513,-0.09944457560777664,1.4159348011016846
1761316159049377500,5.37237744140625,-0.18659983575344086,-0.13809505105018616,1.2934355735778809
1761316159059359200,5.382359130859375,-0.2136698067188263,-0.19760684669017792,1.127475380897522
1761316159069341400,5.392341552734375,-0.24946700036525726,-0.2625353932380676,0.9113215208053589
1761316159079324400,5.402324462890625,-0.26418226957321167,-0.2778160870075226,0.6399094462394714
1761316159089306400,5.412306396484375,-0.25402402877807617,-0.20734943449497223,0.3405178487300873
1761316159099288600,5.42228857421875,-0.24597382545471191,-0.08138804882764816,0.05894528329372406
1761316159109270300,5.432270263671875,-0.2553035616874695,0.05338786914944649,-0.1898024082183838
1761316159119252500,5.44225244140625,-0.2575856149196625,0.15078286826610565,-0.3884856700897217
1761316159129235500,5.4522353515625,-0.2381649613380432,0.20406141877174377,-0.5313817262649536
1761316159139217400,5.462217529296875,-0.18204577267169952,0.20950624346733093,-0.6298158764839172
1761316159149199400,5.472199462890625,-0.1143045648932457,0.16978655755519867,-0.6879807114601135
1761316159159181300,5.482181396484375,-0.030661866068840027,0.11638990789651871,-0.7271760702133179
1761316159169163500,5.49216357421875,0.06647234410047531,0.07331447303295135,-0.7613726854324341
1761316159179145200,5.502145263671875,0.1642255336046219,0.03617722541093826,-0.8153581619262695
1761316159189128400,5.51212841796875,0.25880157947540283,0.045424219220876694,-0.8710421919822693
1761316159199110400,5.5221103515625,0.3717268109321594,0.10611286014318466,-0.9217000603675842
1761316159209092400,5.53209228515625,0.5016940832138062,0.1979088932275772,-0.9564929008483887
1761316159219074600,5.542074462890625,0.6038652062416077,0.28087756037712097,-0.9736220836639404
1761316159229056300,5.55205615234375,0.6535166501998901,0.35454753041267395,-0.9176571369171143
1761316159239038500,5.56203857421875,0.6622185111045837,0.4748680889606476,-0.7785581350326538
1761316159249021200,5.572021240234375,0.6393862366676331,0.5574374198913574,-0.5702231526374817
1761316159259003400,5.58200341796875,0.5294099450111389,0.6424614787101746,-0.38443413376808167
1761316159268985600,5.591985595703125,0.30580446124076843,0.7179041504859924,-0.2405628114938736
1761316159278967300,5.60196728515625,0.021030258387327194,0.7132803797721863,-0.23889940977096558
1761316159288949500,5.611949462890625,-0.14306122064590454,0.17201612889766693,-0.7030830383300781
1761316159298932200,5.62193212890625,-0.07386431097984314,-0.9154135584831238,-1.6581435203552246
1761316159308914400,5.63191455078125,0.16866827011108398,-2.0441319942474365,-2.5726871490478516
1761316159318896400,5.641896484375,0.4190376400947571,-2.6872904300689697,-2.814178466796875
1761316159328878300,5.65187841796875,0.5294709205627441,-2.308084487915039,-2.0859296321868896
1761316159338860500,5.661860595703125,0.4618378281593323,-1.033710241317749,-0.6850525736808777
1761316159348842500,5.671842529296875,0.3279905617237091,0.6158548593521118,0.7276046872138977
1761316159358825500,5.681825439453125,0.2237088829278946,1.989664912223816,1.518934965133667
1761316159368807400,5.691807373046875,0.11047971248626709,2.791844606399536,1.5630378723144531
1761316159378789400,5.701789306640625,0.03428854048252106,2.8586184978485107,1.1896904706954956
1761316159388771300,5.711771240234375,-0.0411125086247921,2.475325345993042,0.7702369689941406
1761316159398753300,5.721753173828125,-0.14152459800243378,1.806016445159912,0.5366484522819519
1761316159408735500,5.731735595703125,-0.2541962265968323,1.0143382549285889,0.49631527066230774
1761316159418718500,5.741718505859375,-0.3205416798591614,0.3399256467819214,0.5401493310928345
1761316159428700400,5.751700439453125,-0.31795376539230347,-0.0793861597776413,0.5756434798240662
1761316159438682400,5.761682373046875,-0.2916329503059387,-0.2693385183811188,0.5623865723609924
1761316159448664300,5.771664306640625,-0.2822314202785492,-0.27561718225479126,0.5183619260787964
1761316159458646300,5.781646240234375,-0.2966713607311249,-0.22092516720294952,0.4414719343185425
1761316159468629200,5.791629150390625,-0.34868642687797546,-0.12391487509012222,0.3530183434486389
1761316159478611500,5.801611572265625,-0.3964422345161438,-0.028794750571250916,0.2876441478729248
1761316159488593400,5.811593505859375,-0.4564759135246277,0.01594109833240509,0.26450833678245544
1761316159498575400,5.821575439453125,-0.5247069001197815,0.06522076576948166,0.3162176012992859
1761316159508557300,5.831557373046875,-0.6155895590782166,0.12669271230697632,0.44512826204299927
1761316159518539500,5.84153955078125,-0.6907690167427063,0.20943553745746613,0.670117974281311
1761316159528522500,5.8515224609375,-0.7152726650238037,0.35241320729255676,0.957985520362854
1761316159538504400,5.86150439453125,-0.6876034736633301,0.5139853358268738,1.2665561437606812
1761316159548486400,5.871486328125,-0.6663912534713745,0.6050279140472412,1.5466363430023193
1761316159558468400,5.88146826171875,-0.6207324266433716,0.6536505222320557,1.7931814193725586
1761316159568450600,5.891450439453125,-0.5542828440666199,0.7157139778137207,1.9607036113739014
1761316159578432300,5.901432373046875,-0.4849918782711029,0.7504889965057373,2.0413525104522705
1761316159588415200,5.911415283203125,-0.42851343750953674,0.7329395413398743,2.0600993633270264
1761316159598397200,5.921397216796875,-0.39629027247428894,0.6791514158248901,2.030482769012451
1761316159608379100,5.931379150390625,-0.41216617822647095,0.5419136881828308,1.963132381439209
1761316159618361300,5.941361328125,-0.46805766224861145,0.37433454394340515,1.8812566995620728
1761316159628343000,5.951343017578125,-0.5436865091323853,0.1672724038362503,1.7956641912460327
1761316159638325200,5.9613251953125,-0.6262152194976807,-0.05289459228515625,1.7227609157562256
1761316159648308000,5.971307861328125,-0.6910683512687683,-0.26087287068367004,1.6674147844314575
1761316159658290200,5.981290283203125,-0.7114719152450562,-0.444831520318985,1.6391428709030151
1761316159668272400,5.9912724609375,-0.6827932000160217,-0.5736406445503235,1.6217488050460815
1761316159678254000,6.001254150390625,-0.632865309715271,-0.635090708732605,1.5878822803497314
1761316159688236300,6.011236328125,-0.5571665167808533,-0.6271095871925354,1.5219074487686157
1761316159698219000,6.021218994140625,-0.4605180323123932,-0.5681841969490051,1.4073604345321655
1761316159708201200,6.031201171875,-0.3599216043949127,-0.47397759556770325,1.2551580667495728
1761316159718183200,6.04118310546875,-0.26962950825691223,-0.42366117238998413,1.076409101486206
1761316159728165000,6.0511650390625,-0.21662954986095428,-0.49546292424201965,0.8942699432373047
1761316159738147300,6.061147216796875,-0.21705006062984467,-0.6454798579216003,0.7338895797729492
1761316159748129000,6.07112890625,-0.23586426675319672,-0.8141745328903198,0.5958818793296814
1761316159758112300,6.0811123046875,-0.2491726130247116,-0.93259596824646,0.4485669732093811
1761316159768094000,6.091093994140625,-0.24937139451503754,-0.9342275261878967,0.28415027260780334
1761316159778076200,6.101076171875,-0.2354278713464737,-0.8797637224197388,0.11925850808620453
1761316159788058000,6.11105810546875,-0.1998104453086853,-0.7851409316062927,-0.040409959852695465
1761316159798040000,6.1210400390625,-0.14094792306423187,-0.6417848467826843,-0.17683251202106476
1761316159808022300,6.131022216796875,-0.07074455171823502,-0.49073654413223267,-0.25451770424842834
1761316159818005000,6.1410048828125,-0.02775660529732704,-0.3202250003814697,-0.22146068513393402
1761316159827987200,6.1509873046875,-0.03949426859617233,-0.181052103638649,-0.1093844622373581
1761316159837969200,6.16096923828125,-0.03855337202548981,-0.2286558300256729,-0.14644154906272888
1761316159847951000,6.170951171875,0.04937358573079109,-0.5495116710662842,-0.5727185010910034
1761316159857933000,6.18093310546875,0.218013733625412,-1.0993373394012451,-1.4681063890457153
1761316159867915300,6.190915283203125,0.43388357758522034,-1.7492657899856567,-2.773184299468994
1761316159877898200,6.200898193359375,0.7428483963012695,-2.191887378692627,-4.249515533447266
1761316159887880200,6.210880126953125,1.0334746837615967,-2.02286434173584,-5.41278076171875
1761316159897862100,6.220862060546875,1.0805188417434692,-1.2829170227050781,-5.807980060577393
1761316159907844000,6.230843994140625,0.7953968048095703,-0.08187796920537949,-5.02265739440918
1761316159917826000,6.240825927734375,0.3533956706523895,1.0432274341583252,-3.4459474086761475
1761316159927808000,6.25080810546875,0.1676095873117447,1.7576136589050293,-1.8538906574249268
1761316159937791200,6.260791259765625,0.28611600399017334,1.9902269840240479,-0.87114018201828
1761316159947773200,6.270773193359375,0.5221289992332458,1.9075329303741455,-0.5327726602554321
1761316159957755100,6.280755126953125,0.785410463809967,1.7585262060165405,-0.5162959098815918
1761316159967737000,6.290737060546875,0.9482678174972534,1.5905569791793823,-0.5557692646980286
1761316159977719000,6.300718994140625,0.9012510180473328,1.330062747001648,-0.5706837177276611
1761316159987702000,6.310701904296875,0.706937313079834,0.9728426337242126,-0.5993701219558716
1761316159997684200,6.320684326171875,0.4693774878978729,0.5741650462150574,-0.6986879110336304
1761316160007666200,6.330666259765625,0.25346639752388,0.19643576443195343,-0.832778811454773
1761316160017648000,6.340648193359375,0.10740451514720917,-0.10707724094390869,-0.9188628196716309
1761316160027630000,6.350630126953125,0.04173893854022026,-0.31713324785232544,-0.9072543382644653
1761316160037612300,6.3606123046875,0.044421806931495667,-0.4647698402404785,-0.7927224040031433
1761316160047595300,6.37059521484375,0.11448381096124649,-0.5180058479309082,-0.591708779335022
1761316160057577200,6.3805771484375,0.214835986495018,-0.46610987186431885,-0.32547709345817566
1761316160067559200,6.39055908203125,0.295329213142395,-0.29237058758735657,-0.024207545444369316
1761316160077541000,6.400541015625,0.30473950505256653,-0.037873297929763794,0.30910810828208923
1761316160087523300,6.4105234375,0.21097378432750702,0.18987160921096802,0.6290327310562134
1761316160097505000,6.420505126953125,0.012927543371915817,0.38740918040275574,0.8871465921401978
1761316160107488300,6.43048828125,-0.21990694105625153,0.5941802859306335,1.038927435874939
1761316160117470200,6.44047021484375,-0.4372917115688324,0.8212038278579712,1.1054846048355103
1761316160127452200,6.4504521484375,-0.5893150568008423,1.0410754680633545,1.1240179538726807
1761316160137434400,6.460434326171875,-0.6517736315727234,1.1884878873825073,1.1263117790222168
1761316160147416000,6.470416015625,-0.6085208058357239,1.1971476078033447,1.1424933671951294
1761316160157398300,6.480398193359375,-0.4487529993057251,1.1148858070373535,1.2130590677261353
1761316160167381000,6.490381103515625,-0.21634671092033386,0.960764467716217,1.3339053392410278
1761316160177363200,6.50036328125,0.019869819283485413,0.7803075909614563,1.476003646850586
1761316160187345200,6.51034521484375,0.2373490184545517,0.6183314323425293,1.5986814498901367
1761316160197327000,6.5203271484375,0.4023430347442627,0.43939897418022156,1.6931949853897095
1761316160207309300,6.530309326171875,0.48353996872901917,0.20159612596035004,1.7560631036758423
1761316160217291000,6.540291015625,0.459867388010025,-0.14412932097911835,1.794040322303772
1761316160227274200,6.550274169921875,0.3686157763004303,-0.49104759097099304,1.8130154609680176
1761316160237256000,6.560255859375,0.25529855489730835,-0.7570563554763794,1.7867484092712402
1761316160247238100,6.570238037109375,0.18051116168498993,-0.9060808420181274,1.7252142429351807
1761316160257220000,6.58022021484375,0.1517077386379242,-0.9820703864097595,1.6692473888397217
1761316160267202000,6.5902021484375,0.15384632349014282,-0.9953828454017639,1.612574815750122
1761316160277184300,6.600184326171875,0.20231930911540985,-0.924616813659668,1.555707573890686
1761316160287167000,6.6101669921875,0.2678621709346771,-0.8492793440818787,1.4829678535461426
1761316160297149200,6.620149169921875,0.3106634318828583,-0.8096022605895996,1.3983685970306396
1761316160307131100,6.630131103515625,0.3224288523197174,-0.7943481206893921,1.2938833236694336
1761316160317113000,6.640113037109375,0.3021845817565918,-0.7621025443077087,1.145545244216919
1761316160327095000,6.650094970703125,0.23308420181274414,-0.7762458324432373,0.9489668607711792
1761316160337078000,6.660078125,0.1004294827580452,-0.7991673946380615,0.7100650668144226
1761316160347060200,6.670060302734375,-0.05864519625902176,-0.7935660481452942,0.43047860264778137
1761316160357042200,6.680042236328125,-0.1716873198747635,-0.7353235483169556,0.10956025123596191
1761316160367024000,6.690024169921875,-0.203581303358078,-0.6084892749786377,-0.23202097415924072
1761316160377006000,6.700006103515625,-0.15718317031860352,-0.4053158760070801,-0.5793840289115906
1761316160386988300,6.70998828125,-0.022123852744698524,-0.15573865175247192,-0.8609120845794678
1761316160396971300,6.71997119140625,0.19428648054599762,0.14110234379768372,-0.9579222202301025
1761316160406953200,6.729953125,0.4759310483932495,0.20031042397022247,-0.9021123647689819
1761316160416935200,6.73993505859375,0.8431811928749084,-0.25217875838279724,-1.0029159784317017
1761316160426917000,6.749917236328125,1.2477375268936157,-1.1964998245239258,-1.411646842956543
1761316160436899000,6.759899169921875,1.6027898788452148,-2.4941189289093018,-2.2041258811950684
1761316160446881000,6.769881103515625,1.8206322193145752,-3.522624969482422,-3.234023094177246
1761316160456864000,6.779864013671875,1.6778311729431152,-3.519428253173828,-4.081499099731445
1761316160466846200,6.78984619140625,1.1771457195281982,-2.214564561843872,-4.282424449920654
1761316160476828200,6.799828125,0.49612852931022644,-0.013314958661794662,-3.649090528488159
1761316160486810000,6.80981005859375,-0.05210651084780693,2.265246868133545,-2.637042999267578
1761316160496792000,6.8197919921875,-0.23822791874408722,3.7218353748321533,-1.7648779153823853
1761316160506774300,6.829774169921875,-0.14949864149093628,4.216712474822998,-1.2676429748535156
1761316160516757200,6.83975732421875,0.034097544848918915,4.049785614013672,-1.104297399520874
1761316160526739200,6.8497392578125,0.20100891590118408,3.471619129180908,-1.0281801223754883
1761316160536721200,6.85972119140625,0.2087448537349701,2.690645694732666,-0.9598821997642517
1761316160546703000,6.869703125,0.08624528348445892,1.9150540828704834,-0.8773874044418335
1761316160556685300,6.879685302734375,-0.10108945518732071,1.340195894241333,-0.8062729835510254
1761316160566667000,6.8896669921875,-0.3021373152732849,1.0408644676208496,-0.8222393989562988
1761316160576650200,6.899650146484375,-0.4896363615989685,1.0187854766845703,-0.9719610214233398
1761316160586632200,6.909632080078125,-0.6622875928878784,1.2249213457107544,-1.246790885925293
1761316160596614100,6.9196142578125,-0.8040900230407715,1.4943208694458008,-1.5636273622512817
1761316160606596400,6.929596435546875,-0.9179128408432007,1.7107021808624268,-1.8109136819839478
1761316160616578300,6.939578369140625,-0.9616470336914062,1.815933346748352,-1.8920978307724
1761316160626560300,6.949560302734375,-0.8993179202079773,1.7959164381027222,-1.7413221597671509
1761316160636543200,6.959543212890625,-0.761630117893219,1.6625603437423706,-1.3831430673599243
1761316160646525200,6.969525146484375,-0.6199939846992493,1.4164305925369263,-0.8801574110984802
1761316160656507100,6.979507080078125,-0.5032846331596375,1.0794947147369385,-0.30039629340171814
1761316160666489000,6.989489013671875,-0.40007898211479187,0.7469504475593567,0.2826055586338043
1761316160676471300,6.99947119140625,-0.3119525611400604,0.4547848701477051,0.7971146702766418
1761316160686453200,7.009453369140625,-0.2486352175474167,0.17643730342388153,1.2271753549575806
1761316160696436200,7.019436279296875,-0.20096570253372192,-0.012009305879473686,1.5728483200073242
1761316160706418200,7.029418212890625,-0.1469443142414093,-0.0922694206237793,1.8163427114486694
1761316160716400000,7.039400146484375,-0.09307176619768143,-0.10173056274652481,1.9574066400527954
1761316160726382300,7.04938232421875,-0.03513944521546364,-0.052874185144901276,2.0048141479492188
1761316160736364000,7.059364013671875,0.014902680180966854,0.0073510752990841866,1.95973801612854
1761316160746346200,7.06934619140625,0.06995511800050735,0.0582638680934906,1.849953532218933
1761316160756329200,7.0793291015625,0.11380433291196823,0.07623168081045151,1.6892839670181274
1761316160766311200,7.089311279296875,0.13451938331127167,0.010089308023452759,1.496922492980957
1761316160776293400,7.09929345703125,0.12259401381015778,-0.12763047218322754,1.3145265579223633
1761316160786275000,7.109275146484375,0.09397383779287338,-0.2934309244155884,1.184522271156311
1761316160796257300,7.11925732421875,0.049349382519721985,-0.43140876293182373,1.1114014387130737
1761316160806239200,7.1292392578125,-0.008364569395780563,-0.523533284664154,1.0777379274368286
1761316160816222200,7.13922216796875,-0.0740988478064537,-0.5554131865501404,1.0496141910552979
1761316160826204400,7.149204345703125,-0.13308677077293396,-0.4941570460796356,1.0148077011108398
1761316160836186000,7.15918603515625,-0.16253308951854706,-0.3299659788608551,0.9961744546890259
1761316160846168300,7.169168212890625,-0.17153503000736237,-0.11075389385223389,1.0016381740570068
1761316160856150300,7.179150390625,-0.1790211796760559,0.08455567806959152,1.0383048057556152
1761316160866132200,7.18913232421875,-0.18389806151390076,0.21135109663009644,1.1055340766906738
1761316160876115200,7.199115234375,-0.19572915136814117,0.26592326164245605,1.1953388452529907
1761316160886097200,7.20909716796875,-0.20444807410240173,0.24337033927440643,1.2557196617126465
1761316160896079400,7.219079345703125,-0.20860499143600464,0.14137180149555206,1.2522023916244507
1761316160906061000,7.22906103515625,-0.24516640603542328,0.024372069165110588,1.2060728073120117
1761316160916043300,7.239043212890625,-0.3237943649291992,-0.06855787336826324,1.1144075393676758
1761316160926025200,7.249025146484375,-0.4451003968715668,-0.1336412876844406,0.9844080209732056
1761316160936008200,7.25900830078125,-0.5852658152580261,-0.21614761650562286,0.8412162065505981
1761316160945990400,7.268990478515625,-0.6821092367172241,-0.10789038985967636,0.744456946849823
1761316160955972000,7.27897216796875,-0.6568006873130798,0.12431754916906357,0.6578037738800049
1761316160965954300,7.288954345703125,-0.4983515441417694,0.23041453957557678,0.435030996799469
1761316160975936300,7.298936279296875,-0.2870965600013733,0.09147980809211731,-0.06200221925973892
1761316160985918200,7.308918212890625,-0.08568217605352402,-0.2147521674633026,-0.8090792894363403
1761316160995901400,7.3189013671875,0.14305752515792847,-0.4608631134033203,-1.4874277114868164
1761316161005883100,7.328883056640625,0.41276195645332336,-0.502129852771759,-1.9111167192459106
1761316161015865300,7.338865234375,0.5966393947601318,-0.43527382612228394,-2.017435073852539
1761316161025847300,7.348847412109375,0.6134551763534546,-0.3051375448703766,-1.691742181777954
1761316161035829200,7.358829345703125,0.5075625777244568,-0.11139257252216339,-0.9891475439071655
1761316161045811200,7.368811279296875,0.4191897213459015,0.05624619126319885,-0.2186829149723053
1761316161055794200,7.378794189453125,0.4254191219806671,0.0858946293592453,0.34523558616638184
1761316161065776400,7.3887763671875,0.5227302312850952,0.05262628570199013,0.6082584857940674
1761316161075758300,7.39875830078125,0.577434778213501,-0.05013364553451538,0.5823323726654053
1761316161085740300,7.408740234375,0.4909912943840027,-0.2347152829170227,0.3001309931278229
1761316161095722200,7.41872216796875,0.26301324367523193,-0.46931102871894836,-0.16742074489593506
1761316161105704200,7.4287041015625,-0.05148424953222275,-0.6676543951034546,-0.7049286365509033
1761316161115687200,7.438687255859375,-0.39384743571281433,-0.7641593813896179,-1.2544342279434204
1761316161125669000,7.448669189453125,-0.7109955549240112,-0.7705414295196533,-1.7656407356262207
1761316161135651000,7.458651123046875,-0.9573768377304077,-0.7552018761634827,-2.180081605911255
1761316161145633300,7.46863330078125,-1.0764122009277344,-0.6329900622367859,-2.4183850288391113
1761316161155615200,7.478615234375,-1.037806510925293,-0.39914587140083313,-2.4164326190948486
1761316161165597200,7.48859716796875,-0.9180557131767273,-0.15561020374298096,-2.237027406692505
1761316161175580200,7.498580078125,-0.7954370975494385,0.03919922187924385,-1.941689133644104
1761316161185562000,7.50856201171875,-0.726126492023468,0.1512945592403412,-1.5812522172927856
1761316161195544300,7.51854443359375,-0.7612125873565674,0.16338717937469482,-1.2303301095962524
1761316161205526000,7.528526123046875,-0.8726410269737244,0.1071290671825409,-0.9481954574584961
1761316161215508200,7.53850830078125,-0.9963730573654175,0.07340572029352188,-0.7638599872589111
1761316161225490400,7.548490478515625,-1.121429443359375,0.04976793751120567,-0.6676450967788696
1761316161235473200,7.55847314453125,-1.1868760585784912,0.07066496461629868,-0.6456793546676636
1761316161245455400,7.568455322265625,-1.1023194789886475,0.1637101024389267,-0.6147741079330444
1761316161255437000,7.57843701171875,-0.8427233099937439,0.29248031973838806,-0.4923397898674011
1761316161265419300,7.588419189453125,-0.4987476170063019,0.4293178915977478,-0.31053751707077026
1761316161275401200,7.598401123046875,-0.18066339194774628,0.5133892893791199,-0.10248686373233795
1761316161285383200,7.608383056640625,0.05435753986239433,0.450103223323822,0.09553399682044983
1761316161295366400,7.618366455078125,0.21363800764083862,0.28118905425071716,0.19150711596012115
1761316161305348000,7.62834814453125,0.29145535826683044,0.365939736366272,0.35574060678482056
1761316161315330300,7.638330322265625,0.24118421971797943,0.40983715653419495,0.5417200326919556
1761316161325312300,7.648312255859375,0.09070140868425369,0.2758321166038513,0.6937835216522217
1761316161335294200,7.658294189453125,-0.0999622792005539,0.12520508468151093,0.8045233488082886
1761316161345276200,7.668276123046875,-0.2597385346889496,0.08902400732040405,0.863869845867157
1761316161355258000,7.678258056640625,-0.3358492851257324,0.1958969384431839,0.8954570889472961
1761316161365241300,7.688241455078125,-0.32893529534339905,0.41524016857147217,0.9334989190101624
1761316161375223000,7.69822314453125,-0.2641153037548065,0.6469962000846863,0.9822640419006348
1761316161385205200,7.708205322265625,-0.1290706843137741,0.809907078742981,1.0019524097442627
1761316161395187200,7.718187255859375,0.036551568657159805,0.875873863697052,0.9835801124572754
1761316161405169200,7.728169189453125,0.16249583661556244,0.7999818921089172,0.934009850025177
1761316161415151000,7.738151123046875,0.19338876008987427,0.6538265347480774,0.8470821380615234
1761316161425134000,7.748134033203125,0.11031807214021683,0.5992581844329834,0.6986508369445801
1761316161435116300,7.7581162109375,-0.013477102853357792,0.6434264779090881,0.49207422137260437
1761316161445098200,7.76809814453125,-0.09919434785842896,0.6588607430458069,0.23992110788822174
1761316161455080200,7.778080078125,-0.08426626771688461,0.6187692284584045,-0.0782800242304802
1761316161465062100,7.788062255859375,0.026397639885544777,0.5163973569869995,-0.44563916325569153
1761316161475044400,7.79804443359375,0.15845900774002075,0.34977006912231445,-0.8000800609588623
1761316161485027300,7.80802734375,0.26519620418548584,0.20981810986995697,-1.0582703351974487
1761316161495009300,7.81800927734375,0.336467981338501,0.21392789483070374,-1.182220220565796
1761316161504991200,7.8279912109375,0.3563900589942932,0.35706767439842224,-1.1960947513580322
1761316161514973200,7.83797314453125,0.28312382102012634,0.5444445013999939,-1.1567553281784058
1761316161524955400,7.847955322265625,0.14170759916305542,0.5762724280357361,-1.1123223304748535
1761316161534937000,7.85793701171875,0.04182467982172966,0.3291965425014496,-1.0512841939926147
1761316161544920300,7.86792041015625,0.010117502883076668,-0.2200189232826233,-0.9885913729667664
1761316161554902300,7.87790234375,-0.015011819079518318,-0.8530363440513611,-0.9352530241012573
1761316161564884200,7.88788427734375,-0.0722389742732048,-1.1695799827575684,-0.8637059926986694
1761316161574866200,7.8978662109375,-0.12831395864486694,-1.1007988452911377,-0.7281090021133423
1761316161584848100,7.90784814453125,-0.12795162200927734,-0.7313979268074036,-0.5006954073905945
1761316161594830300,7.917830322265625,-0.05511736497282982,-0.2570260763168335,-0.22485476732254028
1761316161604813300,7.927813232421875,0.05105218291282654,0.20784765481948853,-0.011723347008228302
1761316161614795300,7.937795166015625,0.13123971223831177,0.5658130049705505,0.05610310286283493
1761316161624777200,7.947777099609375,0.07385648787021637,0.7962779998779297,-0.06020708754658699
1761316161634759200,7.95775927734375,-0.16093790531158447,0.8231223821640015,-0.3595096468925476
1761316161644741400,7.967741455078125,-0.49476853013038635,0.6055620312690735,-0.7561516761779785
1761316161654723000,7.97772314453125,-0.7772703170776367,0.32642653584480286,-1.079479694366455
1761316161664705300,7.987705322265625,-0.9438963532447815,0.16556881368160248,-1.2199219465255737
1761316161674688300,7.997688232421875,-1.0082857608795166,0.04914739355444908,-1.1701732873916626
1761316161684670200,8.007670166015625,-0.9803472757339478,-0.035442087799310684,-0.9897093772888184
1761316161694652400,8.01765234375,-0.8824886083602905,-0.09134051203727722,-0.7124897837638855
1761316161704634000,8.027634033203125,-0.7570742964744568,-0.0849403589963913,-0.3821411430835724
1761316161714616300,8.0376162109375,-0.6728371381759644,0.015092764049768448,-0.08083801716566086
1761316161724598300,8.047598388671876,-0.6363096833229065,0.16990314424037933,0.12641382217407227
1761316161734581200,8.057581298828126,-0.631345808506012,0.30729910731315613,0.20633314549922943
1761316161744563500,8.0675634765625,-0.6590976715087891,0.31672996282577515,0.12947547435760498
1761316161754545200,8.077545166015625,-0.7091994881629944,0.25864002108573914,-0.06448066979646683
1761316161764527400,8.08752734375,-0.7649672031402588,0.22067464888095856,-0.28269216418266296
1761316161774509300,8.09750927734375,-0.7765703201293945,0.1823919713497162,-0.40123450756073
1761316161784491300,8.1074912109375,-0.7248797416687012,0.15012221038341522,-0.35193970799446106
1761316161794474200,8.11747412109375,-0.6175863146781921,0.16865754127502441,-0.16606679558753967
1761316161804456200,8.127456298828125,-0.4678082764148712,0.21183252334594727,0.08089902997016907
1761316161814438400,8.1374384765625,-0.267322838306427,0.28685349225997925,0.3329118490219116
1761316161824420000,8.147420166015625,-0.03592684492468834,0.3393661677837372,0.5528682470321655
1761316161834402300,8.15740234375,0.1395309865474701,0.2929576337337494,0.698682427406311
1761316161844384300,8.16738427734375,0.17561013996601105,0.16655795276165009,0.806287944316864
1761316161854367200,8.1773671875,0.10407017916440964,0.07214463502168655,0.8763123154640198
1761316161864349400,8.187349365234375,0.034853290766477585,0.054061729460954666,0.9157944917678833
1761316161874331100,8.1973310546875,0.022052545100450516,0.0886085256934166,0.9081243276596069
1761316161884313300,8.207313232421875,0.05692677944898605,0.18869566917419434,0.829052209854126
1761316161894295300,8.21729541015625,0.11099772900342941,0.3552444279193878,0.6948350071907043
1761316161904277200,8.22727734375,0.19037364423274994,0.5347819924354553,0.5798958539962769
1761316161914259200,8.23725927734375,0.2980055809020996,0.6618115901947021,0.5168889164924622
1761316161924242200,8.2472421875,0.4192515015602112,0.7358515858650208,0.5080807209014893
1761316161934224400,8.257224365234375,0.5417079329490662,0.7471678853034973,0.513866126537323
1761316161944206300,8.267206298828125,0.6654006838798523,0.7240725159645081,0.49339744448661804
1761316161954188300,8.277188232421874,0.7800476551055908,0.7407465577125549,0.434300035238266
1761316161964170200,8.287170166015626,0.8338266611099243,0.7955549359321594,0.3697841167449951
1761316161974152400,8.29715234375,0.8045896887779236,0.9652534127235413,0.3937339186668396
1761316161984135400,8.307135498046875,0.6263321042060852,0.9925844073295593,0.6062196493148804
1761316161994117400,8.317117431640625,0.5227734446525574,0.46867111325263977,0.6884897351264954
1761316162004099300,8.327099365234375,0.5136674642562866,-0.1238173246383667,0.7635135054588318
1761316162014081300,8.337081298828124,0.4789241552352905,-0.5306383371353149,0.787556529045105
1761316162024063200,8.347063232421876,0.33412256836891174,-0.7467260360717773,0.6558685898780823
1761316162034045200,8.357045166015626,0.13233430683612823,-0.9280840754508972,0.21728354692459106
1761316162044028200,8.367028076171875,0.032561399042606354,-1.0244154930114746,-0.3944876492023468
1761316162054010000,8.377010009765625,0.09332089126110077,-0.9501404166221619,-0.9355967044830322
1761316162063992300,8.386992431640625,0.24711447954177856,-0.8281882405281067,-1.2377440929412842
