time,seconds_elapsed,z,y,x
1761317111546842000,0.079842041015625,-0.22508009049594402,-0.17649316972047088,-0.3969695658132434
1761317111556824000,0.089823974609375,-0.07977613202631473,-0.16707053072825073,-0.2835824752818793
1761317111566807000,0.09980712890625,0.008508300626277924,-0.11423691229373216,-0.16346885297447442
1761317111576790000,0.1097900390625,0.04942950907945633,-0.043596857403218746,-0.04550312941595912
1761317111586773200,0.119773193359375,0.08861585656404494,-0.011313640370592475,0.034448066916316744
1761317111596756000,0.129755859375,0.06769757169783115,0.013958236595243215,0.08274798744395374
1761317111606739000,0.139739013671875,0.028859599259495734,0.0019073679912835358,0.05859861170202493
1761317111616721200,0.14972119140625,-0.019874328771233556,-0.008259221236035227,0.0012852175049483776
1761317111626704000,0.159703857421875,-0.02641629776060581,-0.02227079545371234,-0.04506517639011144
1761317111636687000,0.16968701171875,-0.011270751076936722,-0.05152363181449473,-0.058838484872505065
1761317111646670000,0.179670166015625,-0.009027940586209296,-0.07622399250268935,-0.06798259918428957
1761317111656653000,0.189653076171875,-0.06492810698449611,-0.05689904124252498,-0.07415317757800222
1761317111666636000,0.199635986328125,-0.1590536668807268,-0.014861395980045199,-0.05935885548479855
1761317111676618000,0.209617919921875,-0.24837153423428535,0.021554829204082488,-0.033422450195625425
1761317111686601200,0.219601318359375,-0.27722821088433264,0.05927183478847146,0.022358035345748064
1761317111696584000,0.229583984375,-0.21555939795672893,0.08669920928776263,0.08785641649886965
1761317111706567200,0.239567138671875,-0.11546762313246726,0.09785860894471406,0.12554039659649133
1761317111716550100,0.249550048828125,-0.014222586619853973,0.09063596421480179,0.1616898971358314
1761317111726533000,0.259533203125,0.08815349974930285,0.07889109282009303,0.14673048414140938
1761317111736515000,0.26951513671875,0.12738777802884577,0.06458090098202228,0.0821926916487515
1761317111746498000,0.279498046875,0.14220423888862133,0.046868207224085925,0.04575933266673237
1761317111756481300,0.289481201171875,0.11236965711712836,0.035195524282753465,0.013974858936481177
1761317111766464000,0.299464111328125,0.06506254701912403,0.01493599558621645,-0.032315183073468506
1761317111776447000,0.309447021484375,0.0184346513569355,-0.010538856605812906,-0.04056286000218242
1761317111786430200,0.31943017578125,-0.040347207957506175,-0.014826689992845057,-0.027809030760638415
1761317111796412000,0.329411865234375,-0.10324585494101048,0.009097133364900947,-0.018566607173532246
1761317111806395100,0.33939501953125,-0.08912965130507945,0.038954949881508945,-0.023833989649824798
1761317111816378000,0.349378173828125,-0.05942191078364849,0.0737771108072251,-0.0031449469622224567
1761317111826361000,0.359361083984375,-0.05546352854669094,0.03255940362550318,0.036183110547997055
1761317111836344000,0.369343994140625,-0.12533376810848712,-0.004794321604445577,0.03655252838227898
1761317111846327000,0.3793271484375,-0.20228139871060846,-0.016817790744826196,0.023732246308401227
1761317111856309200,0.389309326171875,-0.27687983583807946,-0.0028331045340746638,0.003978329046443105
1761317111866292000,0.3992919921875,-0.3173024471193552,0.012799641144648193,-0.024817301598750053
1761317111876275000,0.40927490234375,-0.2756055781185627,0.0008377659983932972,-0.04059632388036698
1761317111886258200,0.419258056640625,-0.191379480946064,-0.03958623352237046,-0.057859739500842985
1761317111896241200,0.4292412109375,-0.051715574190020555,-0.07209522213488817,-0.06490593168530613
1761317111906224000,0.43922412109375,0.08874152877032757,-0.09869637494310736,-0.052459049501083786
1761317111916206000,0.4492060546875,0.19995032541453836,-0.13215557695254682,-0.04175053541678935
1761317111926189300,0.459189208984375,0.2266319961130619,-0.12199074129089713,-0.06167337950486689
1761317111936172000,0.469172119140625,0.1871691697746515,-0.10592194228246807,-0.08762848949450999
1761317111946155000,0.479155029296875,0.1122241111665964,-0.07838080521039664,-0.06999901704061776
1761317111956138200,0.48913818359375,-0.03566869475245476,-0.061957932067289945,-0.04419931680839508
1761317111966121000,0.499120849609375,-0.22460487419962882,-0.04217179303616285,-0.027034831517748534
1761317111976103200,0.509103271484375,-0.37989480463266373,-0.024638620563596485,-0.0132405167799443
1761317111986086100,0.519086181640625,-0.3949444897264242,-0.01814151362925768,-0.006027881987392902
1761317111996069000,0.529069091796875,-0.348875396990776,-0.006952303355932235,0.012910554173216224
1761317112006052000,0.539052001953125,-0.25444062501490117,-0.021552491116523742,0.0015582622926682234
1761317112016035000,0.54903515625,-0.18622049074769018,-0.029153540704771875,-0.03295139861777425
1761317112026018000,0.55901806640625,-0.1304804833471775,-0.046372751857340334,-0.12481621050778775
1761317112036000000,0.569,-0.09034662587940692,-0.0777263598896563,-0.23493206081613896
1761317112045983000,0.57898291015625,-0.05461655632853508,-0.11409348523505031,-0.30729999894518406
1761317112055966200,0.58896630859375,-0.026818448820710182,-0.14907017913535237,-0.37320352683309466
1761317112065949000,0.598948974609375,0.007421089911460876,-0.19357794083841143,-0.428451987856999
1761317112075932000,0.608931884765625,0.030778000101447104,-0.21707791276089847,-0.46031708907540886
1761317112085915100,0.6189150390625,0.0162257431358099,-0.21556487784944472,-0.4367225342046469
1761317112095896800,0.628896728515625,-0.04209960458278656,-0.2098142053682357,-0.3777090215587988
1761317112105880000,0.638880126953125,-0.059604281613230704,-0.1907793230958283,-0.3125228481600061
1761317112115863000,0.648863037109375,-0.05695055223405361,-0.18865619346201418,-0.2692659633008763
1761317112125846300,0.65884619140625,0.00741524469256401,-0.17467231096886096,-0.2628927384745329
1761317112135829000,0.6688291015625,0.10414718769490718,-0.1581524071920663,-0.2546662869969383
1761317112145812000,0.67881201171875,0.19568097753226757,-0.14004742618091404,-0.24104550219513474
1761317112155794200,0.688794189453125,0.18780103793740272,-0.12962941947579384,-0.24451208232715724
1761317112165777000,0.69877685546875,0.09596738837063312,-0.10199629327133297,-0.2315972538376227
1761317112175760100,0.708760009765625,-0.009732289463281632,-0.0806399823140353,-0.3090359193596989
1761317112185743000,0.7187431640625,-0.11484978349506854,-0.07187997194901108,-0.3302386106578633
1761317112195726000,0.72872607421875,-0.16253858638703822,-0.054498190645873544,-0.3115068760504946
1761317112205709000,0.738708984375,-0.14964578706622123,-0.05406688655652105,-0.24785196733959017
1761317112215691000,0.74869091796875,-0.14954408025741575,-0.047952860655635594,-0.19126389174237846
1761317112225674200,0.75867431640625,-0.13637187947332857,-0.02137304289638996,-0.15157379598673432
1761317112235657000,0.768656982421875,-0.10356500389277934,-0.010923691204935311,-0.11895100826881826
1761317112245640000,0.778639892578125,-0.06774257988333701,-0.026121041141077876,-0.10292319885790348
1761317112255623200,0.788623046875,-0.058229486128687856,-0.04110701334886253,-0.10072530522113665
1761317112265606100,0.798606201171875,-0.09390461062192916,-0.02301255373172462,-0.14800967376437038
1761317112275588000,0.808588134765625,-0.12694120330512523,-0.006371580858528614,-0.23394425535518676
1761317112285571000,0.818571044921875,-0.11808628119826316,0.005953209315985441,-0.25893967173350974
1761317112295554000,0.828553955078125,-0.059709495553374285,0.035652328139543533,-0.22693459578882902
1761317112305537000,0.838537109375,0.03251870628893375,0.05878339368440211,-0.1848255109916441
1761317112315520000,0.84852001953125,0.13613281002044678,0.05672872617691755,-0.1422307067704387
1761317112325503200,0.858503173828125,0.18086393215060234,0.06461904103532433,-0.10159260784126818
1761317112335485000,0.86848486328125,0.15645838969051837,0.04924743051081896,-0.07476166486516594
1761317112345468200,0.87846826171875,0.09819967746734619,0.06789981627166271,-0.057260549764987075
1761317112355451100,0.888451171875,0.0118032505184412,0.11472199239693581,-0.05502126467190683
1761317112365434000,0.89843408203125,-0.0687193159610033,0.13474902751185,-0.05493009752342477
1761317112375417000,0.9084169921875,-0.14780512763559817,0.17554215260595082,-0.06184113728720694
1761317112385399000,0.91839892578125,-0.2349754615664482,0.1953829444337636,-0.1106216992049478
1761317112395382300,0.92838232421875,-0.28161563218832014,0.21503040564656256,-0.1644552884622477
1761317112405365000,0.938364990234375,-0.248155845656991,0.22588936105221508,-0.17089246363658456
1761317112415348000,0.948347900390625,-0.16535247476398943,0.23915537759959696,-0.12436462168223224
1761317112425331200,0.958331298828125,-0.03172317199707031,0.2313259260829538,-0.08075255757672711
1761317112435314200,0.968314208984375,0.09295593159496783,0.22576113156266508,-0.021633671160531227
1761317112445296000,0.978296142578125,0.17377426615059374,0.1919216980639845,0.031129103677615056
1761317112455279000,0.988279052734375,0.2632897019028663,0.15646489249654114,0.052135356804938054
1761317112465262000,0.998261962890625,0.30512977876663205,0.11101283568069338,0.0603646395604359
1761317112475245000,1.0082451171875,0.344520708912611,0.08414156069420277,0.0802085046947468
1761317112485228000,1.01822802734375,0.37577158722281456,0.06264927533231675,0.07088327992870472
1761317112495211000,1.0282109375,0.29980186174213885,0.020590587281808254,0.059067393690976314
1761317112505193000,1.03819287109375,0.17489421009123324,-0.016974954067915677,0.03862407395932823
1761317112515176000,1.048176025390625,0.048535190588235855,-0.04787950315847993,0.05143819115390069
1761317112525159000,1.058158935546875,-0.05420914457142353,-0.062464639480412004,0.09360582860475405
1761317112535142000,1.068141845703125,-0.12421557773351669,-0.0716194213166833,0.17406566857891156
1761317112545125000,1.078125,-0.16001578991115092,-0.07211480361819267,0.2629626984382048
1761317112555107800,1.08810791015625,-0.2072866596519947,-0.06411430638357997,0.34065771334152667
1761317112565090000,1.098090087890625,-0.2444914779305458,-0.046777241005003446,0.37741690674442796
1761317112575073000,1.108072998046875,-0.2587690096080303,-0.04332337422408163,0.39667233643233774
1761317112585055700,1.1180556640625,-0.24666706840395927,-0.060156508668512104,0.36951369587183
1761317112595039000,1.1280390625,-0.22131927665770051,-0.06694901835285126,0.3217190214525908
1761317112605022000,1.13802197265625,-0.1844908904761076,-0.06223989081382751,0.26611166398841885
1761317112615005000,1.1480048828125,-0.16367840407192705,-0.05627462573386728,0.2374416690168902
1761317112624987000,1.15798681640625,-0.15703414375185965,-0.0499167080745101,0.21698787812357767
1761317112634969900,1.167969970703125,-0.17696283305883406,-0.053873629006743425,0.17132435224782674
1761317112644953000,1.177953125,-0.19188158524930476,-0.06010287878513336,0.11929472540626301
1761317112654935800,1.187935791015625,-0.2127232977479696,-0.06861760915219783,0.10723328060936183
1761317112664918800,1.197918701171875,-0.24691081403195855,-0.05576645701602101,0.12183277425020933
1761317112674902000,1.207902099609375,-0.2705821969985962,-0.04827865854389965,0.1453472861547023
1761317112684883700,1.2178837890625,-0.2457762570440769,-0.03351188204474747,0.17122299249889328
1761317112694867000,1.227866943359375,-0.1923983025997877,-0.03939940571337938,0.17953768851552157
1761317112704850000,1.237849853515625,-0.13109832298457622,-0.061157502404600377,0.17478030138798056
1761317112714833000,1.2478330078125,-0.07246317866444588,-0.07195997838266194,0.15780679035848005
1761317112724816000,1.25781591796875,-0.011812018346786498,-0.03498948031663895,0.10331678301906212
1761317112734798800,1.267798828125,0.04013444198966026,-0.02112535174563527,0.055025502455607056
1761317112744781000,1.277781005859375,0.10305997698009013,-0.04648366488590836,0.010825235799141228
1761317112754763800,1.287763671875,0.14184709601402282,-0.06910634251721202,-0.03552729525407776
1761317112764747000,1.2977470703125,0.19777298137545585,-0.06546725536249577,-0.07603155693681911
1761317112774730000,1.30772998046875,0.1875619684845209,-0.060597092042863364,-0.06973607352180405
1761317112784712700,1.317712646484375,0.14373627076148987,-0.05864603104032576,-0.06643533320967107
1761317112794695000,1.32769482421875,0.08881284044086933,-0.061262131822854275,-0.05743133975462988
1761317112804678000,1.337677978515625,0.060325581625103944,-0.07705277147702873,-0.0299256758547388
1761317112814661000,1.3476611328125,0.06144903269708156,-0.0976968425117433,0.013905446962080894
1761317112824643800,1.357643798828125,0.07470832724273205,-0.11530015761107205,0.0406561825751327
1761317112834626800,1.367626708984375,0.084557521083951,-0.1259480275493115,0.03290531272003427
1761317112844610000,1.377610107421875,0.15641864220201968,-0.1453439251538366,0.033376364297885444
1761317112854591700,1.387591796875,0.2128928090959787,-0.15695033792592583,0.039456213934533295
1761317112864575000,1.397574951171875,0.25212299572229385,-0.1697227257374674,0.03834353998489678
1761317112874558000,1.407557861328125,0.24143559749126434,-0.17175715417452156,0.020477007372118532
1761317112884540700,1.417540771484375,0.2066021845191717,-0.18630597707405686,0.004937474668491632
1761317112894524000,1.42752392578125,0.04457622382938862,-0.21203144302628932,-0.012344152462109922
1761317112904507000,1.4375068359375,-0.18242577463984488,-0.23913638063818216,-0.033316432537883515
1761317112914488800,1.44748876953125,-0.4182715893000364,-0.23388890843875704,-0.0413424295399338
1761317112924471800,1.457471923828125,-0.5817126774847508,-0.218920471887663,-0.042108372411131856
1761317112934455000,1.467455078125,-0.6319844826072454,-0.19091617428325117,-0.03572170358132571
1761317112944438000,1.47743798828125,-0.5606494311898946,-0.1485430865213275,-0.027847572672739622
1761317112954420700,1.487420654296875,-0.4352689013302326,-0.12252762464657425,-0.0022093466125428676
1761317112964404000,1.497404052734375,-0.3496276766628027,-0.10498042364865541,0.028915019241161643
1761317112974386000,1.507385986328125,-0.29092589684724807,-0.1013585068244487,0.031760873658955094
1761317112984369000,1.517368896484375,-0.2964864535838365,-0.10475750161297619,0.05112604733165353
1761317112994351900,1.527351806640625,-0.2576625096708536,-0.11552081462442874,0.06902030820157379
1761317113004334800,1.5373349609375,-0.2131675343841314,-0.09866714884862303,0.06125091630909592
1761317113014318000,1.547318115234375,-0.1283978318542242,-0.05560987821482122,0.05041212690863758
1761317113024299800,1.5572998046875,-0.04357552235424518,-0.016054112895950674,0.05955737373158335
1761317113034283000,1.567282958984375,0.042380759611725806,-0.01268916650749743,0.047742213579639786
1761317113044266000,1.577265869140625,0.06185001471340656,-0.01328939742296934,0.035596615896932776
1761317113054248700,1.587248779296875,0.0027051673054695126,-0.024721987998113034,-0.013649974363669753
1761317113064232000,1.59723193359375,-0.03401508232653141,-0.02229271502457559,-0.039777810571715234
1761317113074215000,1.60721484375,-0.0803355194747448,0.006809826145321131,-0.04674816104099154
1761317113084196900,1.61719677734375,-0.12334580916166304,0.042544133479893206,-0.04546502589527517
1761317113094179800,1.627179931640625,-0.0882908623933792,0.055800505416095256,-0.04441021961271763
1761317113104162800,1.637162841796875,-0.006612696138024329,0.0402825452234596,-0.027609708796255288
1761317113114146000,1.64714599609375,0.06409457876980304,0.03741780344210565,-0.023985673080198465
1761317113124128800,1.657128662109375,0.12404022116661072,0.022516806104034184,-0.009442914595268666
1761317113134112000,1.667112060546875,0.12746318135261536,0.013944646461308002,-0.01883329528570175
1761317113144094000,1.677093994140625,0.12047756024897098,0.026675679349154234,-0.0322469766754657
1761317113154077000,1.687076904296875,0.11637597014904022,0.04569353742152452,-0.00579111408945173
1761317113164060000,1.697059814453125,0.08566519006490707,0.040606297285109755,-0.003889335588738322
1761317113174043000,1.70704296875,0.055256023275852204,0.015796631003543733,-0.019433891527354717
1761317113184026000,1.717026123046875,0.024279870253801343,-0.018342443028837443,-0.05544383746553212
1761317113194008800,1.7270087890625,0.05354337413907051,-0.014285276592522858,-0.09347681366391479
1761317113203991000,1.736990966796875,0.15243512552380561,-0.006321385041251779,-0.10342285547573118
1761317113213974000,1.74697412109375,0.26540157949030396,-0.0009239829771220683,-0.061825136000476774
1761317113223956700,1.756956787109375,0.37237668408751484,-0.0011946896772831678,-0.008414009938947855
1761317113233940000,1.76693994140625,0.44928924337625503,0.0007868395287543535,0.03552837296631187
1761317113243923000,1.7769228515625,0.43790392600893974,-0.013004077675566076,0.011227642587572336
1761317113253905000,1.78690478515625,0.35408290250599384,-0.004881999887898564,-0.015278233152627944
1761317113263888000,1.796887939453125,0.2322135956376791,-0.0030413404572755096,-0.00861994430720806
1761317113273870800,1.806870849609375,0.018421207353472708,0.022997721488773822,0.01011263055037707
1761317113283854000,1.81685400390625,-0.2884247276812792,0.048702144652977584,0.04271240271888673
1761317113293836800,1.8268369140625,-0.5327969631463289,0.05851721702888608,0.06273056040760129
1761317113303819800,1.83681982421875,-0.7201841595858335,0.06954911784864962,0.051977768790163095
1761317113313802000,1.846802001953125,-0.7973170836269855,0.1078130167260766,0.018470709051005542
1761317113323784700,1.85678466796875,-0.734862673279643,0.09618103112131357,-0.02560246062707156
1761317113333768000,1.866767822265625,-0.5953612636089325,0.05524754770845174,-0.02577186237722635
1761317113343751000,1.8767509765625,-0.4420522778600454,0.008489449795335531,-0.007598784565925598
1761317113353734100,1.886734130859375,-0.2940577651321888,-0.031822906044498084,0.008254983452335
1761317113363716900,1.896716796875,-0.15892624110877512,-0.06534684385322034,0.030483802927844226
1761317113373699000,1.906698974609375,-0.06899696385860443,-0.10269063221104442,-0.0018605697074905038
1761317113383682000,1.91668212890625,-0.03345101870298386,-0.12815372090004384,-0.018729615715518594
1761317113393664800,1.926664794921875,-0.04214285920262337,-0.12486300879158078,-0.02054269301947206
1761317113403648000,1.93664794921875,-0.08691665143072605,-0.11002543207854032,-0.04025993153285235
1761317113413631000,1.946630859375,-0.16891747376918792,-0.09470657465457916,-0.07369173407871275
1761317113423613000,1.956613037109375,-0.2209410909950733,-0.0911896525748074,-0.07289689390659332
1761317113433596000,1.966595947265625,-0.2327916877865791,-0.09961319752708077,-0.06441537168938666
1761317113443579000,1.976578857421875,-0.23994857380390167,-0.12196392634920775,-0.06696290074773133
1761317113453562000,1.98656201171875,-0.22111761660575865,-0.13749679185003041,-0.04785535509791225
1761317113463544800,1.996544921875,-0.20892858164012432,-0.12874912950992584,-0.028606939672678706
1761317113473527800,2.00652783203125,-0.21261574572026729,-0.11473477881327271,-0.02640110019147396
1761317113483510000,2.016510009765625,-0.20426585052609442,-0.08247823059186339,-0.014852774282172321
1761317113493492700,2.02649267578125,-0.23169103306829927,-0.060729413185641165,-0.014738098393939435
1761317113503476200,2.036476318359375,-0.23725685050189493,-0.07062332295142114,-0.05538370477613061
1761317113513459200,2.046459228515625,-0.16283669255077837,-0.09578574819341301,-0.10341306473407894
1761317113523442200,2.056442138671875,-0.04775368482172489,-0.13456563376896083,-0.12491616375092417
1761317113533425200,2.066425048828125,0.047996261405944825,-0.16735621580183505,-0.15506364739648998
1761317113543407000,2.076406982421875,0.09792787478864193,-0.15801146435141564,-0.14600509247630833
1761317113553390300,2.086390380859375,0.08465864337086677,-0.14493234867826102,-0.11843732312563807
1761317113563373000,2.096373046875,0.03461363274157047,-0.13413016496114433,-0.09213774707987904
1761317113573356000,2.10635595703125,-0.05159399363696575,-0.11403116058856248,-0.06478869851380586
1761317113583339300,2.11633935546875,-0.09964578462243079,-0.07853482672832905,-0.01284815646149218
1761317113593322200,2.126322265625,-0.14950667085647582,-0.05230038834065199,0.017069573548808694
1761317113603304200,2.13630419921875,-0.18943360757529734,-0.046230639972910284,-0.019364735281281173
1761317113613287200,2.146287109375,-0.2053214970588684,-0.03525456099361181,-0.06363046838939189
1761317113623270400,2.1562705078125,-0.18332418478429316,-0.0578112607166171,-0.09953468893077223
1761317113633253000,2.166253173828125,-0.12653086893856524,-0.07005100295618176,-0.1207463672529906
1761317113643236000,2.176236083984375,-0.09699848498404025,-0.07953618579059839,-0.13418770383466033
1761317113653218300,2.18621826171875,-0.13290624918937682,-0.07198635493293404,-0.1348631919434294
1761317113663201000,2.196200927734375,-0.18761691354215143,-0.059887920860201116,-0.12037702248394488
1761317113673184300,2.206184326171875,-0.19730828647315501,-0.034065424274280665,-0.06971201679278165
1761317113683167200,2.216167236328125,-0.17866671436727047,-0.03595649871788919,-0.029798158751241862
1761317113693150200,2.226150146484375,-0.1556026496440172,-0.039003172937408084,-0.03206171976905316
1761317113703133200,2.23613330078125,-0.12695230922102926,-0.03750789287835359,-0.04474679462332278
1761317113713115100,2.246115234375,-0.0660486354470253,-0.03669277710318565,-0.05322612488344312
1761317113723098400,2.256098388671875,0.008133037573099135,-0.0361199456512928,-0.0457359152585268
1761317113733081000,2.2660810546875,0.04419862268865108,-0.046596696806326506,-0.02351191808860749
1761317113743064000,2.27606396484375,0.04542962578833103,-0.06408866048566997,-0.02129215967990458
1761317113753047300,2.28604736328125,0.049664486879110334,-0.04787701894044876,-0.017064787775836882
1761317113763030300,2.2960302734375,0.057985155978798865,-0.029010917363688347,-0.0010251417966559528
1761317113773012200,2.30601220703125,0.04395721514821052,-0.02540595167428255,0.02562394180651754
1761317113782995200,2.3159951171875,0.02287175702154636,-0.004681289684027433,0.02276365700457245
1761317113792978200,2.325978271484375,-0.009885434198379516,0.008999737405031918,0.04087167022302746
1761317113802961200,2.335961181640625,-0.06718611504435539,0.01871500266827643,0.05747450304292142
1761317113812944100,2.345944091796875,-0.1712625755906105,0.03767082835510373,0.06180471426695585
1761317113822926300,2.35592626953125,-0.2855260836303234,0.07394267663247883,0.09493260196279733
1761317113832909000,2.365908935546875,-0.3332902898460626,0.08943550238385796,0.1283619933558628
1761317113842892300,2.375892333984375,-0.30099428639709946,0.09020926323533057,0.13822886898424475
1761317113852875300,2.385875244140625,-0.2058610107630491,0.07533106225095688,0.11633220407254993
1761317113862858200,2.395858154296875,-0.12465104654133319,0.0623775457188487,0.12083167091626673
1761317113872841200,2.40584130859375,-0.08418401159644126,0.053505161020532245,0.09701452280338853
1761317113882823200,2.4158232421875,-0.11385609628260135,0.03332417745292186,0.061304838453419504
1761317113892806400,2.425806396484375,-0.16414076088666915,0.027334508584067226,-0.017833360995538533
1761317113902789000,2.4357890625,-0.20928455547094343,0.036289310868829486,-0.029220504993759094
1761317113912772000,2.445772216796875,-0.19287059628665446,0.034623861874639984,-0.020593948282673954
1761317113922755300,2.45575537109375,-0.1188952594935894,0.028503552363440394,-0.046980398894287644
1761317113932738300,2.46573828125,-0.07525310164391993,0.018838848243653773,-0.04687989766187966
1761317113942720300,2.47572021484375,-0.1211737258195877,-0.003939896732196212,-0.04083641624655574
1761317113952703200,2.485703125,-0.1669932277083397,-0.01011390919201076,-0.06513689089696854
1761317113962686200,2.495686279296875,-0.16570494146347045,-0.009443974041193723,-0.08384688859656453
1761317113972669200,2.505669189453125,-0.1594716000318527,-0.014890402878820895,-0.08382051204629241
1761317113982652200,2.515652099609375,-0.14556816236376763,-0.017674334508925676,-0.08592073572855442
1761317113992634400,2.52563427734375,-0.14507307232320307,-0.009858400060981511,-0.07997245831601321
1761317114002617000,2.5356171875,-0.16010346819460392,-0.0076106941994279614,-0.09139408910572529
1761317114012600000,2.54560009765625,-0.1970692170202732,-0.011734350000694393,-0.11342336742114276
1761317114022583300,2.555583251953125,-0.278275674110651,-0.02920285973921418,-0.15988145947437732
1761317114032566300,2.565566162109375,-0.2659136206656694,-0.032061317910254,-0.19457425839938222
1761317114042549200,2.57554931640625,-0.20847849978506564,-0.04177490267306566,-0.1945458360224962
1761317114052531200,2.58553125,-0.10223463207185268,-0.04773943710066378,-0.19488767173010854
1761317114062514400,2.595514404296875,0.0233189162671566,-0.04801986147724092,-0.18292974210660903
1761317114072497200,2.6054970703125,0.06428337934017181,-0.06263451615460217,-0.1867585796797648
1761317114082480000,2.615480224609375,0.006250292566418647,-0.09398096379376947,-0.20951489362809805
1761317114092463400,2.62546337890625,-0.07556114467978477,-0.08958572450950741,-0.22011771884821354
1761317114102446300,2.6354462890625,-0.08332067276537418,-0.06916172596625983,-0.18102482180073856
1761317114112428300,2.64542822265625,-0.041677579778432845,-0.04687938620522618,-0.1337709031946957
1761317114122411300,2.655411376953125,0.06850479642748833,-0.04058386625759303,-0.10628715886566788
1761317114132394200,2.665394287109375,0.18264497034847735,-0.042114656021445984,-0.13208748015239835
1761317114142377200,2.675377197265625,0.1810568243741989,-0.05915858367234468,-0.1560313599174842
1761317114152360200,2.685360107421875,0.10862520989179611,-0.08294219484180211,-0.2009624615991488
1761317114162342400,2.69534228515625,0.043736265873909,-0.10462817614488303,-0.21475608221720902
1761317114172325000,2.7053251953125,0.008474982878565789,-0.10420315566584468,-0.22828454909306017
1761317114182308000,2.71530810546875,0.0016308160722255706,-0.08460771690122783,-0.23044793767202645
1761317114192291300,2.725291259765625,0.02265139226913452,-0.06450323263593018,-0.19798549161497503
1761317114202274000,2.735274169921875,0.06839139918088913,-0.03271262142583728,-0.14206088489517568
1761317114212257000,2.745257080078125,0.06628828942179679,-0.0256499895632267,-0.09250522868540137
1761317114222239200,2.7552392578125,0.0010819500178098679,-0.014094357130303978,-0.06496672196183353
1761317114232222200,2.76522216796875,-0.13895721979141235,-0.011651713218539953,-0.06884027545955032
1761317114242205200,2.775205078125,-0.1935790368169546,0.003048573915660381,-0.06933054319452495
1761317114252188200,2.785188232421875,-0.1451245102494955,0.007393763513118028,-0.05175506595019251
1761317114262171400,2.79517138671875,-0.048050621941685676,0.004849047466367483,-0.017729243033938108
1761317114272154000,2.805154052734375,0.0539665679872036,0.01425700034610927,0.029822745203226805
1761317114282136300,2.81513623046875,0.10052782815396785,0.02242328260168433,0.04699731349647045
1761317114292119300,2.825119384765625,0.034472762966156006,0.01076455512046814,0.04815762598011642
1761317114302102000,2.83510205078125,-0.04951601831912994,0.016680062774568793,0.023084778717719016
1761317114312085200,2.845085205078125,-0.09975158308446407,0.032575624107941986,0.03589680441990495
1761317114322068200,2.855068115234375,-0.13571370782554149,0.04251607642918825,0.056635202674567696
1761317114332050200,2.86505029296875,-0.15090367817282677,0.05476275986619293,0.07319057962354272
1761317114342033200,2.875033203125,-0.13106909689009189,0.06780249337702988,0.061339690571092065
1761317114352016100,2.88501611328125,-0.15892565658688546,0.07374152803719043,0.038606282574310896
1761317114361999400,2.894999267578125,-0.21362229241430758,0.08113324572369456,0.010678338141739368
1761317114371982000,2.904982177734375,-0.278275674110651,0.06580415916666388,-0.0012173764331266284
1761317114381965000,2.914965087890625,-0.28864743052124975,0.05304945314228535,-0.017942739654146132
1761317114391947300,2.924947265625,-0.24538345833420752,0.042795331761986015,-0.03230488087516278
1761317114401930000,2.934929931640625,-0.17733341993689536,0.016594722578674555,-0.018284246568195522
1761317114411913200,2.944913330078125,-0.06158639534115791,0.020982728404551742,-0.0036178251709789036
1761317114421896200,2.954896240234375,0.04745908578932285,0.024884412018209696,-0.015268917335011064
1761317114431879200,2.964879150390625,0.13016601057052613,0.01858122022077441,-0.02150616775676608
1761317114441862100,2.974862060546875,0.14540508075654507,-0.006067848671600222,-0.04420136263500899
1761317114451844000,2.984843994140625,0.14056757759749888,-0.022267215257138012,-0.07816745472066104
1761317114461827300,2.994827392578125,0.1434253051161766,-0.022714812894165513,-0.09355667396709322
1761317114471810000,3.00481005859375,0.1436988613605499,-0.04216317133828997,-0.07180212093982845
1761317114481793300,3.014793212890625,0.08297463580667971,-0.0469018172327429,-0.05285981232170015
1761317114491776300,3.0247763671875,0.045828854238986964,-0.046270825852826235,-0.04394442873187363
1761317114501758000,3.034758056640625,0.02732698286473751,-0.04433978472501039,-0.052819736039638514
1761317114511741000,3.044740966796875,-0.03429039213657379,-0.045586496850475666,-0.06212901431787759
1761317114521724000,3.054723876953125,-0.14242869529426097,-0.04866210490353405,-0.06147723587825894
1761317114531707100,3.06470703125,-0.19380057061314582,-0.03084865418486297,-0.06639492813404649
1761317114541689900,3.07468994140625,-0.1760246754258871,-0.00862520500421524,-0.06815514273960142
1761317114551672800,3.0846728515625,-0.13846446783840655,-0.007205036007985472,-0.05411963965706527
1761317114561655000,3.094655029296875,-0.12612228813767432,-0.014266937218233942,-0.030856252969428895
1761317114571637800,3.1046376953125,-0.1665700338602066,-0.0050476387783885,-0.046210656630806625
1761317114581621000,3.11462109375,-0.1865419777870178,-0.021342282431945202,-0.07675766098797321
1761317114591604000,3.12460400390625,-0.15195464853048324,-0.03909925372302532,-0.08185078287590294
1761317114601587000,3.1345869140625,-0.12670856359302995,-0.047876069092378015,-0.07553454893380403
1761317114611570000,3.14456982421875,-0.09011749329864978,-0.04684394956566393,-0.07530318786334246
1761317114621551900,3.1545517578125,-0.020879121899604797,-0.05860869470462203,-0.0651339682875201
1761317114631535000,3.16453515625,0.04673837029933929,-0.06737199300527572,-0.051869339979626235
1761317114641517800,3.174517822265625,0.09583820903301238,-0.08617518541365861,-0.05180131624471396
1761317114651501000,3.1845009765625,0.06865268046557903,-0.10351860746778548,-0.029294300882332026
1761317114661484000,3.194484130859375,-0.027762451672554013,-0.09916815717332064,-0.04606160354893654
1761317114671467000,3.204467041015625,-0.08163491163551807,-0.08888269080668687,-0.06773994953483342
1761317114681449000,3.214448974609375,-0.12414017440974712,-0.0972587433554232,-0.08098207374997436
1761317114691432000,3.224431884765625,-0.124459323361516,-0.11695026290565728,-0.0983212945530191
1761317114701415200,3.234415283203125,-0.16724924829602242,-0.12096943541914223,-0.08056326381601393
1761317114711398000,3.24439794921875,-0.21937048067748546,-0.106330523083359,-0.07654569873772561
1761317114721380900,3.254380859375,-0.2542249364376068,-0.0871736218664795,-0.0674831617621705
1761317114731363000,3.264363037109375,-0.277346868827939,-0.08577171917930244,-0.05210099331103265
1761317114741345800,3.274345703125,-0.211961665725708,-0.0887856601729989,-0.023676424467936157
1761317114751329000,3.2843291015625,-0.13152911561727523,-0.09094882955625652,-0.012386639896966516
1761317114761312000,3.29431201171875,-0.058494274544715875,-0.09215696323700248,-0.04153565055709332
1761317114771295000,3.304294921875,0.0438490785986185,-0.1095945663806051,-0.03515895513202995
1761317114781278000,3.31427783203125,0.13690613248050212,-0.1454371563952416,-0.032331184360198675
1761317114791260000,3.324260009765625,0.19539923798143863,-0.17490188194103537,-0.04133241960257292
1761317114801243100,3.3342431640625,0.22294249394536017,-0.18340660237073897,-0.050360506319254636
1761317114811225900,3.344225830078125,0.21461130345165727,-0.18716105953343212,-0.06690748076606541
1761317114821208800,3.354208740234375,0.16709961069226265,-0.17581980050355195,-0.054906479185819625
1761317114831192000,3.364192138671875,0.05043021055459976,-0.17241788310557604,-0.04255238985158503
1761317114841174800,3.3741748046875,-0.06535773057341575,-0.15397935929112136,-0.04645484065022319
1761317114851157000,3.384156982421875,-0.18271628201901913,-0.1327960668131709,-0.05767360581159591
1761317114861140000,3.394139892578125,-0.29569442642331123,-0.12031002166233956,-0.05735482218600809
1761317114871123000,3.404123046875,-0.3433499115675688,-0.1068199871007353,-0.04750920854136347
1761317114881106000,3.41410595703125,-0.35839199787676335,-0.08514934949725866,-0.01940057377964258
1761317114891089000,3.4240888671875,-0.3594681026756763,-0.06742335786633193,0.0030292481606826183
1761317114901070800,3.43407080078125,-0.35982816815972324,-0.05672719180695712,0.0021312398750334975
1761317114911053800,3.4440537109375,-0.3546785303115845,-0.052221989342197773,-0.014441855393722652
1761317114921037000,3.454037109375,-0.336254984870553,-0.05809175815843046,-0.04021550786923617
1761317114931020000,3.46402001953125,-0.28695465512871743,-0.05566738055571913,-0.04616477166246623
1761317114941002800,3.474002685546875,-0.25157822132110597,-0.03574270983673632,-0.042775713746063405
1761317114950985000,3.48398486328125,-0.21369711121618745,-0.023705650562420487,-0.03787917387615889
1761317114960968000,3.493968017578125,-0.12292261531352996,0.0008554477855563164,-0.011514423639699817
1761317114970951000,3.503950927734375,-0.006181903505325317,0.01134432776980102,0.014771964130923151
1761317114980934000,3.513933837890625,0.08417699733376502,0.0007223229251801967,0.015573818565718829
1761317114990916900,3.523916748046875,0.1489402691453695,-0.0013425737153738735,0.022715762742236256
1761317115000900000,3.533900146484375,0.1963718824058771,-0.0016312544636428354,-0.0035701866369694467
1761317115010881800,3.5438818359375,0.19479367330372332,-0.011988982348889113,-0.032017734496854244
1761317115020865000,3.553864990234375,0.15330021792054174,-0.023100670406594873,-0.08855375111326574
1761317115030848000,3.563847900390625,0.10246844082772731,-0.03600559855662286,-0.09459233715776354
1761317115040831000,3.5738310546875,0.06698737760186195,-0.028630466678738593,-0.0725888874033466
1761317115050814000,3.58381396484375,0.04594283600747585,-0.01598711207434535,-0.038274310673587025
1761317115060797000,3.593796875,0.03901566709280014,0.004893617260456085,-0.011798903136886656
1761317115070779000,3.60377880859375,0.0032668928414583205,0.0034928105518221854,0.02009860251378268
1761317115080761900,3.613761962890625,-0.09917173736989497,0.01185834170654416,0.023604893601685762
1761317115090745000,3.6237451171875,-0.17004793910384178,0.030082272922247646,0.013998787801340222
1761317115100728000,3.63372802734375,-0.17965104922950267,0.06072093761824071,0.02712857421580702
1761317115110710800,3.643710693359375,-0.2350444351494312,0.06963738065399229,0.03514923745561391
1761317115120694000,3.653694091796875,-0.29018238500356675,0.06921747474148869,0.034744821373187004
1761317115130676000,3.663676025390625,-0.27843174145519733,0.08499459732696414,0.032936529842205346
1761317115140659000,3.673658935546875,-0.21172376531660556,0.08189122448414564,0.021898783803544937
1761317115150642000,3.683641845703125,-0.09795885444879532,0.05454794807173311,-0.01667812654580921
1761317115160625000,3.693625,-0.011758242332935332,0.012685367115214466,-0.05180434845201671
1761317115170608000,3.703608154296875,0.018929741397500036,-0.014011574217677115,-0.07540610024854541
1761317115180589800,3.71358984375,0.06387538306117058,-0.029540640326216814,-0.08149217869658022
1761317115190573000,3.723572998046875,0.0927180311858654,-0.042733591637387866,-0.07129369649365544
1761317115200556000,3.73355615234375,0.10561842929124832,-0.058804509537667034,-0.08354209696371108
1761317115210538800,3.743538818359375,0.08465162910819053,-0.05032755389772355,-0.09192604055795818
1761317115220522000,3.75352197265625,-0.007576572734117507,-0.030771278099715707,-0.09200071322936564
1761317115230505000,3.7635048828125,-0.1566010130316019,-0.001732230620086193,-0.1047583418631926
1761317115240487000,3.77348681640625,-0.25745208179056644,0.017391206718608734,-0.12458642033990472
1761317115250470000,3.783469970703125,-0.29927520751953124,0.009649944942072034,-0.13314276135899125
1761317115260452900,3.793452880859375,-0.26026070947051044,-0.007272694416716695,-0.12037855685390532
1761317115270436000,3.80343603515625,-0.17359189532101155,-0.02318330718874931,-0.1270470017671585
1761317115280418800,3.813418701171875,-0.033090368697047234,-0.02875007447041571,-0.11863368594795465
1761317115290402000,3.823402099609375,0.08468728494346141,-0.0390673972800374,-0.10117883940860628
1761317115300384000,3.833384033203125,0.12034721186757087,-0.053596492565795774,-0.07058744792044162
1761317115310367000,3.843366943359375,0.11644494373202323,-0.060743295580521224,-0.06325191740058363
1761317115320350000,3.853349853515625,0.11473580172657966,-0.05220080042369663,-0.06389014223888516
1761317115330333000,3.8633330078125,0.09819266320466995,-0.049987142962217325,-0.07614000401366501
1761317115340316200,3.873316162109375,0.014300328031182289,-0.05508987292870879,-0.08142404536381363
1761317115350297900,3.8832978515625,-0.06906593744158744,-0.030177988381683826,-0.07503167744558305
1761317115360281000,3.893281005859375,-0.14887421817183494,0.023081308118999003,-0.05895005548819899
1761317115370264000,3.90326416015625,-0.17791794182658194,0.039159459477663035,-0.023183124525658783
1761317115380246800,3.913246826171875,-0.13959727126061916,0.040392362273484465,0.014389540684595704
1761317115390230000,3.92322998046875,-0.04436988760232925,0.019494024216756223,0.02441493134293705
1761317115400213000,3.933212890625,0.009191022193431854,-0.0005156213719397783,0.01997567025385797
1761317115410195000,3.94319482421875,0.021163784059882163,-0.021182123434171078,-0.01940218121483922
1761317115420178000,3.953177978515625,0.02198036113977432,-0.035881022328883405,-0.06201086783092469
1761317115430161000,3.963160888671875,0.01163198560476303,-0.037049846912547944,-0.0814251413423568
1761317115440144100,3.97314404296875,-0.04072130196690559,-0.03929112303331494,-0.0755059804264456
1761317115450126800,3.983126953125,-0.11997896307706832,-0.03462137765660882,-0.02252034976799041
1761317115460109000,3.993109130859375,-0.16168401538431643,-0.02429163375683129,-0.001967318017594516
1761317115470092000,4.003092041015625,-0.1835316900551319,-0.0039023412007838485,-0.00665266282223165
1761317115480075000,4.013074951171875,-0.17818448380827903,-0.00048062312379479403,-0.021578246612288056
1761317115490058000,4.02305810546875,-0.20448329266905785,-0.008838409363478421,-0.033874979736097155
1761317115500041000,4.033041015625,-0.29462065971195694,-0.014241218255087732,-0.053428771316073834
1761317115510024000,4.04302392578125,-0.2830897963941097,-0.009460486784577369,-0.04274802202153951
1761317115520005600,4.053005615234375,-0.169310857000947,-0.035575536576285954,-0.04384082222692668
1761317115529988900,4.06298876953125,-0.0562409426599741,-0.07140694760978221,-0.06287745806500315
1761317115539971800,4.072971923828125,0.046048049947619435,-0.10338540954217314,-0.07253649962898344
1761317115549954800,4.082954833984375,0.07584288423061371,-0.10928571962714195,-0.08409333763830364
1761317115559937800,4.092937744140625,0.04995090260505676,-0.08276333114355802,-0.09413988068252802
1761317115569920800,4.102920654296875,-0.055944590061903,-0.06269844823628663,-0.07013119205292313
1761317115579903000,4.112903076171875,-0.18963468310534953,-0.044792058537155385,-0.05182535470742732
1761317115589885700,4.1228857421875,-0.25826924339234825,-0.04020093135461211,-0.017447211222164333
1761317115599868700,4.13286865234375,-0.23148703492879866,-0.05088401873670518,0.008795629667676984
1761317115609852000,4.142851806640625,-0.23857319379746914,-0.0924729703836143,0.027881219214014707
1761317115619835000,4.1528349609375,-0.2364700840383768,-0.11428155515305698,0.04178166120741516
1761317115629816800,4.16281689453125,-0.2557435243070125,-0.08864676315896212,0.0629513270188123
1761317115639799800,4.1727998046875,-0.3064198185771704,-0.07083565052784979,0.06396339013818651
1761317115649782800,4.18278271484375,-0.34438276174664495,-0.04353796682283282,0.04609934174343943
1761317115659765800,4.192765869140625,-0.3365419851183891,-0.03785977505594492,0.01878879855684936
1761317115669748700,4.202748779296875,-0.27862463367879386,-0.05905753445066511,-0.014443353231064975
1761317115679732000,4.21273193359375,-0.22011574608683585,-0.07814129736609757,-0.04789221650958061
1761317115689713700,4.222713623046875,-0.14163842169940472,-0.10707469251416624,-0.06982150504924356
1761317115699697000,4.23269677734375,-0.13697393701970575,-0.13104301260076462,-0.058592328091710805
1761317115709679900,4.242679931640625,-0.18988602751791475,-0.1401282363321632,-0.052356064050644635
1761317115719662600,4.25266259765625,-0.17917992458641527,-0.12910904886350036,-0.039110432704165574
1761317115729645800,4.262645751953125,-0.14080430896282195,-0.10990531283020973,-0.0489310945706442
1761317115739627800,4.272627685546875,-0.07932780373692512,-0.11210830276720225,-0.04863561875540763
1761317115749611000,4.282611083984375,-0.023509470403194427,-0.11069288301132618,-0.06837251181732863
1761317115759593700,4.29259375,0.03930442090630531,-0.10692680847607552,-0.11641586376801133
1761317115769576700,4.30257666015625,0.08653905028998851,-0.109612905754894,-0.1533011677686125
1761317115779560000,4.312559814453125,0.1096715040743351,-0.10555457027480006,-0.15530969457942992
1761317115789542700,4.322542724609375,0.0823392605125904,-0.097312738564983,-0.14087909123208373
1761317115799524900,4.33252490234375,0.03667582596838474,-0.0722466863695532,-0.13551920816674828
1761317115809507800,4.3425078125,0.0009317278921604156,-0.039317134257405996,-0.13576671665441245
1761317115819490600,4.352490478515625,-0.03151215959489345,-0.017198606755957007,-0.14722279770299793
1761317115829473800,4.362473876953125,-0.05732347719967365,-0.01115603865608573,-0.1599421766856685
1761317115839456800,4.372456787109375,-0.03583586801290512,-0.012681348527222872,-0.16757332915123552
1761317115849438700,4.382438720703125,-0.00924655177295208,-0.013298019120842218,-0.15819460236597804
1761317115859421700,4.392421630859375,-0.01671264986991882,0.00302095525637269,-0.1364805640121922
1761317115869404700,4.40240478515625,-0.06324526846408844,0.028199308719858526,-0.12605280309803782
1761317115879388000,4.412387939453125,-0.0813239459902048,0.06287570449933409,-0.13027166290208697
1761317115889370600,4.42237060546875,-0.09945990666151046,0.07543686071299016,-0.12461414859704673
1761317115899353900,4.432353759765625,-0.07331716514527797,0.088771485517174,-0.1319298419052735
1761317115909335800,4.442335693359375,-0.05435352147817611,0.08301526007801294,-0.15656557639203963
1761317115919318800,4.45231884765625,-0.03254617881774902,0.07778503127433359,-0.18050171124208716
1761317115929301800,4.4623017578125,-0.020294015488028526,0.07359605515189468,-0.190024047749117
1761317115939284700,4.47228466796875,-0.03826046481132507,0.049222734460979696,-0.21299740198161451
1761317115949268000,4.48226806640625,-0.03906768954098224,0.04566664941459894,-0.19438604235090315
1761317115959250700,4.492250732421875,-0.02219604971706867,0.05815576330535113,-0.16358524589575826
1761317115969233000,4.50223291015625,0.005461188015341759,0.07756956189274787,-0.12544888238813728
1761317115979216000,4.5122158203125,0.030075989311933515,0.060503641605749725,-0.09711864076498895
1761317115989198600,4.522198486328125,0.04816752631962299,0.037550051519647236,-0.10734609333407133
1761317115999181800,4.532181884765625,0.05785071594417095,0.04048910064622759,-0.15437383850142358
1761317116009164800,4.542164794921875,0.05516133072972297,0.015035218176990746,-0.19336060829330234
1761317116019146800,4.552146728515625,0.07335808167755603,0.017014701556414366,-0.18993136449698358
1761317116029129700,4.562129638671875,0.09247311651408671,0.045235856781899925,-0.16148206307142973
1761317116039112700,4.57211279296875,0.12415069580376148,0.07680522645674645,-0.1337891329711303
1761317116049096000,4.582095947265625,0.1729962675154209,0.1006577381439507,-0.10683123914711176
1761317116059078700,4.59207861328125,0.2915530888348818,0.07929609342440962,-0.08036547622159122
1761317116069061600,4.6020615234375,0.3722095108270645,0.04962145145498216,-0.06463354448471217
1761317116079043800,4.6120439453125,0.3991010248839855,0.029386253482103344,-0.04474204538296908
1761317116089026800,4.62202685546875,0.35306583441793915,0.028643983747437596,0.03371197119411081
1761317116099009800,4.632009765625,0.24683657975196838,0.03174552995935082,0.06284545549154281
1761317116108992800,4.64199267578125,0.06143383512794971,0.09326587432697415,0.027739764916710555
1761317116118976000,4.65197607421875,-0.13797580753862856,0.09406045877076685,0.058291993438266215
1761317116128958700,4.661958740234375,-0.2612415372014046,0.07793189239911735,0.09671195966023952
1761317116138941000,4.67194091796875,-0.33318039973080155,0.0997490988664329,0.12218337778616696
1761317116148924000,4.681923828125,-0.36389293338060374,0.09574775427058338,0.1283410601656884
1761317116158906600,4.69190673828125,-0.3756149353563785,0.10157806785926222,0.14913151740115135
1761317116168889900,4.701889892578125,-0.32028409327864643,0.10668678917512298,0.1637338605862111
1761317116178872800,4.711872802734375,-0.24328210214078425,0.09668013974986969,0.18855017580427227
1761317116188854800,4.721854736328125,-0.2409925298988819,0.06644231093972922,0.201055071786046
1761317116198837800,4.731837646484375,-0.2625122877895832,0.036415494531765576,0.18124905901066957
1761317116208820700,4.74182080078125,-0.2805599856555462,0.02826082964874804,0.1345100311242044
1761317116218804000,4.751803955078125,-0.2751917366206646,-0.0011347761835902928,0.08204740142654628
1761317116228786700,4.76178662109375,-0.2554623692780733,-0.021054843792691826,0.044909109045565124
1761317116238769700,4.771769775390625,-0.22146014643311498,-0.051520855335518714,0.021393062771111724
1761317116248751900,4.781751953125,-0.1465191794782877,-0.06969941303953528,0.0006009615678340196
1761317116258734600,4.791734619140625,-0.076291797041893,-0.07915098586529493,-0.025429953604377806
1761317116268717800,4.8017177734375,-0.02981178541779518,-0.0829191792923957,-0.05772884313017129
1761317116278700800,4.81170068359375,-0.015703765088319777,-0.0782920309484005,-0.09665621088501065
1761317116288683800,4.821683837890625,-0.027128245422244072,-0.0879708366587758,-0.13001487512942403
1761317116298665700,4.831665771484375,-0.02563420747220516,-0.11000709270425141,-0.15132745654284954
1761317116308648700,4.841648681640625,-0.03377952000498771,-0.1124832735594362,-0.15730492351725697
1761317116318632000,4.8516318359375,-0.05090425780713558,-0.11449629388228058,-0.17864570811185984
1761317116328614700,4.86161474609375,-0.06018354280591011,-0.0920253727465868,-0.19348101980257779
1761317116338598000,4.871597900390625,-0.05203238505423069,-0.0743036919645965,-0.21270704073291272
1761317116348580900,4.881580810546875,-0.0046294133663177485,-0.0919889862589538,-0.2086125379608944
1761317116358562800,4.891562744140625,0.03620996202230453,-0.11844123211577534,-0.20552509333956986
1761317116368545800,4.9015458984375,0.03459609708487987,-0.11020780290812253,-0.22560491808764635
1761317116378528800,4.91152880859375,-0.005936988833546638,-0.09497326276674867,-0.23036029592119156
1761317116388512000,4.921511962890625,-0.06058627838790416,-0.06904226430505514,-0.22973434604257345
1761317116398494700,4.93149462890625,-0.07129998010396957,-0.04935249832049012,-0.21689415369182824
1761317116408477000,4.941476806640625,-0.08227671667039393,-0.048606429193541405,-0.20620905701573936
1761317116418460000,4.9514599609375,-0.09330722925066948,-0.047548371507972476,-0.20634799056239425
1761317116428442600,4.961442626953125,-0.06746727007329463,-0.020090601870417595,-0.2058077096732333
1761317116438425900,4.97142578125,-0.03882745104432106,0.020764628674462438,-0.17751918829996138
1761317116448408800,4.981408935546875,-0.03253799551129341,0.011507263246551155,-0.10712996636535972
1761317116458391600,4.9913916015625,-0.02257774251103401,-0.0020050562120974063,-0.0645735944584012
1761317116468373800,5.001373779296875,0.014737550404667853,0.009112988521158695,-0.05585384303852915
1761317116478356700,5.011356689453125,0.0024245967984199523,0.03798888132832944,-0.05597721368987113
1761317116488340000,5.021340087890625,-0.025759879678487776,0.017203575192019344,-0.06073701197020709
1761317116498322700,5.03132275390625,-0.05410977585017681,-0.019461437121406196,-0.038636641179956493
1761317116508306400,5.041306396484375,-0.0823608878225088,-0.017973609716445207,-0.032240035478025675
1761317116518288600,5.05128857421875,-0.11066168415546417,0.00012304185777902603,0.0037492695309221742
1761317116528271400,5.061271240234375,-0.1760159075975418,0.01981514592990279,-0.006859218244999647
1761317116538254600,5.071254638671875,-0.28459260217249394,0.027195027048140762,-0.03813545019216835
1761317116548237600,5.081237548828125,-0.3699292909353971,0.0253927999317646,-0.0857531606093049
1761317116558220500,5.091220458984375,-0.36326106521785256,0.009744564422965049,-0.1442956216773018
1761317116568203500,5.10120361328125,-0.2502455114126205,-0.014413506082072853,-0.14541118170376865
1761317116578185500,5.111185546875,-0.07631634696125984,-0.03161941936165094,-0.11522771342936902
1761317116588168700,5.121168701171875,0.0841349117577076,-0.03728599375598132,-0.09054145433176308
1761317116598151400,5.1311513671875,0.17153730087876318,-0.046925855695456264,-0.08210212728846818
1761317116608134400,5.141134521484375,0.1997486653625965,-0.050433206229284405,-0.08508676912244409
1761317116618117600,5.15111767578125,0.20396306818723678,-0.050584159007295966,-0.09117511259280145
1761317116628100600,5.1611005859375,0.15887363413870334,-0.060209115638583895,-0.07297620622050016
1761317116638082600,5.17108251953125,0.10615443586409092,-0.07175261924229562,-0.038158684937283395
1761317116648065500,5.1810654296875,0.03881868321597576,-0.06561134000830351,-0.005038651754334569
1761317116658048500,5.191048583984375,-0.02693184606730938,-0.046520489764958615,0.03746591690015048
1761317116668031500,5.201031494140625,-0.05284954665601253,-0.036845118120685215,0.0935713600795716
1761317116678014500,5.211014404296875,-0.07827917146682739,-0.03743438925072551,0.13582378060389308
1761317116687996700,5.22099658203125,-0.13729133240580557,-0.011366977993026375,0.12765837513115255
1761317116697979400,5.2309794921875,-0.1674544154793024,0.009127090111747383,0.10492054668758063
1761317116707962600,5.240962646484375,-0.17907003447115422,-0.000356339157000184,0.08737856985405087
1761317116717945600,5.250945556640625,-0.24198446354568004,-0.01469283448010683,0.044962994657270605
1761317116727928600,5.260928466796875,-0.28151977059841155,-0.010275894820690154,0.006117533032223582
1761317116737911600,5.27091162109375,-0.3086532767176628,-0.02075805280320346,-0.04615256976801902
1761317116747893500,5.2808935546875,-0.32045477367043496,-0.03130129332318902,-0.0719036450855434
1761317116757876700,5.290876708984375,-0.28640520455241203,-0.045737522693723436,-0.06940748088825494
1761317116767859500,5.300859375,-0.2155044528990984,-0.06982018987499176,-0.07827573740072548
1761317116777842400,5.310842529296875,-0.10758359188437461,-0.06836261147782206,-0.08926131486073136
1761317116787825700,5.32082568359375,-0.005965630406141281,-0.08170344682708382,-0.08204119088146836
1761317116797807400,5.330807373046875,0.07208908465504646,-0.08858633820861578,-0.07229951253533363
1761317116807790600,5.34079052734375,0.1055278283983469,-0.07692790298834443,-0.04728774781040847
1761317116817773600,5.350773681640625,0.08807984999120234,-0.05286496342085301,-0.031183000705763696
1761317116827756500,5.360756591796875,0.05532207424938678,-0.018210998668894172,-0.026706732074543833
1761317116837739500,5.370739501953125,-0.02038052472770214,-0.012352189638093113,-0.05465948215480893
1761317116847722500,5.380722412109375,-0.11245032113790511,-0.013064283430203794,-0.1028821727277711
1761317116857704700,5.39070458984375,-0.1362409465700388,-0.006833499281853437,-0.1325496177714318
1761317116867687400,5.4006875,-0.10972060391306876,-0.003704845867305994,-0.13276724257748573
1761317116877670400,5.41067041015625,-0.06844868232607841,-0.007599076826870441,-0.10625343925915658
1761317116887653600,5.420653564453125,-0.03137479695081711,0.0027482027295976878,-0.0899535714412108
1761317116897636600,5.43063671875,0.012483633998036384,0.014535671157017349,-0.06134655870329588
1761317116907618600,5.44061865234375,0.052095513418316836,0.027640871119499207,-0.04417049257270991
1761317116917601500,5.4506015625,0.04749883327782154,0.0129022978015244,-0.05024038707092404
1761317116927584800,5.460584716796875,0.04939034611284732,0.00823993201367557,-0.09225735487155616
1761317116937567500,5.4705673828125,0.06994447384178638,0.013339374044537543,-0.10113419654928148
1761317116947550500,5.480550537109375,0.14331892213225364,-0.007180486088618636,-0.08576970988530665
1761317116957533700,5.49053369140625,0.21971476407051085,-0.022035744588822126,-0.057849546900391575
1761317116967515400,5.500515380859375,0.28263036218881604,-0.02654598855488002,-0.03432049501389265
1761317116977498600,5.51049853515625,0.313541048759222,-0.04751183888986706,-0.032979528733715416
1761317116987481600,5.520481689453125,0.26936405338048935,-0.04589424762539565,-0.027976240553706882
1761317116997464300,5.53046435546875,0.15107377404272557,-0.044966099929809565,-0.0370407502906397
1761317117007447600,5.540447509765625,-0.015527823999524116,-0.03294540726840496,-0.0465811339110136
1761317117017429500,5.550429443359375,-0.1883160017222166,-0.02933072390258312,-0.04805398294255137
1761317117027412700,5.560412841796875,-0.30521804157197474,-0.015151538033038377,-0.0638020255640149
1761317117037395500,5.5703955078125,-0.3518675645440817,-0.0022353578366339204,-0.07329794898815453
1761317117047378400,5.58037841796875,-0.3451607603818178,-0.0076068217419087885,-0.05832549384906888
1761317117057361700,5.590361572265625,-0.30275661989450453,-0.020851503240317103,-0.04291194387897849
1761317117067344400,5.600344482421875,-0.27326632151603697,-0.03515402322858572,-0.030468422695621847
1761317117077326600,5.61032666015625,-0.28635610471367834,-0.0259261030908674,-0.023452150725387037
1761317117087309600,5.6203095703125,-0.3041448593825102,-0.021027079002931715,-0.030687289610691365
1761317117097292500,5.63029248046875,-0.3040437370955944,-0.0074856065150350325,-0.03480904571581632
1761317117107275500,5.640275634765625,-0.29696985318660735,-0.016815744918212295,-0.06960019044876098
1761317117117258500,5.650258544921875,-0.21995207995772362,-0.027898133816197514,-0.08580635210126637
1761317117127240400,5.660240478515625,-0.06427870316505432,-0.04191409194804728,-0.09212770060990005
1761317117137223400,5.670223388671875,0.1312900461643934,-0.08510397598557173,-0.07597604562360794
1761317117147206700,5.68020654296875,0.29215047020614143,-0.12344349738247692,-0.06694686292838305
1761317117157189600,5.690189697265625,0.34366672243177887,-0.12671937724798918,-0.05934351178519427
1761317117167172400,5.70017236328125,0.32316461715102196,-0.13369644971899688,-0.07309866355638951
1761317117177155600,5.710155517578125,0.2326093169569969,-0.12599895401895045,-0.06998699780926108
1761317117187137500,5.720137451171875,0.11495324386954307,-0.11836962818428873,-0.04111362575273961
1761317117197120500,5.73012060546875,0.0002209492743015289,-0.1102514228541404,-0.007605287371948361
1761317117207103500,5.740103515625,-0.11246201157569885,-0.09943630659021437,-0.015459142677485943
1761317117217086500,5.75008642578125,-0.27057810534536836,-0.09816913619861006,-0.015323533599078655
1761317117227069700,5.760069580078125,-0.36744039672911166,-0.08916253066137432,-0.013757745587080716
1761317117237051400,5.770051513671875,-0.40625732637941836,-0.07275302845649421,-0.027529629297368227
1761317117247034600,5.78003466796875,-0.3527332414627075,-0.07498305253088473,-0.019274280518852174
1761317117257017600,5.790017578125,-0.28194705609977244,-0.09794139185734092,-0.0024765461813658473
1761317117267000300,5.800000244140625,-0.19414251591861248,-0.1253315761514008,-0.004865048753097653
1761317117276983600,5.809983642578125,-0.12982874144017695,-0.11879691368564962,-0.02650843302346766
1761317117286966500,5.819966552734375,-0.0888397284477949,-0.1070151443466544,-0.04244330345392227
1761317117296948500,5.829948486328125,-0.028527006304264066,-0.1253869596004486,-0.051209853157587346
1761317117306931500,5.839931396484375,-0.02144318552315235,-0.13107070432528853,-0.06529796321019529
1761317117316914400,5.84991455078125,-0.03172375651896,-0.12302512583993375,-0.0902053542451933
1761317117326897700,5.859897705078125,-0.04681903432011604,-0.10457345028296113,-0.08784954836666584
1761317117336880400,5.86988037109375,-0.07238602177500725,-0.07921046096757053,-0.08639934955835342
1761317117346862600,5.879862548828125,-0.10137129324078559,-0.07091039626449346,-0.08137140186112374
1761317117356845600,5.889845458984375,-0.16174188305139542,-0.0296343830242753,-0.07065342582874
1761317117366828500,5.89982861328125,-0.22390169436633586,-0.009548603459447622,-0.06263356630653143
1761317117376811500,5.9098115234375,-0.25916765353679655,0.0010922522161155939,-0.06077705171965062
1761317117386794500,5.91979443359375,-0.24377076244056223,0.0031738077305257318,-0.07395473239645362
1761317117396777700,5.92977783203125,-0.18808336201012132,-0.00039564825408160685,-0.11708707756046205
1761317117406759400,5.939759521484375,-0.09585282208025454,-0.019977789145708084,-0.1470113469094038
1761317117416742700,5.94974267578125,0.034172903236746786,-0.05150741133205592,-0.1692008572878316
1761317117426725600,5.9597255859375,0.1568839216262102,-0.07846643766723572,-0.15540847877878694
1761317117436708400,5.969708251953125,0.2521680039077997,-0.08947590745948254,-0.13095694175250827
1761317117446691600,5.979691650390625,0.30950200250148774,-0.07481105696484446,-0.09905655002500861
1761317117456673500,5.989673583984375,0.27175182529985903,-0.05546287095956504,-0.0635582434033975
1761317117466656500,5.999656494140625,0.2199953345775604,-0.03550400571003556,-0.04898264209479093
1761317117476639500,6.009639404296875,0.11790624845623969,-0.020990034928172824,-0.04412427881080657
1761317117486622500,6.01962255859375,-0.022643793484568596,-0.03769399003498256,-0.04996566178277135
1761317117496605700,6.029605712890625,-0.08411679157912731,-0.04525010450296104,-0.019080292316712436
1761317117506588400,6.03958837890625,-0.08871580980718136,-0.022412176685780286,0.001954239340312779
1761317117516570600,6.049570556640625,-0.09225216723978519,-0.003112213736400008,0.032041224970296024
1761317117526553600,6.0595537109375,-0.12574585604071617,-0.014729513228684663,0.05494907621853053
1761317117536536600,6.06953662109375,-0.12438567360341549,-0.017523235600441694,0.036949199549667536
1761317117546519600,6.07951953125,-0.17436989395618438,-0.004109188884496688,0.02361088495105505
1761317117556502500,6.08950244140625,-0.24057693483531473,0.0018815759629011153,0.008789820981398225
1761317117566485800,6.09948583984375,-0.2853250081002712,-0.008673793386295437,-0.012574782880209386
1761317117576467500,6.109467529296875,-0.2858499087572098,-0.015740078510716557,-0.038527956641092896
1761317117586450700,6.11945068359375,-0.2458323711454868,-0.03122413643375039,-0.0784520438157022
1761317117596433700,6.12943359375,-0.20230887123942373,-0.059154565084353086,-0.06865311885699629
1761317117606416400,6.13941650390625,-0.16675883443057535,-0.07088511569276451,-0.04465495162140578
1761317117616399600,6.149399658203125,-0.15622633450031279,-0.05986475918032229,-0.034074557428807016
1761317117626381600,6.159381591796875,-0.1762988161921501,-0.03653437167108059,-0.041423641549982126
1761317117636364500,6.169364501953125,-0.21117080760896204,-0.02917692158035934,-0.032187903431989254
1761317117646347500,6.179347412109375,-0.21467267825007438,-0.023676278337463736,-0.020954050299338996
1761317117656330500,6.18933056640625,-0.18342004637420176,-0.027792554549872873,-0.01761529779806733
1761317117666313700,6.199313720703125,-0.09477145658433436,-0.025128376841917634,-0.002644925018213689
1761317117676296400,6.20929638671875,0.046886254337429996,-0.05279964309968054,0.009593940438516437
1761317117686278700,6.219278564453125,0.16008827062547207,-0.0826478150051087,0.009536109304055572
1761317117696261600,6.22926171875,0.19635843840241432,-0.098325422738865,0.020601912393420935
1761317117706244400,6.239244384765625,0.12517945432960986,-0.08287760517299175,0.019770210809633135
1761317117716227600,6.2492275390625,-0.031242695003747937,-0.052545522208139295,0.008716573082096874
1761317117726210600,6.25921044921875,-0.20984218935370444,-0.03666859250999987,0.017186185665801167
1761317117736192500,6.269192626953125,-0.287402983418107,-0.03388772961981595,0.036705344323813914
1761317117746175500,6.279175537109375,-0.2919657612890005,-0.035790275305509565,0.07029672134555875
1761317117756158500,6.289158447265625,-0.28295418731570243,-0.05126308118216693,0.08188983624465764
1761317117766141700,6.2991416015625,-0.2512269236654043,-0.03813281984366476,0.09059599753059447
1761317117776124400,6.30912451171875,-0.1742594193190336,-0.051545624450594185,0.07750219574496149
1761317117786107600,6.319107666015625,-0.11514087539613246,-0.06397453258670865,0.052834897076152264
1761317117796089600,6.329089599609375,-0.09253566035628319,-0.07475026668831705,0.013109437746182083
1761317117806072600,6.339072509765625,-0.1076625023394823,-0.0613662497844547,-0.01573306424804032
1761317117816055600,6.3490556640625,-0.10455226136445998,-0.04743322069570422,-0.0058859162334352726
1761317117826038500,6.35903857421875,-0.08480126671195029,-0.04958367672786116,0.024948490230366587
1761317117836021500,6.369021484375,-0.036056817287206645,-0.05224281293451786,0.01093887050775811
1761317117846003500,6.37900341796875,0.036570612028241155,-0.05967062484771013,-0.018663528209365902
1761317117855986700,6.388986572265625,0.10700666877925395,-0.052587680849432945,-0.09899188729096203
1761317117865969400,6.398969482421875,0.13663140719234942,-0.0701255294971168,-0.13778483327748253
1761317117875952400,6.408952392578125,0.05392740502059459,-0.05868555933311581,-0.0961646827747114
1761317117885935600,6.418935546875,-0.026629063728451727,-0.005190919706597924,-0.07127985063139348
1761317117895918600,6.428918701171875,-0.08675240077972411,0.03243153946213424,-0.05537340257782489
1761317117905900500,6.438900634765625,-0.12565934680104254,0.057661330851912496,-0.03186351204952225
1761317117915883500,6.448883544921875,-0.129125561606884,0.06787979639694094,-0.03230044216206297
1761317117925866500,6.458866455078125,-0.10083587118983268,0.07514109263680875,-0.06512574844844639
1761317117935849500,6.468849365234375,-0.09539631048440933,0.08094225319623946,-0.10530930854314938
1761317117945832400,6.47883251953125,-0.08294424066841602,0.07651910299174487,-0.12461319874897599
1761317117955814700,6.488814697265625,-0.05643208131790161,0.06839030320234596,-0.1301732805615291
1761317117965797400,6.49879736328125,0.03892448167800903,0.06943908160291612,-0.168613558919169
1761317117975780600,6.508780517578125,0.1276040511280298,0.02773191040381789,-0.23193130809757856
1761317117985763600,6.518763671875,0.13738251782059668,-0.03163417853936553,-0.26172261698292565
1761317117995746600,6.52874658203125,0.1110305174678564,-0.06378551282063126,-0.2633802845294587
1761317118005729500,6.5387294921875,0.10493687676787376,-0.048777840237691994,-0.21446250609811393
1761317118015711500,6.54871142578125,0.07737491610348224,-0.01767097350805998,-0.12932623527813703
1761317118025694700,6.55869482421875,0.0391740725249052,0.00787782070301473,-0.024956052482314407
1761317118035677400,6.568677490234375,0.03351297802329063,0.013483020298928021,0.00798610338307917
1761317118045660400,6.578660400390625,0.037783494949340815,0.01832907209061086,0.0014471300683915613
1761317118055643600,6.5886435546875,0.04266133011877536,0.0008257102344185113,-0.028910434397589415
1761317118065625300,6.598625244140625,0.01973696612715721,-0.03887618555687368,-0.047403099552076305
1761317118075608600,6.608608642578125,-0.039974867513775825,-0.054607423174008726,-0.06061566887916997
1761317118085591600,6.618591552734375,-0.09383446799516677,-0.04800831716991961,-0.07109956216104328
1761317118095574500,6.628574462890625,-0.11536766988933085,-0.05569112675748765,-0.06975222093900665
1761317118105557500,6.6385576171875,-0.07055997539162635,-0.04783807516954839,-0.043359504983387885
1761317118115540500,6.64854052734375,0.01113046582341194,-0.05692782894559204,-0.020329123334027827
1761317118125522700,6.658522705078125,0.06280512348115444,-0.06892682123184203,-0.004753313740622252
1761317118135505400,6.66850537109375,0.061737786510586735,-0.09616955987922847,-0.015096812171116471
1761317118145488400,6.67848828125,-0.007209492987394333,-0.11631357243731617,-0.059772642183769494
1761317118155471600,6.6884716796875,-0.07238777534067631,-0.1253511576347053,-0.11767974622398614
1761317118165454600,6.69845458984375,-0.19856150140464304,-0.11193769544064998,-0.15334022113736717
1761317118175436500,6.7084365234375,-0.3271148160815239,-0.08646678877137601,-0.15499513047123326
1761317118185419500,6.71841943359375,-0.38695933619141576,-0.05526734838746488,-0.14304531108895316
1761317118195402500,6.728402587890625,-0.3425596379727125,-0.021213979877159,-0.0952560069645755
1761317118205385500,6.738385498046875,-0.21247019976973533,0.010119608280435203,-0.0572282914632
1761317118215368400,6.748368408203125,-0.10351415048837662,0.004446969471499323,-0.019306684951111673
1761317118225351700,6.7583515625,-0.004169979161024093,-0.027297829835489392,-0.009470387124083936
1761317118235333400,6.76833349609375,0.06208966868817806,-0.05230360321104526,-0.041185047021135686
1761317118245316600,6.778316650390625,0.06176759712696075,-0.06928272199742495,-0.07398856160081922
1761317118255299600,6.788299560546875,-0.007994505885243416,-0.0778073161713779,-0.10853417060747741
1761317118265282600,6.798282470703125,-0.06353285323381423,-0.0568593668192625,-0.13767510755900292
1761317118275265500,6.808265625,-0.031168460723757743,-0.03287438785880804,-0.10625064451387152
1761317118285247500,6.81824755859375,0.011771101814508437,-0.03333243382461369,-0.0603300020718947
1761317118295230700,6.828230712890625,0.039113866770267486,-0.029016031930223105,-0.008948409076593816
1761317118305213400,6.83821337890625,0.0027671266257762906,-0.042647009332478045,0.00964046472767368
1761317118315196400,6.848196533203125,-0.08656418473124504,-0.04285897158272564,-0.0014326631516218184
1761317118325179600,6.8581796875,-0.20681845761835574,-0.043039369650930165,-0.001633336822874844
1761317118335161300,6.868161376953125,-0.2846113068729639,-0.025244112176075577,-0.019580295994412154
1761317118345144600,6.87814453125,-0.2749222720295191,-0.02054309487827122,-0.01623473015986383
1761317118355127600,6.88812744140625,-0.21992694551646708,-0.038290786884352564,-0.024171642372664063
1761317118365110500,6.898110595703125,-0.14077508286833762,-0.06504128503538668,-0.010412563345022498
1761317118375093500,6.908093505859375,-0.06637246057391166,-0.06703121674358845,-0.00922150866324082
1761317118385076500,6.918076416015625,0.0029015666604042052,-0.07708945022560655,-0.021892007002886384
1761317118395058700,6.92805859375,0.025688568007946014,-0.08931910946257413,-0.029935576194245365
1761317118405041400,6.93804150390625,0.002433364626765251,-0.11652787277512251,-0.007253788786847144
1761317118415024600,6.948024658203125,-0.04701192654371261,-0.09903780879192053,0.005982070084288716
1761317118425007600,6.958007568359375,-0.05289046318829059,-0.07497231194116175,0.02906014506658539
1761317118434990600,6.967990478515625,-0.048825697967410084,-0.0916305282101035,0.03633693113652989
1761317118444972500,6.97797265625,-0.06509586476683617,-0.10260850688554346,0.0532982768042013
1761317118454955500,6.98795556640625,-0.10140811811983584,-0.07841258858814835,0.07979425220489501
1761317118464938800,6.997938720703125,-0.15160042826533315,-0.046249856130033726,0.09958386183474212
1761317118474921500,7.00792138671875,-0.18087153093516825,-0.015897972486168144,0.09341534753395243
1761317118484904400,7.017904541015625,-0.14483575643599034,0.012627645578607917,0.06257951629804447
1761317118494887700,7.0278876953125,-0.03577449321448803,0.01065707615800202,0.021807781051844357
1761317118504869400,7.037869384765625,0.05742986018359661,-0.032558015386015174,0.023406320555973796
1761317118514851600,7.0478515625,0.07292495095729827,-0.05880991636514663,-0.0096274408493191
1761317118524834600,7.05783447265625,0.008821604359149932,-0.0674217504311353,-0.0468049144632183
1761317118534817800,7.06781787109375,-0.059327802759408944,-0.055004313537105914,-0.04544502428686246
1761317118544800800,7.07780078125,-0.10336802001595496,-0.043896205675974485,-0.022007943266443907
1761317118554782700,7.08778271484375,-0.1134223810404539,-0.03582702711932361,-0.007791749854758381
1761317118564765700,7.097765625,-0.06736848587393761,-0.02736731487512588,-0.003136252199113369
1761317118574748700,7.107748779296875,-0.003083352968096733,-0.030367008147761224,-0.018696973821241407
1761317118584731600,7.117731689453125,0.07543722603917122,-0.05673676335290074,-0.026607765212096273
1761317118594714600,7.127714599609375,0.11404781946241854,-0.08524024265110493,-0.04572068115677684
1761317118604696800,7.13769677734375,0.07410685421824455,-0.08398885435052215,-0.0481794176868163
1761317118614679600,7.147679443359375,0.00658522360920906,-0.07729505580030381,-0.04657147103352472
1761317118624662500,7.15766259765625,-0.05980301905572414,-0.051822359032742675,-0.027531857787072657
1761317118634645800,7.167645751953125,-0.09931202262341976,-0.039436303657665844,-0.012745974728651344
1761317118644628700,7.177628662109375,-0.11100830563604831,-0.04022467755638063,-0.005293338901456445
1761317118654611700,7.18761181640625,-0.13355974466204643,-0.041452063926868135,-0.02918974452931434
1761317118664593700,7.19759375,-0.1708528257459402,-0.04967931912206113,-0.0775150186939165
1761317118674576600,7.20757666015625,-0.18510931463539598,-0.050205571485869585,-0.1196877981107682
1761317118684559600,7.2175595703125,-0.20422201138436794,-0.050529579275846476,-0.112135592632927
1761317118694542600,7.22754248046875,-0.2103928089737892,-0.06526917550712824,-0.11553224933389573
1761317118704525800,7.23752587890625,-0.1678682569772005,-0.06186053610742092,-0.09448368915151804
1761317118714507500,7.247507568359375,-0.13396423380970954,-0.05306121664531529,-0.08112188407946377
1761317118724490800,7.25749072265625,-0.10562953520715236,-0.05372866757810116,-0.07518010947294533
1761317118734473700,7.2674736328125,-0.08564882345199584,-0.06710161509867757,-0.0796780784793198
1761317118744456700,7.277456787109375,-0.05424480040669441,-0.05849025595672428,-0.12973704456873236
1761317118754439700,7.287439697265625,-0.042565468528866765,-0.08331395076364279,-0.1369735351609066
1761317118764422700,7.297422607421875,-0.05664017111063003,-0.10176463993992656,-0.12114208857230842
1761317118774404900,7.30740478515625,-0.02033259393274784,-0.07584069227352738,-0.09847688697353005
1761317118784387600,7.3173876953125,0.03518061897456646,-0.05784538218192756,-0.05088834785195067
1761317118794370600,7.32737060546875,0.05605155756771564,-0.07527582493238151,-0.029736747420206665
1761317118804353800,7.337353759765625,0.06008125147521495,-0.08928418427966535,-0.035204255578480656
1761317118814336800,7.347336669921875,0.05227613068222999,-0.08041391847319901,-0.05474412823095917
1761317118824318700,7.357318603515625,0.04411912771165371,-0.07316909844409673,-0.07283087946567685
1761317118834301700,7.3673017578125,-0.008021978414058686,-0.05643792653679847,-0.07351484314184635
1761317118844284700,7.37728466796875,-0.06837444804608822,-0.05273107137549668,-0.03166000710036605
1761317118854267600,7.387267578125,-0.07914367934167385,-0.04888670743964612,-0.016812566580437123
1761317118864250600,7.397250732421875,-0.08680383870601653,-0.057796830332465465,0.023369440877996382
1761317118874233600,7.407233642578125,-0.09093699298799038,-0.07300086573772133,0.040768721305206417
1761317118884215600,7.417215576171875,-0.07476619490981101,-0.07503109292369335,0.026604550341702997
1761317118894198800,7.42719873046875,-0.10350947431325912,-0.0559311095258221,-0.010048661936074494
1761317118904181800,7.437181640625,-0.16848901922404766,-0.04320120914913714,-0.02436780426558107
1761317118914164500,7.44716455078125,-0.226018248128891,-0.03677851915787905,-0.01350238258652389
1761317118924147700,7.457147705078125,-0.24885025766193866,-0.02123370749093592,-0.004622727897204458
1761317118934129700,7.467129638671875,-0.16577274600267408,-0.017862185231223703,-0.012898206148296594
1761317118944113000,7.47711279296875,-0.05503332043588161,-0.051092400790378446,-0.03271094092540443
1761317118954095600,7.487095703125,0.020555881294608114,-0.08245883177164942,-0.05405563451014459
1761317118964078600,7.49707861328125,0.057575406134128565,-0.10511234293263405,-0.08547047121040523
1761317118974061800,7.507061767578125,0.01006605146229267,-0.1236567017417401,-0.09337178238686174
1761317118984043500,7.51704345703125,-0.04101356291174888,-0.09597509675305337,-0.07035930172037333
1761317118994026800,7.52702685546875,-0.07032382854819297,-0.06556315348502248,-0.04369290165621787
1761317119004009700,7.537009765625,-0.07171732873320578,-0.05452990095838904,-0.0467661350890994
1761317119013992400,7.546992431640625,-0.10227613312602042,-0.05193235874585807,-0.056256249826960265
1761317119023975700,7.5569755859375,-0.156535546579957,-0.056211497369781135,-0.06576360796056688
1761317119033958700,7.566958740234375,-0.19204174424707887,-0.07738050559405237,-0.08860577356144786
1761317119043940600,7.576940673828125,-0.19442659355700015,-0.11325327155124396,-0.12289517931733279
1761317119053923600,7.586923583984375,-0.2048158856242895,-0.11829627068713307,-0.1441557382825762
1761317119063906600,7.596906494140625,-0.22574118475317953,-0.10965692755971103,-0.1656452106328681
1761317119073889800,7.606889892578125,-0.21212124020159243,-0.10133238600250333,-0.1603437066912651
1761317119083872500,7.61687255859375,-0.12184241886138915,-0.08716101811323314,-0.13018511712979525
1761317119093854700,7.626854736328125,-0.04768588028252124,-0.08792254053764045,-0.0847121636563912
1761317119103837700,7.636837646484375,-0.05853343751132488,-0.09371825773697345,-0.05961557019222528
1761317119113820700,7.646820556640625,-0.08298574172258377,-0.10378405347093939,-0.058133368810452515
1761317119123803600,7.6568037109375,-0.08780044852793216,-0.11586374631058424,-0.0692081589238718
1761317119133786600,7.66678662109375,-0.09154898740649223,-0.12360519075021147,-0.09607610944211482
1761317119143769900,7.676769775390625,-0.06343582260012626,-0.13712525512389837,-0.11161083810646086
1761317119153751600,7.68675146484375,-0.020237901386618615,-0.14542926534973083,-0.09311181627642363
1761317119163734800,7.69673486328125,0.05449205316603183,-0.14577880943976343,-0.051490679392963645
1761317119173717800,7.7067177734375,0.09357961645126342,-0.12401603657342493,-0.01266757573019713
1761317119183700500,7.716700439453125,0.058577276653051374,-0.10614384140484034,0.019154270868375897
1761317119193683700,7.72668359375,0.027640871119499207,-0.08529756232891231,0.022046667841635642
1761317119203665700,7.736665771484375,0.017422259443998337,-0.06478709107860922,-0.0016577040791511534
1761317119213648600,7.746648681640625,-0.03698620709180832,-0.07686039071008563,0.0034005291584879157
1761317119223631600,7.756631591796875,-0.08352993160188198,-0.0616707126237452,0.005222739616967737
1761317119233614600,7.766614501953125,-0.12181319276690482,-0.04276939360313117,0.00042326691336929794
1761317119243597800,7.776597900390625,-0.16622867307662964,-0.029164975414238868,0.004045512531138956
1761317119253579500,7.78657958984375,-0.17818915998339652,-0.006677431937307119,0.006781622964143753
1761317119263562800,7.796562744140625,-0.18434476000368594,-0.005432875236310065,0.0276118276881054
1761317119273545700,7.806545654296875,-0.21885960854589936,0.01822057021483779,0.04072038865145296
1761317119283528400,7.816528564453125,-0.28040450283288954,0.04340356332082301,0.04048190372046083
1761317119293511700,7.82651171875,-0.29519232212007046,0.08008351747505367,0.046549825457297266
1761317119303494700,7.83649462890625,-0.274459915214777,0.08651113936975598,0.01879285367745906
1761317119313476600,7.8464765625,-0.21385025595128535,0.0856323107086122,0.01991572022754699
1761317119323459600,7.85645947265625,-0.10868775373399257,0.07288374216407537,0.0017572189308702945
1761317119333442600,7.866442626953125,0.03679273034632206,0.07250164751131087,-0.036304544970579444
1761317119343425800,7.87642578125,0.17915654371082781,0.06554185496866703,-0.05391776040941477
1761317119353408500,7.886408447265625,0.23689093979895112,0.03549629732761532,-0.04682710802871733
1761317119363390700,7.896390625,0.20234628064036367,0.008834829166904092,-0.055886466666497284
1761317119373373700,7.906373779296875,0.13078385020792482,0.024820406871289013,-0.05646992911025881
1761317119383356700,7.916356689453125,0.07211246553063393,0.031219862117432055,-0.0671038070557639
1761317119393339600,7.926339599609375,-0.030945173361897466,0.015008147506974637,-0.07067143640946597
1761317119403322600,7.936322509765625,-0.07043021153211593,-0.009382891503721475,-0.06787256293855608
1761317119413305900,7.946305908203125,-0.04248421998620033,-0.0317986849186942,-0.05491689098197967
1761317119423287600,7.95628759765625,0.03677811729907989,-0.05718436098992824,-0.05875467904657125
1761317119433270800,7.966270751953125,0.08542319800257682,-0.06176606275700032,-0.06833481015544385
1761317119443253800,7.976253662109375,0.15969605643749235,-0.07774868131931871,-0.0624328926352784
1761317119453236500,7.986236572265625,0.22704934474229813,-0.05661247938610613,-0.07879241821859032
1761317119463219700,7.9962197265625,0.2360597496718168,-0.058077656567841765,-0.02356741113550961
1761317119473201700,8.00620166015625,0.19807576371431349,-0.0536871299913153,-0.012210771873407066
1761317119483184600,8.0161845703125,0.07386427763402462,-0.03248670371547341,-0.02308722640313208
1761317119493167600,8.026167724609374,-0.1459089386254549,-0.038525216694734986,-0.09273688201680778
1761317119503150600,8.036150634765624,-0.3620885143071413,-0.05437894818037748,-0.16353041043598204
1761317119513134000,8.046134033203124,-0.471191863104701,-0.043886414934322236,-0.16601389781478793
1761317119523116000,8.056115966796876,-0.47012511065602297,-0.028006087702699006,-0.10745854073259979
1761317119533099000,8.06609912109375,-0.4308487468004226,-0.020265008589252828,-0.04450973446443677
1761317119543082000,8.07608203125,-0.3315969299316406,-0.02406231851298362,-0.02633607213124633
1761317119553065000,8.08606494140625,-0.20796236695647238,-0.002298705396428704,-0.021374832994677125
1761317119563048200,8.096048095703125,-0.1108165824562311,0.0034870018655434247,-0.005372742546908557
1761317119573031000,8.106031005859375,-0.04743745847940445,-0.011587379278056323,0.02305029192622751
1761317119583013000,8.11601318359375,-0.04682604858279228,-0.04215685119535774,0.0056775707123801105
1761317119592996000,8.12599609375,-0.07503624402284621,-0.048074185480363664,-0.06676675712112337
1761317119602979000,8.13597900390625,-0.09410276354253291,-0.020365984745696186,-0.09520378358699381
1761317119612962000,8.145962158203124,-0.13700199407041072,-0.021964359853044152,-0.08991046295184642
1761317119622945000,8.155945068359374,-0.15947393811941146,-0.034295287507399914,-0.0688699034128338
1761317119632928300,8.16592822265625,-0.11696107656061648,-0.02978343610614538,-0.05454878832194954
1761317119642910000,8.175909912109375,-0.06357903046309947,-0.023713870401494204,-0.05860390893165022
1761317119652893200,8.18589306640625,-0.01019815340936184,-0.018668679308518767,-0.05924688301030546
1761317119662876200,8.195876220703125,0.0438490785986185,-0.02699091931078583,-0.06714264122880995
1761317119672859000,8.20585888671875,0.04125087879896164,-0.03172382958419621,-0.09372629491295666
1761317119682842000,8.215842041015625,0.012626841861009597,-0.03727591075338423,-0.11676233911812305
1761317119692824000,8.225823974609375,0.0023258125990629195,-0.024650018740445374,-0.11101411432232706
1761317119702807000,8.23580712890625,-0.015994856989383698,-0.029010223243944346,-0.07121000026557595
1761317119712790000,8.2457900390625,0.002026537391543388,-0.009349756419099867,-0.08300605385825037
1761317119722773000,8.25577294921875,0.01905073742866516,0.007532550929300486,-0.10724340014457702
1761317119732756200,8.265756103515624,-0.0014507833302021026,-0.0000671834846958518,-0.13918613317646086
1761317119742738000,8.275738037109376,-0.0883352860569954,-0.03230948398504406,-0.19029460831880568
1761317119752721200,8.28572119140625,-0.12441197708845138,-0.03348915875628591,-0.12204130243435501
1761317119762704100,8.2957041015625,-0.15900339799821375,0.04838179012481123,-0.04441317875478416
1761317119772686800,8.305686767578125,-0.17168460039496422,0.09679130850676447,-0.07688603660799563
1761317119782670000,8.315670166015625,-0.15659516781270502,0.08161500135865062,-0.0862075167806819
1761317119792653000,8.325653076171875,-0.15116437493562698,0.07852445146478712,-0.06269256648477166
1761317119802635000,8.335635009765625,-0.16139935322403906,0.07261869801972061,-0.0782468766324222
1761317119812618000,8.345617919921875,-0.16561784770190716,0.049982320656627416,-0.09827464239969849
1761317119822601000,8.35560107421875,-0.19375439338386058,0.04336673844177276,-0.11206545000616461
1761317119832584200,8.365584228515624,-0.18268121070563792,0.010287512193247675,-0.14457268505301327
1761317119842567000,8.37556689453125,-0.14559388132691384,0.008303316106088459,-0.145808473925665
1761317119852549000,8.385549072265626,-0.0806792183458805,0.011593918616697192,-0.13962430539801715
1761317119862532000,8.395531982421875,-0.03985679409205913,0.01475987183433026,-0.15142426798082886
1761317119872515000,8.40551513671875,-0.021066168904304503,0.004809701836667955,-0.15320285849329082
1761317119882498000,8.415498046875,0.02492576694190502,-0.007216214989125728,-0.15744941002186386
1761317119892481000,8.42548095703125,0.07689619267582892,-0.015285539676249026,-0.15751929692029953
1761317119902463000,8.435462890625,0.11080196940898894,-0.034030864417552945,-0.17091789033878593
1761317119912446000,8.445446044921875,0.16796587213277817,-0.044645672336407004,-0.18354977370109407
1761317119922429200,8.45542919921875,0.20843349159955976,-0.0632693069268018,-0.16237320322487503
1761317119932412200,8.465412109375,0.17233634230196476,-0.07158891658056526,-0.1513158757029101
1761317119942395000,8.475394775390624,0.11500175918638705,-0.07342519209701567,-0.13873250765744596
1761317119952378000,8.485378173828124,0.040000001955032345,-0.04305285018701106,-0.10194642624761908
1761317119962360000,8.495360107421876,-0.046398763081431385,-0.029124058881960808,-0.06846493934113532
1761317119972343000,8.505343017578125,-0.14302607666552067,-0.0398255221709609,-0.06911876360736786
1761317119982326000,8.515325927734375,-0.20675942090749738,-0.04289904786478728,-0.09475965654868632
1761317119992309000,8.52530908203125,-0.2363262916535139,-0.06182612238116562,-0.13625161409452557
1761317120002292000,8.5352919921875,-0.23429332452118395,-0.05906913355691358,-0.15021050827689467
1761317120012274000,8.54527392578125,-0.2069809547036886,-0.03975682258261368,-0.11142810195069759
1761317120022257200,8.555257080078125,-0.1858364598661661,-0.03565316838975995,-0.03916702172961086
1761317120032240000,8.565240234375,-0.1605570571810007,-0.023110607278719542,-0.0018158903155475854
1761317120042223000,8.57522314453125,-0.11212591148912907,0.0017879611290059982,0.011217924911156297
1761317120052206000,8.5852060546875,-0.07373451377451419,-0.008976283464208245,-0.00033200843334198
1761317120062189000,8.59518896484375,-0.008986439532041549,-0.01970434249918908,-0.0626415669498965
1761317120072171000,8.6051708984375,0.054447044980525966,-0.06968962229788303,-0.09814202899597585
1761317120082154000,8.615154052734376,0.07454524563550949,-0.10700383750135078,-0.11619385504778473
1761317120092137200,8.62513720703125,0.09949556249678135,-0.1250656917568296,-0.1189628083044663
1761317120102120000,8.635119873046875,0.06880407163500786,-0.10282967535555362,-0.09903079452924429
1761317120112103000,8.64510302734375,0.016404022312164306,-0.06649953928599134,-0.0893264159861952
1761317120122085000,8.655085205078125,-0.07149696398079394,-0.02016598692787811,-0.031159985156357286
1761317120132067800,8.66506787109375,-0.15889584597051143,0.01807949951002374,0.020313925764895973
1761317120142051000,8.675051025390625,-0.1727133589208126,0.02486022742502391,-0.004213452976569533
1761317120152034000,8.685033935546874,-0.094056001791358,0.032510504716169085,-0.013458579977415501
1761317120162017000,8.69501708984375,-0.018272738793492317,0.032533648129738864,-0.046361609408818186
1761317120171999000,8.7049990234375,0.07890285632312298,-0.07383536206679418,0.0700984953597188
1761317120181982000,8.71498193359375,0.22483459130227565,-0.15602964288443327,0.24909579338822513
1761317120191965200,8.724965087890626,0.12419570398926734,-0.055190885617770254,0.16683306871056555
1761317120201948000,8.734947998046875,-0.054016252347826955,0.016269874538481235,-0.20925237023439258
1761317120211931000,8.744930908203125,-0.17657821765542028,0.02971833498068154,-0.319041472806409
1761317120221914000,8.7549140625,-0.2556833185523748,-0.08989203224601224,-0.25369883020427075
1761317120231895800,8.764895751953125,-0.3310065628230572,-0.06837322420338168,-0.16646978835612533
