time,seconds_elapsed,z,y,x
1761315763978016300,0.069016357421875,1.8911547660827637,0.6853377223014832,-0.2803976535797119
1761315763987998500,0.07899853515625,1.916966199874878,0.6074450612068176,-0.17036408185958862
1761315763997980400,0.08898046875,1.9364399909973145,0.5475798845291138,-0.07813441008329391
1761315764007963400,0.09896337890625,1.9655334949493408,0.5382462739944458,-0.015010305680334568
1761315764017945300,0.1089453125,2.002924680709839,0.5783132910728455,0.003393852850422263
1761315764027927300,0.11892724609375,2.0594289302825928,0.6543875932693481,-0.012209074571728706
1761315764037909200,0.1289091796875,2.1220719814300537,0.7504118084907532,-0.061776626855134964
1761315764047891500,0.138891357421875,2.1762783527374268,0.8587603569030762,-0.1321575790643692
1761315764057874400,0.14887451171875,2.2290782928466797,0.9464629292488098,-0.2129582166671753
1761315764067856400,0.1588564453125,2.276197671890259,0.9997341632843018,-0.2758181095123291
1761315764077838300,0.16883837890625,2.3101346492767334,1.0246597528457642,-0.3075709044933319
1761315764087820300,0.1788203125,2.337543487548828,1.0122525691986084,-0.2960854768753052
1761315764097803300,0.18880322265625,2.356218099594116,0.9717795848846436,-0.2505607306957245
1761315764107785500,0.198785400390625,2.382462978363037,0.9398301839828491,-0.17404361069202423
1761315764117767400,0.208767333984375,2.413074254989624,0.9285554885864258,-0.09655778110027313
1761315764127749400,0.218749267578125,2.4562408924102783,0.9106220602989197,-0.037526946514844894
1761315764137731300,0.2287314453125,2.5020878314971924,0.9030572772026062,0.003908790182322264
1761315764147714300,0.23871435546875,2.55330228805542,0.9480044841766357,0.02081000804901123
1761315764157696500,0.248696533203125,2.6135189533233643,1.0739123821258545,0.020672352984547615
1761315764167678500,0.258678466796875,2.6942622661590576,1.18813157081604,-0.003805825486779213
1761315764177660400,0.268660400390625,2.771359443664551,1.1925519704818726,-0.04458083584904671
1761315764187642400,0.278642333984375,2.807314395904541,1.0795894861221313,-0.10091414302587509
1761315764197624300,0.288624267578125,2.7859513759613037,0.8085025548934937,-0.18704678118228912
1761315764207606500,0.2986064453125,2.685842275619507,0.41156530380249023,-0.2968848645687103
1761315764217588700,0.308588623046875,2.549072504043579,0.07846738398075104,-0.387111634016037
1761315764227570400,0.3185703125,2.4185431003570557,-0.1265459507703781,-0.3829765319824219
1761315764237553700,0.3285537109375,2.315234661102295,-0.11448993533849716,-0.2661404013633728
1761315764247535400,0.338535400390625,2.254483699798584,0.12331943213939667,-0.05933317914605141
1761315764257517600,0.348517578125,2.274991512298584,0.49528342485427856,0.19252660870552063
1761315764267499500,0.35849951171875,2.4158079624176025,0.8918994665145874,0.43336158990859985
1761315764277481500,0.3684814453125,2.6321487426757812,1.2142691612243652,0.5955052971839905
1761315764287464700,0.378464599609375,2.835742950439453,1.3282263278961182,0.6333083510398865
1761315764297446400,0.3884462890625,2.9573633670806885,1.243694543838501,0.5805842280387878
1761315764307428600,0.3984287109375,3.016122817993164,1.093957781791687,0.4911728501319885
1761315764317410600,0.40841064453125,3.0239179134368896,0.9502951502799988,0.4133837819099426
1761315764327393500,0.4183935546875,2.966836929321289,0.8337644934654236,0.3343963027000427
1761315764337375700,0.428375732421875,2.8413004875183105,0.7664093971252441,0.2617564797401428
1761315764347357400,0.438357421875,2.664240837097168,0.7315331697463989,0.1896606832742691
1761315764357339600,0.448339599609375,2.4626026153564453,0.7254713773727417,0.11286598443984985
1761315764367321600,0.458321533203125,2.2758209705352783,0.7525317668914795,0.025759849697351456
1761315764377304600,0.4683046875,2.1333417892456055,0.7970901131629944,-0.06516097486019135
1761315764387286800,0.478286865234375,2.042968511581421,0.8497669100761414,-0.1553606390953064
1761315764397268500,0.4882685546875,2.006450891494751,0.9082077145576477,-0.2308320254087448
1761315764407250700,0.498250732421875,2.0060291290283203,0.9647729992866516,-0.2685866057872772
1761315764417232600,0.508232666015625,2.014591932296753,0.979450523853302,-0.2775154113769531
1761315764427215600,0.518215576171875,2.0154685974121094,0.9529517889022827,-0.2592860758304596
1761315764437197600,0.528197509765625,1.9973050355911255,0.894307017326355,-0.23605391383171082
1761315764447179500,0.538179443359375,1.9646209478378296,0.8423314690589905,-0.21097439527511597
1761315764457161700,0.54816162109375,1.9224681854248047,0.8244630694389343,-0.19548216462135315
1761315764467144400,0.55814453125,1.8815265893936157,0.8402146100997925,-0.1952829658985138
1761315764477126700,0.568126708984375,1.8466626405715942,0.8705528378486633,-0.20720010995864868
1761315764487108400,0.5781083984375,1.8284311294555664,0.8989911079406738,-0.22917304933071136
1761315764497090600,0.588090576171875,1.8360116481781006,0.9128249883651733,-0.25926709175109863
1761315764507072500,0.598072509765625,1.857562780380249,0.8984367251396179,-0.30010345578193665
1761315764517055500,0.608055419921875,1.8900200128555298,0.8651739954948425,-0.35184940695762634
1761315764527037700,0.61803759765625,1.906742811203003,0.8311643600463867,-0.3940376043319702
1761315764537019400,0.628019287109375,1.9233537912368774,0.7697678804397583,-0.4189078211784363
1761315764547001600,0.638001708984375,1.9388097524642944,0.7129647731781006,-0.4294582009315491
1761315764556984600,0.647984619140625,1.9495723247528076,0.6517297625541687,-0.42259156703948975
1761315764566966500,0.657966552734375,1.9635168313980103,0.6192658543586731,-0.3855445981025696
1761315764576948700,0.66794873046875,1.9740593433380127,0.6168122291564941,-0.34067896008491516
1761315764586930400,0.677930419921875,1.987874984741211,0.616375207901001,-0.30324557423591614
1761315764596912600,0.68791259765625,1.9968292713165283,0.6164597272872925,-0.2706318795681
1761315764606895400,0.697895263671875,2.014106035232544,0.6288846731185913,-0.25633150339126587
1761315764616877600,0.707877685546875,2.039522647857666,0.6383806467056274,-0.25030553340911865
1761315764626859800,0.71785986328125,2.080552101135254,0.6533012986183167,-0.2508413791656494
1761315764636841500,0.727841552734375,2.1380698680877686,0.683195173740387,-0.2387537807226181
1761315764646823700,0.73782373046875,2.2086002826690674,0.7096678018569946,-0.21740081906318665
1761315764656806400,0.747806396484375,2.2807531356811523,0.7179036140441895,-0.18782812356948853
1761315764666788600,0.75778857421875,2.339982748031616,0.7072515487670898,-0.1415298730134964
1761315764676770600,0.7677705078125,2.3821828365325928,0.6920910477638245,-0.07764133810997009
1761315764686752500,0.77775244140625,2.4110748767852783,0.6810160279273987,-0.004927992355078459
1761315764696735700,0.78773583984375,2.4228837490081787,0.664426326751709,0.05737533047795296
1761315764706717400,0.797717529296875,2.4260056018829346,0.6312295198440552,0.09861304610967636
1761315764716699600,0.80769970703125,2.4168498516082764,0.6045134663581848,0.10598813742399216
1761315764726681300,0.817681396484375,2.420473098754883,0.5786983966827393,0.09088987857103348
1761315764736663600,0.82766357421875,2.414055824279785,0.5250399708747864,0.04737672954797745
1761315764746646500,0.837646484375,2.410747766494751,0.450449675321579,-0.0047059147618710995
1761315764756628500,0.84762841796875,2.403980255126953,0.370216429233551,-0.04647987708449364
1761315764766610700,0.857610595703125,2.4041860103607178,0.3212614059448242,-0.06403197348117828
1761315764776592400,0.86759228515625,2.397972583770752,0.2806357741355896,-0.05255208909511566
1761315764786574600,0.87757470703125,2.38218355178833,0.24226468801498413,-0.023461049422621727
1761315764796557600,0.8875576171875,2.350651264190674,0.19195511937141418,0.008779089897871017
1761315764806539500,0.89753955078125,2.298048734664917,0.1251864731311798,0.03267297148704529
1761315764816521700,0.907521728515625,2.23283052444458,0.07011481374502182,0.05374091491103172
1761315764826503400,0.91750341796875,2.1560730934143066,0.018816204741597176,0.06978832185268402
1761315764836486700,0.927486572265625,2.0839650630950928,-0.010028543882071972,0.07607140392065048
1761315764846468400,0.93746826171875,2.008925437927246,-0.026977434754371643,0.07006650418043137
1761315764856450600,0.947450439453125,1.930842399597168,-0.042624346911907196,0.04694390669465065
1761315764866432500,0.9574326171875,1.8672099113464355,-0.0591529905796051,0.01619664393365383
1761315764876414500,0.96741455078125,1.8203381299972534,-0.07802661508321762,0.0071981195360422134
1761315764886397700,0.977397705078125,1.7932270765304565,-0.06736039370298386,0.020916061475872993
1761315764896379400,0.98737939453125,1.7731132507324219,-0.02296966314315796,0.042757797986269
1761315764906361600,0.997361572265625,1.7584203481674194,0.043768350034952164,0.04763671010732651
1761315764916343600,1.007343505859375,1.7491027116775513,0.0716952383518219,0.017449840903282166
1761315764926326500,1.017326416015625,1.7224937677383423,0.03023994341492653,-0.040066979825496674
1761315764936308700,1.027308837890625,1.6609705686569214,-0.056826747953891754,-0.10671528428792953
1761315764946290400,1.03729052734375,1.5659247636795044,-0.16980336606502533,-0.16534504294395447
1761315764956272600,1.047272705078125,1.4569364786148071,-0.2502500116825104,-0.20280666649341583
1761315764966254600,1.057254638671875,1.3445454835891724,-0.24329142272472382,-0.2246304601430893
1761315764976237600,1.067237548828125,1.2377179861068726,-0.13884395360946655,-0.2334730476140976
1761315764986219500,1.077219482421875,1.1477612257003784,0.04815683141350746,-0.25511786341667175
1761315764996201500,1.087201416015625,1.0934022665023804,0.27737918496131897,-0.29171228408813477
1761315765006183700,1.09718359375,1.0803613662719727,0.5048368573188782,-0.3294500708580017
1761315765016165400,1.107165283203125,1.1067605018615723,0.7035140991210938,-0.3544127345085144
1761315765026148600,1.117148681640625,1.1612977981567383,0.8475407958030701,-0.35717684030532837
1761315765036130300,1.12713037109375,1.2318934202194214,0.9200543165206909,-0.33215177059173584
1761315765046112500,1.137112548828125,1.274428129196167,0.9385321736335754,-0.29630962014198303
1761315765056094700,1.1470947265625,1.288735270500183,0.9003921747207642,-0.25712332129478455
1761315765066076400,1.157076416015625,1.2931606769561768,0.833975613117218,-0.22237171232700348
1761315765076059600,1.1670595703125,1.2842698097229004,0.7278690934181213,-0.18859344720840454
1761315765086041300,1.177041259765625,1.2670564651489258,0.6024789214134216,-0.1619671732187271
1761315765096023600,1.1870234375,1.2534332275390625,0.48486045002937317,-0.13577592372894287
1761315765106005500,1.197005615234375,1.2468633651733398,0.38650885224342346,-0.0874190554022789
1761315765115988500,1.206988525390625,1.255066990852356,0.3262774646282196,-0.011447470635175705
1761315765125970700,1.216970703125,1.2828831672668457,0.298118531703949,0.07844460010528564
1761315765135952400,1.226952392578125,1.3111146688461304,0.2888297736644745,0.1654186099767685
1761315765145934600,1.2369345703125,1.329526424407959,0.27637815475463867,0.2338290959596634
1761315765155916500,1.24691650390625,1.3337558507919312,0.29385995864868164,0.2841354012489319
1761315765165899500,1.2568994140625,1.311429738998413,0.3506332337856293,0.30324146151542664
1761315765175881700,1.2668818359375,1.264208436012268,0.41028302907943726,0.28268247842788696
1761315765185863400,1.276863525390625,1.2015334367752075,0.47353044152259827,0.24215956032276154
1761315765195845600,1.286845703125,1.1275877952575684,0.5422315001487732,0.17851237952709198
1761315765205827800,1.296827880859375,1.065597653388977,0.6171662211418152,0.11032639443874359
1761315765215811000,1.30681103515625,1.0159006118774414,0.6865411400794983,0.0488056018948555
1761315765225793000,1.31679296875,0.9896558523178101,0.7120195627212524,-0.005301308818161488
1761315765235775000,1.32677490234375,0.9773911833763123,0.6734411716461182,-0.04404556751251221
1761315765245757200,1.336757080078125,0.9728531241416931,0.575943648815155,-0.06959860026836395
1761315765255740000,1.346739990234375,0.9661524891853333,0.42715027928352356,-0.07527118921279907
1761315765265722000,1.35672216796875,0.951452374458313,0.2802883982658386,-0.06213302165269852
1761315765275703800,1.366703857421875,0.9322704672813416,0.1482320874929428,-0.03441803529858589
1761315765285686000,1.37668603515625,0.8926010727882385,0.059174925088882446,-0.009467676281929016
1761315765295668000,1.38666796875,0.8350658416748047,0.02823864109814167,0.007937116548418999
1761315765305651000,1.39665087890625,0.7568317651748657,0.031033096835017204,0.005319229792803526
1761315765315633200,1.406633056640625,0.6724363565444946,0.06741221994161606,0.001636848202906549
1761315765325614800,1.41661474609375,0.5932302474975586,0.12501640617847443,-0.0018241959623992443
1761315765335597000,1.42659716796875,0.5210933089256287,0.16828632354736328,-0.019110094755887985
1761315765345579000,1.4365791015625,0.45935142040252686,0.17408138513565063,-0.056530434638261795
1761315765355562000,1.44656201171875,0.401874840259552,0.15593968331813812,-0.11231303960084915
1761315765365544200,1.456544189453125,0.3598261773586273,0.12815946340560913,-0.17848940193653107
1761315765375526000,1.46652587890625,0.32561999559402466,0.11595921963453293,-0.22373540699481964
1761315765385508000,1.476508056640625,0.30403241515159607,0.12510931491851807,-0.24026991426944733
1761315765395491000,1.486490966796875,0.2790813148021698,0.12852677702903748,-0.23369501531124115
1761315765405473000,1.49647314453125,0.2539522647857666,0.12407051026821136,-0.20552222430706024
1761315765415455000,1.506455078125,0.2224796861410141,0.1372014433145523,-0.15937337279319763
1761315765425437000,1.51643701171875,0.18150241672992706,0.16510578989982605,-0.10426458716392517
1761315765435419100,1.526419189453125,0.13773898780345917,0.2101508527994156,-0.05817556008696556
1761315765445401900,1.53640185546875,0.09866908937692642,0.2704906165599823,-0.0273638516664505
1761315765455384000,1.546384033203125,0.07026274502277374,0.3382877707481384,-0.00874409545212984
1761315765465365800,1.55636572265625,0.05389043316245079,0.3941025733947754,-0.013949776068329811
1761315765475348000,1.566347900390625,0.04856802895665169,0.4066275954246521,-0.025080548599362373
1761315765485330200,1.576330078125,0.042410533875226974,0.3855172395706177,-0.04465238377451897
1761315765495313000,1.58631298828125,0.042572107166051865,0.3437422215938568,-0.05294845625758171
1761315765505295000,1.596295166015625,0.028788654133677483,0.2894185483455658,-0.05667581409215927
1761315765515276800,1.60627685546875,0.01273561641573906,0.23677994310855865,-0.06194733455777168
1761315765525259000,1.616259033203125,-0.013828616589307785,0.16832631826400757,-0.059136636555194855
1761315765535241000,1.626240966796875,-0.051407381892204285,0.1304270327091217,-0.05407976731657982
1761315765545224000,1.636223876953125,-0.08400580286979675,0.09827814996242523,-0.04699762165546417
1761315765555206100,1.6462060546875,-0.11184018105268478,0.10559739172458649,-0.0351543053984642
1761315765565187800,1.656187744140625,-0.14288225769996643,0.13159942626953125,-0.013947822153568268
1761315765575170000,1.666170166015625,-0.16861124336719513,0.17221389710903168,0.007575607858598232
1761315765585153000,1.676153076171875,-0.19947780668735504,0.21510358154773712,0.022235777229070663
1761315765595135000,1.686135009765625,-0.23153381049633026,0.2212066948413849,0.002515483181923628
1761315765605117200,1.6961171875,-0.26958853006362915,0.1781814694404602,-0.04686111956834793
1761315765615099000,1.706098876953125,-0.3071202337741852,0.13455122709274292,-0.11828393489122391
1761315765625081000,1.7160810546875,-0.3374831974506378,0.08766653388738632,-0.18256784975528717
1761315765635063800,1.726063720703125,-0.3568148612976074,0.044511884450912476,-0.23752084374427795
1761315765645046000,1.7360458984375,-0.36400139331817627,0.02041107974946499,-0.2751670479774475
1761315765655028200,1.7460283203125,-0.3518003523349762,0.024021465331315994,-0.2854262888431549
1761315765665010000,1.756010009765625,-0.3317864239215851,0.02224939689040184,-0.2641494870185852
1761315765674992000,1.7659921875,-0.3044811487197876,0.050860773772001266,-0.2041454017162323
1761315765684974800,1.775974853515625,-0.2668541371822357,0.12480369955301285,-0.12316586077213287
1761315765694957000,1.78595703125,-0.2063484489917755,0.26224997639656067,-0.019265033304691315
1761315765704939000,1.79593896484375,-0.13326279819011688,0.4458853304386139,0.09063137322664261
1761315765714921000,1.8059208984375,-0.05598577484488487,0.5769073367118835,0.18622779846191406
1761315765724903200,1.815903076171875,0.003902857657521963,0.5680094361305237,0.23966598510742188
1761315765734886000,1.825885986328125,0.027599168941378593,0.4466831386089325,0.23690593242645264
1761315765744868000,1.8358681640625,0.020319152623414993,0.28553205728530884,0.20099987089633942
1761315765754849800,1.845849853515625,0.007634973153471947,0.10497871041297913,0.16071520745754242
1761315765764832000,1.85583203125,-0.007819883525371552,-0.08409081399440765,0.11491043865680695
1761315765774815000,1.86581494140625,-0.008435339666903019,-0.22533796727657318,0.06469360738992691
1761315765784797000,1.875796875,-0.005515449680387974,-0.3044133186340332,0.04200001433491707
1761315765794779100,1.885779052734375,-0.00795593298971653,-0.3226515054702759,0.08693795651197433
1761315765804760800,1.8957607421875,-0.020939642563462257,-0.2857579290866852,0.18134409189224243
1761315765814743000,1.905742919921875,-0.026821576058864594,-0.20083920657634735,0.3063264489173889
1761315765824726000,1.91572607421875,-0.01158003881573677,-0.08048935979604721,0.42765820026397705
1761315765834708000,1.9257080078125,0.036177705973386765,0.04979710280895233,0.529018223285675
1761315765844690200,1.935690185546875,0.09910367429256439,0.1623992770910263,0.5872668623924255
1761315765854672000,1.945671875,0.17577722668647766,0.22383150458335876,0.6084810495376587
1761315765864654000,1.955654052734375,0.24849112331867218,0.2565196752548218,0.5992220044136047
1761315765874636800,1.96563671875,0.32448410987854004,0.29849517345428467,0.5820199847221375
1761315765884619000,1.975618896484375,0.3991530239582062,0.33834195137023926,0.5612190961837769
1761315765894601200,1.985601318359375,0.46884024143218994,0.3535441756248474,0.5470563173294067
1761315765904583000,1.9955830078125,0.5221424102783203,0.3205412030220032,0.5309495329856873
1761315765914565000,2.005565185546875,0.5657055377960205,0.23547671735286713,0.5179644823074341
1761315765924547800,2.0155478515625,0.596011757850647,0.12241460382938385,0.4847700297832489
1761315765934530000,2.025530029296875,0.5979328751564026,0.0047507500275969505,0.44057103991508484
1761315765944512000,2.035511962890625,0.5797852873802185,-0.11722735315561295,0.38525664806365967
1761315765954494000,2.045493896484375,0.5558801293373108,-0.20204955339431763,0.3264828026294708
1761315765964477200,2.055477294921875,0.5267265439033508,-0.24775977432727814,0.27079957723617554
1761315765974459000,2.065458984375,0.5008034706115723,-0.25924330949783325,0.19886744022369385
1761315765984441000,2.075441162109375,0.48957982659339905,-0.26049524545669556,0.11215705424547195
1761315765994423000,2.085423095703125,0.4904630482196808,-0.2619551718235016,0.021239519119262695
1761315766004405000,2.095405029296875,0.5055405497550964,-0.2575918436050415,-0.07430058717727661
1761315766014387000,2.105386962890625,0.513020932674408,-0.2627369463443756,-0.1664765179157257
1761315766024370000,2.115369873046875,0.5282694101333618,-0.25894540548324585,-0.2312248945236206
1761315766034352000,2.12535205078125,0.5667892694473267,-0.23489181697368622,-0.24974806606769562
1761315766044333800,2.135333740234375,0.6232495903968811,-0.18712376058101654,-0.22003385424613953
1761315766054316000,2.14531591796875,0.6924976110458374,-0.11717866361141205,-0.1543174833059311
1761315766064299000,2.155299072265625,0.7628727555274963,-0.037179164588451385,-0.06719084084033966
1761315766074281000,2.165281005859375,0.8307259678840637,0.057623960077762604,0.02985226921737194
1761315766084263200,2.17526318359375,0.8913238048553467,0.14816078543663025,0.1289796531200409
1761315766094244900,2.185244873046875,0.9298095703125,0.22706492245197296,0.2054097056388855
1761315766104227000,2.19522705078125,0.9552813768386841,0.28238093852996826,0.24356400966644287
1761315766114209800,2.205209716796875,0.9718819856643677,0.3161146938800812,0.24713502824306488
1761315766124192000,2.21519189453125,0.9881232380867004,0.3211078345775604,0.2157486081123352
1761315766134174200,2.22517431640625,1.0006043910980225,0.3051225244998932,0.16406063735485077
1761315766144156000,2.235156005859375,0.9906183481216431,0.27282238006591797,0.09908884018659592
1761315766154138000,2.24513818359375,0.9759382009506226,0.2366977483034134,0.02138998731970787
1761315766164120800,2.255120849609375,0.950442910194397,0.19622595608234406,-0.058552518486976624
1761315766174103000,2.26510302734375,0.9114318490028381,0.15826037526130676,-0.13456588983535767
1761315766184085000,2.2750849609375,0.8774991631507874,0.12701936066150665,-0.18147000670433044
1761315766194067000,2.28506689453125,0.8331037163734436,0.11327016353607178,-0.210586816072464
1761315766204049000,2.295048828125,0.7957438230514526,0.09265276789665222,-0.21118202805519104
1761315766214031600,2.305031494140625,0.7721579074859619,0.08011389523744583,-0.18537858128547668
1761315766224013800,2.315013916015625,0.7524155974388123,0.08191845566034317,-0.1478530466556549
1761315766233995800,2.324995849609375,0.7544277906417847,0.0897127166390419,-0.10988526791334152
1761315766243977700,2.334977783203125,0.7472518682479858,0.06684069335460663,-0.071210578083992
1761315766253961000,2.3449609375,0.7457807064056396,0.0442747101187706,-0.03437924012541771
1761315766263942700,2.354942626953125,0.7445774674415588,0.03939180448651314,0.00635141134262085
1761315766273924900,2.3649248046875,0.735052227973938,0.042457349598407745,0.04625849425792694
1761315766283906800,2.37490673828125,0.720694363117218,0.055161163210868835,0.07795624434947968
1761315766293888800,2.384888671875,0.696250855922699,0.036560408771038055,0.08963827788829803
1761315766303871700,2.394871826171875,0.6568533778190613,-0.01613556034862995,0.09562666714191437
1761315766313853700,2.404853759765625,0.6141754984855652,-0.10067236423492432,0.09134379774332047
1761315766323836000,2.4148359375,0.5602030754089355,-0.1983746886253357,0.08173990249633789
1761315766333817600,2.424817626953125,0.5001025199890137,-0.2821581959724426,0.07010520994663239
1761315766343799800,2.4347998046875,0.4316944479942322,-0.33965373039245605,0.05731644481420517
1761315766353782500,2.444782470703125,0.3530767858028412,-0.3652456998825073,0.03764382004737854
1761315766363764700,2.4547646484375,0.27167433500289917,-0.35420477390289307,0.003705560928210616
1761315766373747000,2.464746826171875,0.2031390368938446,-0.32916536927223206,-0.038348328322172165
1761315766383728600,2.474728759765625,0.14056220650672913,-0.31136345863342285,-0.07987046986818314
1761315766393710800,2.4847109375,0.09733183681964874,-0.27859988808631897,-0.10120878368616104
1761315766403693600,2.494693603515625,0.0838778093457222,-0.23394614458084106,-0.09561214596033096
1761315766413675800,2.50467578125,0.08011689782142639,-0.17980553209781647,-0.0632721409201622
1761315766423657700,2.51465771484375,0.09843891113996506,-0.08522602915763855,-0.0017741594929248095
1761315766433639700,2.5246396484375,0.1373523324728012,0.006913910154253244,0.0630793496966362
1761315766443621600,2.53462158203125,0.1793607771396637,0.002182005438953638,0.08378675580024719
1761315766453604600,2.5446044921875,0.17590798437595367,-0.12888887524604797,0.03480080887675285
1761315766463586800,2.5545869140625,0.11571201682090759,-0.3162957727909088,-0.08514902740716934
1761315766473568800,2.56456884765625,0.008994059637188911,-0.4742957353591919,-0.25099849700927734
1761315766483550700,2.57455078125,-0.0997779592871666,-0.5441129207611084,-0.43634623289108276
1761315766493534000,2.584533935546875,-0.18872228264808655,-0.5162936449050903,-0.5908018946647644
1761315766503515600,2.594515625,-0.24902237951755524,-0.4029929041862488,-0.6905130743980408
1761315766513497900,2.604497802734375,-0.2755447030067444,-0.25537794828414917,-0.7200073003768921
1761315766523479800,2.614479736328125,-0.25265538692474365,-0.11546266078948975,-0.6737782955169678
1761315766533461800,2.624461669921875,-0.1820320338010788,-0.029510479420423508,-0.5706217885017395
1761315766543445000,2.634445068359375,-0.08685572445392609,0.02801619842648506,-0.42164376378059387
1761315766553426700,2.6444267578125,0.03258315846323967,0.0783197283744812,-0.24278408288955688
1761315766563409000,2.654408935546875,0.1592545509338379,0.11590065807104111,-0.04782577604055405
1761315766573390800,2.664390869140625,0.264507532119751,0.13875259459018707,0.1398741453886032
1761315766583372800,2.674372802734375,0.3196679949760437,0.17395107448101044,0.30396029353141785
1761315766593355800,2.684355712890625,0.3338664472103119,0.23225297033786774,0.4316454231739044
1761315766603337700,2.694337646484375,0.3247981369495392,0.2992970049381256,0.5256725549697876
1761315766613319700,2.704319580078125,0.3253699243068695,0.3650534749031067,0.5895567536354065
1761315766623301600,2.714301513671875,0.3410857617855072,0.38503941893577576,0.6289637684822083
1761315766633283800,2.724283935546875,0.3883402347564697,0.37375408411026,0.6566474437713623
1761315766643266600,2.7342666015625,0.45890602469444275,0.3336908221244812,0.6858468651771545
1761315766653248800,2.744248779296875,0.5408101081848145,0.26616060733795166,0.7159602046012878
1761315766663230700,2.754230712890625,0.6085830330848694,0.17052385210990906,0.7315788865089417
1761315766673212700,2.764212646484375,0.6415140628814697,0.04048287495970726,0.7166517972946167
1761315766683196000,2.77419580078125,0.6216008067131042,-0.09243523329496384,0.6724675297737122
1761315766693177600,2.784177490234375,0.5697454810142517,-0.19645145535469055,0.6024923920631409
1761315766703159800,2.794159912109375,0.5004260540008545,-0.2591361403465271,0.5279979109764099
1761315766713141800,2.804141845703125,0.4144100546836853,-0.28483742475509644,0.448360413312912
1761315766723123700,2.814123779296875,0.32046493887901306,-0.2628953754901886,0.37386754155158997
1761315766733107000,2.82410693359375,0.23777608573436737,-0.21197891235351562,0.29539573192596436
1761315766743088600,2.834088623046875,0.17369402945041656,-0.12446930259466171,0.21966049075126648
1761315766753070800,2.84407080078125,0.136731818318367,-0.02327367663383484,0.15912429988384247
1761315766763052800,2.854052734375,0.12102635949850082,0.0846187025308609,0.11016607284545898
1761315766773034800,2.86403466796875,0.1313311606645584,0.19658949971199036,0.07698279619216919
1761315766783017700,2.874017822265625,0.1692042350769043,0.2972833514213562,0.05708099156618118
1761315766792999700,2.883999755859375,0.22269511222839355,0.38309842348098755,0.05116717517375946
1761315766802982000,2.89398193359375,0.27696529030799866,0.43771904706954956,0.04816259816288948
1761315766812963800,2.9039638671875,0.33342716097831726,0.45011064410209656,0.04624077305197716
1761315766822945800,2.91394580078125,0.3786420524120331,0.4293060004711151,0.04804080352187157
1761315766832928800,2.9239287109375,0.4221157133579254,0.3882351219654083,0.04259511083364487
1761315766842910700,2.93391064453125,0.4621070921421051,0.36081549525260925,0.03248308598995209
1761315766852892700,2.943892578125,0.4985731840133667,0.34070107340812683,0.0112332534044981
1761315766862874600,2.95387451171875,0.5290823578834534,0.3384895920753479,-0.021708184853196144
1761315766872856800,2.96385693359375,0.5471051335334778,0.34196585416793823,-0.06481877714395523
1761315766882839600,2.973839599609375,0.5568980574607849,0.3496711850166321,-0.12134064733982086
1761315766892821800,2.98382177734375,0.5647648572921753,0.3630470931529999,-0.18906907737255096
1761315766902803700,2.9938037109375,0.5879884362220764,0.38976767659187317,-0.25053510069847107
1761315766912785700,3.00378564453125,0.6211470365524292,0.4369639754295349,-0.3016948401927948
1761315766922769000,3.013768798828125,0.6616108417510986,0.5013291239738464,-0.33203035593032837
1761315766932750600,3.02375048828125,0.7140688300132751,0.5613431930541992,-0.3399675488471985
1761315766942732800,3.03373291015625,0.7637982964515686,0.6205857396125793,-0.31876105070114136
1761315766952714800,3.04371484375,0.8100388050079346,0.6766605377197266,-0.27193498611450195
1761315766962696700,3.05369677734375,0.8649830222129822,0.7271500825881958,-0.20284512639045715
1761315766972680000,3.063679931640625,0.9107727408409119,0.7678549885749817,-0.12018545717000961
1761315766982661600,3.07366162109375,0.964475154876709,0.775445818901062,-0.042224351316690445
1761315766992643800,3.083643798828125,1.0160930156707764,0.7722998261451721,0.008636198937892914
1761315767002625800,3.093625732421875,1.061163067817688,0.756767988204956,0.029031485319137573
1761315767012607700,3.103607666015625,1.1017248630523682,0.7236335277557373,0.02825842797756195
1761315767022590700,3.1135908203125,1.1334713697433472,0.6792042851448059,0.017738942056894302
1761315767032572700,3.12357275390625,1.1420284509658813,0.6399667859077454,0.00052436045370996
1761315767042555000,3.133554931640625,1.1426255702972412,0.628192663192749,-0.016507886350154877
1761315767052536800,3.143536865234375,1.1507866382598877,0.6316220760345459,-0.026421833783388138
1761315767062518800,3.153518798828125,1.152403712272644,0.6380903720855713,-0.02439756505191326
1761315767072501800,3.163501708984375,1.1428782939910889,0.6403952836990356,-0.025963857769966125
1761315767082483700,3.173483642578125,1.1301709413528442,0.6697502136230469,-0.015800170600414276
1761315767092465700,3.183465576171875,1.122369647026062,0.7097367644309998,-0.025601016357541084
1761315767102447900,3.19344775390625,1.1134264469146729,0.7200608253479004,-0.04740138351917267
1761315767112430800,3.203430908203125,1.1054410934448242,0.7122274041175842,-0.080713652074337
1761315767122412800,3.213412841796875,1.1044975519180298,0.7004556655883789,-0.11974360793828964
1761315767132394800,3.223394775390625,1.0957098007202148,0.6964056491851807,-0.15853950381278992
1761315767142376700,3.233376708984375,1.075538992881775,0.7007604241371155,-0.19576463103294373
1761315767152358700,3.243358642578125,1.031360387802124,0.719731330871582,-0.2346322238445282
1761315767162342000,3.253341796875,0.9929743409156799,0.7649219632148743,-0.27647101879119873
1761315767172323600,3.263323486328125,0.9640856981277466,0.7813479900360107,-0.32779115438461304
1761315767182305800,3.273305908203125,0.941567063331604,0.7699813842773438,-0.37607160210609436
1761315767192287700,3.283287841796875,0.9329966902732849,0.7597719430923462,-0.40410634875297546
1761315767202269700,3.293269775390625,0.9363331198692322,0.7533600926399231,-0.40181151032447815
1761315767212253000,3.3032529296875,0.9531705975532532,0.7635572552680969,-0.3648146986961365
1761315767222234600,3.313234619140625,0.9769395589828491,0.8036916255950928,-0.3026149570941925
1761315767232216800,3.323216796875,1.0126303434371948,0.8828223943710327,-0.2321902960538864
1761315767242198800,3.33319873046875,1.06744384765625,1.0098258256912231,-0.15323582291603088
1761315767252180700,3.3431806640625,1.129948616027832,1.1223888397216797,-0.08812390267848969
1761315767262163700,3.353163818359375,1.1946187019348145,1.2030013799667358,-0.07735300809144974
1761315767272145700,3.363145751953125,1.2401891946792603,1.1635468006134033,-0.13401594758033752
1761315767282128000,3.3731279296875,1.2528607845306396,1.045311689376831,-0.24101749062538147
1761315767292109800,3.38310986328125,1.2477390766143799,0.8478307723999023,-0.36176109313964844
1761315767302091800,3.393091796875,1.2121866941452026,0.5655932426452637,-0.4757020175457001
1761315767312074800,3.40307470703125,1.1437114477157593,0.2706873416900635,-0.5357667207717896
1761315767322056700,3.413056640625,1.0601599216461182,0.08543947339057922,-0.5111425518989563
1761315767332038700,3.42303857421875,0.9921079874038696,0.02494899369776249,-0.4028506278991699
1761315767342020900,3.433020751953125,0.9774233102798462,0.09108513593673706,-0.23954825103282928
1761315767352002800,3.4430029296875,1.025559902191162,0.23556381464004517,-0.041513342410326004
1761315767361985800,3.45298583984375,1.1192179918289185,0.4286145269870758,0.15632863342761993
1761315767371967700,3.4629677734375,1.2472527027130127,0.5965462923049927,0.3379889130592346
1761315767381949700,3.47294970703125,1.4001519680023193,0.6951767206192017,0.48145154118537903
1761315767391931600,3.482931640625,1.5375101566314697,0.7217534780502319,0.5882099866867065
1761315767401915000,3.492914794921875,1.6332377195358276,0.6972894072532654,0.682762861251831
1761315767411896800,3.502896728515625,1.6810824871063232,0.6492120623588562,0.7710903286933899
1761315767421878800,3.512878662109375,1.7090928554534912,0.61634761095047,0.8575450778007507
1761315767431860700,3.52286083984375,1.7229567766189575,0.6262952089309692,0.9460082650184631
1761315767441842700,3.5328427734375,1.7267004251480103,0.6606704592704773,1.016242504119873
1761315767451826000,3.542825927734375,1.7004222869873047,0.666353166103363,1.0309792757034302
1761315767461807600,3.5528076171875,1.6368687152862549,0.5999864339828491,0.959665060043335
1761315767471789800,3.562789794921875,1.535918116569519,0.4746934771537781,0.8186908960342407
1761315767481771800,3.572771728515625,1.4225505590438843,0.3237593472003937,0.6359253525733948
1761315767491753700,3.582753662109375,1.3096905946731567,0.16864731907844543,0.4204467236995697
1761315767501736700,3.59273681640625,1.2012919187545776,-0.021505575627088547,0.20110903680324554
1761315767511718700,3.60271875,1.0925769805908203,-0.21748127043247223,0.0042784069664776325
1761315767521700900,3.612700927734375,0.9752783179283142,-0.35622209310531616,-0.14747489988803864
1761315767531682800,3.622682861328125,0.8583447933197021,-0.4249062240123749,-0.26581934094429016
1761315767541664800,3.632664794921875,0.7383970618247986,-0.43587177991867065,-0.3484835922718048
1761315767551647700,3.642647705078125,0.6399822235107422,-0.42100927233695984,-0.3998302221298218
1761315767561629700,3.652629638671875,0.5542361736297607,-0.33985263109207153,-0.4280959367752075
1761315767571611600,3.662611572265625,0.49455276131629944,-0.21008439362049103,-0.44093284010887146
1761315767581593900,3.67259375,0.4676761329174042,-0.06185764819383621,-0.44907811284065247
1761315767591576800,3.682576904296875,0.4765678942203522,0.10043039917945862,-0.44936084747314453
1761315767601558800,3.692558837890625,0.5184961557388306,0.2506183087825775,-0.4286656677722931
1761315767611540700,3.702540771484375,0.6050474047660828,0.38265886902809143,-0.39151549339294434
1761315767621522700,3.712522705078125,0.7130130529403687,0.4856371581554413,-0.3455951511859894
1761315767631505000,3.7225048828125,0.8391860127449036,0.5464690327644348,-0.28834304213523865
1761315767641488000,3.73248779296875,0.9525557160377502,0.5677087903022766,-0.2274082899093628
1761315767651469800,3.7424697265625,1.0407066345214844,0.5416457653045654,-0.1741650402545929
1761315767661451800,3.75245166015625,1.0847177505493164,0.4884651005268097,-0.14384575188159943
1761315767671433700,3.762433837890625,1.0870312452316284,0.43196776509284973,-0.13976526260375977
1761315767681415700,3.772415771484375,1.053521752357483,0.38349342346191406,-0.15301023423671722
1761315767691399000,3.78239892578125,1.0034083127975464,0.3509443998336792,-0.18042181432247162
1761315767701380600,3.792380615234375,0.9513182640075684,0.3415926992893219,-0.21762405335903168
1761315767711362800,3.80236279296875,0.891565203666687,0.33845970034599304,-0.2573994994163513
1761315767721344800,3.8123447265625,0.8456797003746033,0.32147085666656494,-0.29143232107162476
1761315767731326700,3.82232666015625,0.7904065847396851,0.30491629242897034,-0.30313485860824585
1761315767741309700,3.832309814453125,0.7390919923782349,0.2873367667198181,-0.3055034875869751
1761315767751291600,3.842291748046875,0.7066290378570557,0.2665847837924957,-0.2874496877193451
1761315767761273900,3.85227392578125,0.6971244812011719,0.2575361430644989,-0.2668085992336273
1761315767771255800,3.862255859375,0.6934566497802734,0.25854983925819397,-0.25040215253829956
1761315767781237800,3.87223779296875,0.6984575390815735,0.2591024339199066,-0.23955056071281433
1761315767791220700,3.882220703125,0.7060233950614929,0.2687584161758423,-0.2256704866886139
1761315767801202700,3.89220263671875,0.7070255875587463,0.2803136110305786,-0.20011265575885773
1761315767811184600,3.9021845703125,0.7117359042167664,0.2943752110004425,-0.17252397537231445
1761315767821166800,3.912166748046875,0.706393301486969,0.2789478003978729,-0.13845708966255188
1761315767831148800,3.922148681640625,0.6880247592926025,0.23575572669506073,-0.11326058954000473
1761315767841131800,3.9321318359375,0.6579102873802185,0.18369705975055695,-0.09554550796747208
1761315767851113700,3.94211376953125,0.6143653392791748,0.13061073422431946,-0.08153506368398666
1761315767861095700,3.952095703125,0.5737358927726746,0.055625446140766144,-0.08860602229833603
1761315767871078000,3.962077880859375,0.538533627986908,-0.03463296592235565,-0.09535107016563416
1761315767881060900,3.972060791015625,0.5140964388847351,-0.11208568513393402,-0.09396542608737946
1761315767891042800,3.982042724609375,0.50974440574646,-0.15698841214179993,-0.06908685714006424
1761315767901024800,3.992024658203125,0.49712318181991577,-0.18870799243450165,-0.023252790793776512
1761315767911006700,4.0020068359375,0.4741591811180115,-0.20939049124717712,0.02488032728433609
1761315767920988700,4.01198876953125,0.44491738080978394,-0.231253981590271,0.06172036752104759
1761315767930972000,4.021971923828125,0.39821821451187134,-0.288386732339859,0.07842915505170822
1761315767940953900,4.031953857421875,0.3453161120414734,-0.34029895067214966,0.08593980222940445
1761315767950935800,4.041935791015625,0.3122127652168274,-0.3501385748386383,0.09897946566343307
1761315767960917800,4.051917724609375,0.3107821047306061,-0.30606114864349365,0.11534485965967178
1761315767970899700,4.061899658203125,0.33059224486351013,-0.18889173865318298,0.12956365942955017
1761315767980882700,4.071882568359375,0.36868876218795776,-0.0869177058339119,0.10828526318073273
1761315767990864600,4.08186474609375,0.38997548818588257,-0.06607241928577423,0.0056254928931593895
1761315768000846800,4.091846923828125,0.3736724257469177,-0.11412863433361053,-0.16511856019496918
1761315768010828800,4.101828857421875,0.32538989186286926,-0.19122624397277832,-0.3756386935710907
1761315768020810800,4.111810791015625,0.24100710451602936,-0.2882007360458374,-0.5880380272865295
1761315768030793700,4.121793701171875,0.14614121615886688,-0.38059231638908386,-0.7500720024108887
1761315768040775700,4.131775634765625,0.06495556235313416,-0.41712501645088196,-0.8128408193588257
1761315768050757600,4.141757568359375,0.011841741390526295,-0.38656750321388245,-0.7507081627845764
1761315768060739800,4.15173974609375,-0.013305689208209515,-0.34039440751075745,-0.5950719714164734
1761315768070721800,4.1617216796875,0.00895464513450861,-0.2865482270717621,-0.39209142327308655
1761315768080704800,4.171704833984375,0.06552817672491074,-0.20905129611492157,-0.16579997539520264
1761315768090686700,4.181686767578125,0.154181569814682,-0.10252958536148071,0.04596312344074249
1761315768100668700,4.191668701171875,0.24973660707473755,-0.014640744775533676,0.2132759541273117
1761315768110651000,4.20165087890625,0.3249415159225464,0.023715559393167496,0.3184688985347748
1761315768120632600,4.211632568359375,0.37380918860435486,0.07274196296930313,0.369073748588562
1761315768130615800,4.22161572265625,0.3937198221683502,0.13884052634239197,0.39050471782684326
1761315768140597800,4.23159765625,0.4041852653026581,0.2073516845703125,0.41122785210609436
1761315768150579700,4.241579833984375,0.4069983661174774,0.2845793664455414,0.44072315096855164
1761315768160562000,4.25156201171875,0.4235171377658844,0.3766821324825287,0.4986085593700409
1761315768170545000,4.261544921875,0.4583353102207184,0.4690152704715729,0.5817157030105591
1761315768180526800,4.27152685546875,0.5103625059127808,0.5472182035446167,0.6725095510482788
1761315768190508800,4.2815087890625,0.5590538382530212,0.5943666100502014,0.760088324546814
1761315768200491000,4.291490966796875,0.5982451438903809,0.6000258326530457,0.8310714364051819
1761315768210473000,4.301472900390625,0.6210854053497314,0.5631027817726135,0.8754794597625732
1761315768220456200,4.311456298828125,0.5969212055206299,0.4807325303554535,0.869595468044281
1761315768230438000,4.32143798828125,0.5331069231033325,0.35910889506340027,0.8302623629570007
1761315768240420000,4.331420166015625,0.4472479224205017,0.23958970606327057,0.7721553444862366
1761315768250402000,4.341402099609375,0.3565734028816223,0.17532393336296082,0.7022920846939087
1761315768260384000,4.351384033203125,0.2673511207103729,0.1622566133737564,0.6352278590202332
1761315768270367000,4.361366943359375,0.18489345908164978,0.20561300218105316,0.5707377195358276
1761315768280349000,4.371348876953125,0.10363481193780899,0.2761864960193634,0.499580442905426
1761315768290331000,4.381330810546875,0.03722917288541794,0.374294638633728,0.40845680236816406
1761315768300313000,4.39131298828125,-0.01896725408732891,0.44467586278915405,0.3011505901813507
1761315768310295000,4.401294921875,-0.06319992989301682,0.5092629194259644,0.1957399994134903
1761315768320278000,4.411278076171875,-0.10165198147296906,0.5783173441886902,0.09711034595966339
1761315768330260000,4.421260009765625,-0.12609055638313293,0.6555391550064087,0.01480854582041502
1761315768340242000,4.431241943359375,-0.1462637335062027,0.6499350666999817,-0.0722201019525528
1761315768350224100,4.44122412109375,-0.1570032835006714,0.5537824034690857,-0.13897140324115753
1761315768360205800,4.451205810546875,-0.14745424687862396,0.4426902234554291,-0.1525154411792755
1761315768370189000,4.46118896484375,-0.11054683476686478,0.336269736289978,-0.11782560497522354
1761315768380171000,4.4711708984375,-0.07849834859371185,0.2648157775402069,-0.05550896376371384
1761315768390153000,4.481153076171875,-0.06102786213159561,0.2572941482067108,0.017338523641228676
1761315768400135200,4.49113525390625,-0.059190548956394196,0.28497186303138733,0.07007577270269394
1761315768410116900,4.501116943359375,-0.06279391795396805,0.2987486720085144,0.08002731949090958
1761315768420100000,4.51110009765625,-0.085706427693367,0.31717613339424133,0.0404018834233284
1761315768430082000,4.52108203125,-0.12442445009946823,0.3335111439228058,-0.043212056159973145
1761315768440064000,4.53106396484375,-0.17355604469776154,0.3609912395477295,-0.1418081372976303
1761315768450046000,4.5410458984375,-0.228226438164711,0.34923163056373596,-0.2526562809944153
1761315768460029000,4.55102880859375,-0.2831445336341858,0.3237752616405487,-0.3667980134487152
1761315768470011000,4.561010986328125,-0.30542120337486267,0.3887367844581604,-0.465021550655365
1761315768479993000,4.5709931640625,-0.27542442083358765,0.5025594830513,-0.5402143597602844
1761315768489975000,4.58097509765625,-0.21141161024570465,0.5785310864448547,-0.6014665365219116
1761315768499957000,4.59095703125,-0.14712610840797424,0.5376848578453064,-0.6508881449699402
1761315768509940000,4.60093994140625,-0.07292834669351578,0.38342612981796265,-0.671199381351471
1761315768519922000,4.610921875,0.027644595131278038,0.19958893954753876,-0.632427453994751
1761315768529903900,4.62090380859375,0.14592786133289337,0.04818098619580269,-0.5266717076301575
1761315768539886000,4.630885986328125,0.2441958487033844,-0.038482002913951874,-0.37386009097099304
1761315768549868000,4.640867919921875,0.31191542744636536,-0.04977932199835777,-0.18727637827396393
1761315768559851000,4.65085107421875,0.3665909171104431,0.0022822809405624866,-0.0032793760765343904
1761315768569833000,4.6608330078125,0.41712942719459534,0.08588998019695282,0.1406494826078415
1761315768579815000,4.67081494140625,0.46842750906944275,0.14630194008350372,0.22549033164978027
1761315768589797000,4.680797119140625,0.46784618496894836,0.20258815586566925,0.24989645183086395
1761315768599778800,4.69077880859375,0.4223266541957855,0.242356076836586,0.2273527979850769
1761315768609762000,4.700761962890625,0.336490660905838,0.28695693612098694,0.17176099121570587
1761315768619744000,4.710743896484375,0.23226439952850342,0.3524184823036194,0.12197399884462357
1761315768629726000,4.720725830078125,0.1157085970044136,0.4411854147911072,0.07914596050977707
1761315768639708200,4.730708251953125,0.012078875675797462,0.5129943490028381,0.048083651810884476
1761315768649689900,4.74068994140625,-0.08165347576141357,0.5355526208877563,0.014415200799703598
1761315768659673000,4.750673095703125,-0.14319726824760437,0.5242360234260559,-0.019705219194293022
1761315768669655000,4.760655029296875,-0.14568987488746643,0.4956313669681549,-0.04478411749005318
1761315768679637000,4.770636962890625,-0.09261253476142883,0.4714999198913574,-0.043571580201387405
1761315768689619000,4.780618896484375,-0.010695830918848515,0.4679790139198303,-0.00268729729577899
1761315768699601000,4.790600830078125,0.0795280709862709,0.47124937176704407,0.0755651667714119
1761315768709584000,4.800583984375,0.1738242506980896,0.46022430062294006,0.16999877989292145
1761315768719566000,4.810566162109375,0.27386030554771423,0.3811177611351013,0.26724889874458313
1761315768729548000,4.820548095703125,0.40932485461235046,0.27998289465904236,0.38002005219459534
1761315768739530000,4.830530029296875,0.5827458500862122,0.23694568872451782,0.5137669444084167
1761315768749513000,4.840512939453125,0.7633213400840759,0.27588802576065063,0.6487483382225037
1761315768759495000,4.850494873046875,0.9047203063964844,0.32200944423675537,0.7541437745094299
1761315768769476900,4.860476806640625,0.9860727787017822,0.34779348969459534,0.8078142404556274
1761315768779459000,4.870458984375,0.9888437986373901,0.33124327659606934,0.7993237972259521
1761315768789441000,4.88044091796875,0.9097963571548462,0.2442668080329895,0.7127383351325989
1761315768799424000,4.890424072265625,0.7430878281593323,0.12624216079711914,0.5740925669670105
1761315768809406000,4.900406005859375,0.4953911602497101,0.00043644802644848824,0.4001811444759369
1761315768819388000,4.910387939453125,0.20022504031658173,-0.10082598775625229,0.2149987518787384
1761315768829370000,4.9203701171875,-0.08868464082479477,-0.1300269216299057,0.05618270859122276
1761315768839351800,4.930351806640625,-0.32918912172317505,-0.06418666243553162,-0.055054064840078354
1761315768849335000,4.9403349609375,-0.4695829153060913,0.04169889912009239,-0.12907098233699799
1761315768859317000,4.95031689453125,-0.49636632204055786,0.14733345806598663,-0.17979328334331512
1761315768869299000,4.960298828125,-0.40822744369506836,0.24388545751571655,-0.18697750568389893
1761315768879281200,4.97028125,-0.27922818064689636,0.2717921733856201,-0.13009852170944214
1761315768889262800,4.980262939453125,-0.181041419506073,0.2475791573524475,-0.008719563484191895
1761315768899246000,4.99024609375,-0.10814777761697769,0.1806184947490692,0.15808139741420746
1761315768909228000,5.00022802734375,-0.02399398386478424,0.16888907551765442,0.3630710542201996
1761315768919210000,5.0102099609375,0.09046787768602371,0.23915046453475952,0.5991603136062622
1761315768929192200,5.020192138671875,0.16414415836334229,0.3314391076564789,0.8041026592254639
1761315768939174000,5.030173828125,0.15887244045734406,0.35988378524780273,0.9113612174987793
1761315768949157000,5.0401572265625,0.09453802555799484,0.3012665808200836,0.8993113040924072
1761315768959139000,5.05013916015625,0.006660906132310629,0.21814027428627014,0.8034500479698181
1761315768969121000,5.06012109375,-0.08234696090221405,0.18026211857795715,0.6834316253662109
1761315768979103000,5.07010302734375,-0.16012005507946014,0.20471233129501343,0.5676461458206177
1761315768989085000,5.0800849609375,-0.208403542637825,0.27967768907546997,0.4907461702823639
1761315768999068000,5.09006787109375,-0.23602238297462463,0.3538440763950348,0.4423288404941559
1761315769009049900,5.1000498046875,-0.2648003399372101,0.37060216069221497,0.4031214714050293
1761315769019032000,5.110031982421875,-0.31018832325935364,0.3613910973072052,0.3699973225593567
1761315769029014000,5.120013916015625,-0.3559998869895935,0.3376363515853882,0.3261106014251709
1761315769038997000,5.1299970703125,-0.4051951467990875,0.3201332092285156,0.2597299814224243
1761315769048979000,5.13997900390625,-0.4589845538139343,0.2991257905960083,0.16203628480434418
1761315769058961000,5.1499609375,-0.5186585187911987,0.2942258417606354,0.02468801848590374
1761315769068943000,5.159943115234375,-0.5613247752189636,0.3131350874900818,-0.1362079232931137
1761315769078924800,5.1699248046875,-0.5480438470840454,0.3270474374294281,-0.29250165820121765
1761315769088908000,5.179907958984375,-0.47665032744407654,0.32584384083747864,-0.41313934326171875
1761315769098890000,5.189889892578125,-0.3584030270576477,0.26940640807151794,-0.48851877450942993
1761315769108872000,5.199871826171875,-0.20328103005886078,0.1762862503528595,-0.5335631370544434
1761315769118854100,5.209854248046875,-0.05044461414217949,0.1384669542312622,-0.5312392711639404
1761315769128835800,5.2198359375,-0.01225050538778305,0.1309622824192047,-0.5040736794471741
1761315769138819000,5.229819091796875,-0.0977984294295311,0.14740224182605743,-0.4985542893409729
1761315769148801000,5.239801025390625,-0.20614439249038696,0.12944869697093964,-0.5326019525527954
1761315769158783000,5.249782958984375,-0.2783011198043823,-0.01819482445716858,-0.6135841012001038
1761315769168765200,5.25976513671875,-0.3137345612049103,-0.2180560976266861,-0.7054542303085327
1761315769178747000,5.269746826171875,-0.31058457493782043,-0.363521933555603,-0.7839434146881104
1761315769188730000,5.279730224609375,-0.29467806220054626,-0.4490658640861511,-0.8258581161499023
1761315769198712000,5.289712158203125,-0.27013516426086426,-0.4760708510875702,-0.8222524523735046
1761315769208694500,5.299694580078125,-0.24704961478710175,-0.45719024538993835,-0.7760770320892334
1761315769218676200,5.30967626953125,-0.23717808723449707,-0.3977293372154236,-0.6905919909477234
1761315769228658400,5.319658447265625,-0.26998335123062134,-0.34404996037483215,-0.598067045211792
1761315769238641200,5.32964111328125,-0.3293260335922241,-0.3064613342285156,-0.5145146250724792
1761315769248623400,5.339623291015625,-0.39097338914871216,-0.26491931080818176,-0.44589605927467346
1761315769258605600,5.34960546875,-0.4309815466403961,-0.24450485408306122,-0.3876250386238098
1761315769268587300,5.359587158203125,-0.4651929438114166,-0.2857658267021179,-0.35706737637519836
1761315769278569500,5.369569580078125,-0.5126403570175171,-0.40666189789772034,-0.3487279415130615
1761315769288552200,5.37955224609375,-0.5301001667976379,-0.5359363555908203,-0.33351218700408936
1761315769298534400,5.389534423828125,-0.512321412563324,-0.5989981293678284,-0.27478525042533875
1761315769308516400,5.399516357421875,-0.4730699360370636,-0.6039642095565796,-0.18133728206157684
1761315769318498300,5.409498291015625,-0.4432358741760254,-0.6067008376121521,-0.07733632624149323
1761315769328480500,5.41948046875,-0.4258703291416168,-0.6391716003417969,0.031741637736558914
1761315769338463200,5.429463134765625,-0.42362073063850403,-0.6912068128585815,0.14201301336288452
1761315769348445400,5.439445556640625,-0.43180763721466064,-0.7713207006454468,0.24990564584732056
1761315769358427400,5.449427490234375,-0.4399731755256653,-0.8749043941497803,0.35479477047920227
1761315769368409300,5.459409423828125,-0.4441045820713043,-0.948627769947052,0.45841148495674133
1761315769378391300,5.469391357421875,-0.439159631729126,-0.9983795881271362,0.5390195250511169
1761315769388374300,5.479374267578125,-0.42756104469299316,-1.0028506517410278,0.5705963969230652
1761315769398356500,5.4893564453125,-0.421713262796402,-0.9608432650566101,0.5450838804244995
1761315769408338400,5.49933837890625,-0.4258432388305664,-0.8481111526489258,0.4504273235797882
1761315769418320400,5.5093203125,-0.43788203597068787,-0.7168359160423279,0.28800058364868164
1761315769428303400,5.519303466796875,-0.44930335879325867,-0.598736584186554,0.08691662549972534
1761315769438285300,5.529285400390625,-0.48725658655166626,-0.5397936105728149,-0.10267461091279984
1761315769448267500,5.539267578125,-0.5490237474441528,-0.4991929233074188,-0.24028733372688293
1761315769458249200,5.549249267578125,-0.6138046383857727,-0.43315958976745605,-0.2764682471752167
1761315769468231400,5.5592314453125,-0.6552148461341858,-0.41582441329956055,-0.2468375414609909
1761315769478214100,5.569214111328125,-0.6535674333572388,-0.4073379933834076,-0.16737601161003113
1761315769488196400,5.5791962890625,-0.5814294219017029,-0.30128785967826843,-0.01723424904048443
1761315769498178600,5.589178466796875,-0.4259641766548157,-0.11824242770671844,0.17570964992046356
1761315769508160300,5.59916015625,-0.26980137825012207,-0.0028780950233340263,0.3552517294883728
1761315769518142500,5.609142578125,-0.19449038803577423,-0.04907568544149399,0.4363497793674469
1761315769528125200,5.619125244140625,-0.18962927162647247,-0.22324620187282562,0.40427708625793457
1761315769538107400,5.629107421875,-0.2159559577703476,-0.4137519598007202,0.2914237678050995
1761315769548089300,5.63908935546875,-0.27469658851623535,-0.5387341976165771,0.12452871352434158
1761315769558071300,5.6490712890625,-0.33412182331085205,-0.5661642551422119,-0.06112796813249588
1761315769568053500,5.659053466796875,-0.37817269563674927,-0.5386593341827393,-0.23379720747470856
1761315769578036200,5.6690361328125,-0.3865959942340851,-0.5138242840766907,-0.3353073298931122
1761315769588018400,5.679018310546875,-0.3887477219104767,-0.4529697597026825,-0.34611961245536804
1761315769598000400,5.68900048828125,-0.3938489854335785,-0.37444379925727844,-0.23918303847312927
1761315769607982300,5.698982421875,-0.38379546999931335,-0.2638950049877167,-0.05057341977953911
1761315769617964300,5.70896435546875,-0.35132965445518494,-0.11480008810758591,0.19723479449748993
1761315769627947300,5.718947265625,-0.3009760081768036,0.04702494293451309,0.43716445565223694
1761315769637929500,5.728929443359375,-0.2615574896335602,0.15572026371955872,0.6214805245399475
1761315769647911400,5.738911376953125,-0.2421010583639145,0.23543651401996613,0.7126678824424744
1761315769657893400,5.748893310546875,-0.2287524938583374,0.33712080121040344,0.7379705905914307
1761315769667875300,5.758875244140625,-0.25115519762039185,0.4532005786895752,0.721991240978241
1761315769677858300,5.7688583984375,-0.3322348892688751,0.5353960990905762,0.6683828830718994
1761315769687840500,5.778840576171875,-0.46973884105682373,0.5777156949043274,0.5767185688018799
1761315769697822200,5.788822265625,-0.6291764378547668,0.5614688396453857,0.4614230692386627
1761315769707804400,5.798804443359375,-0.7794921398162842,0.5029008984565735,0.3437632620334625
1761315769717787400,5.808787353515625,-0.9142739176750183,0.3817307651042938,0.2380608171224594
1761315769727769300,5.818769287109375,-1.0060781240463257,0.21937863528728485,0.1545507311820984
1761315769737751600,5.82875146484375,-1.0437443256378174,0.05901692062616348,0.09289402514696121
1761315769747733200,5.838733154296875,-1.0329517126083374,-0.07554026693105698,0.05833468958735466
1761315769757715500,5.848715576171875,-0.9954229593276978,-0.21591681241989136,0.03933916240930557
1761315769767698200,5.8586982421875,-0.9491164684295654,-0.3526841402053833,0.014127487316727638
1761315769777680400,5.868680419921875,-0.921054482460022,-0.4873170554637909,-0.02076578140258789
1761315769787662300,5.878662353515625,-0.9441914558410645,-0.5682583451271057,-0.08035208284854889
1761315769797644300,5.888644287109375,-1.0093156099319458,-0.5803285837173462,-0.16466376185417175
1761315769807626500,5.89862646484375,-1.1172527074813843,-0.5415238738059998,-0.2681569457054138
1761315769817609200,5.908609130859375,-1.2246369123458862,-0.43113234639167786,-0.38601166009902954
1761315769827591400,5.91859130859375,-1.3267991542816162,-0.3022044003009796,-0.5111468434333801
1761315769837573400,5.928573486328125,-1.3984102010726929,-0.20552925765514374,-0.6346557140350342
1761315769847555300,5.938555419921875,-1.4274351596832275,-0.1280594915151596,-0.722492516040802
1761315769857537300,5.948537353515625,-1.4205365180969238,-0.04978679120540619,-0.7691586017608643
1761315769867520300,5.958520263671875,-1.4012517929077148,0.0018069380894303322,-0.7762321829795837
1761315769877502500,5.96850244140625,-1.395188331604004,-0.006484014913439751,-0.7500120401382446
1761315769887484400,5.978484375,-1.4165924787521362,-0.06297535449266434,-0.6761972904205322
1761315769897466400,5.98846630859375,-1.4490294456481934,-0.16099005937576294,-0.5576035380363464
1761315769907448300,5.9984482421875,-1.4616954326629639,-0.279715359210968,-0.39544394612312317
1761315769917431300,6.008431396484375,-1.4254969358444214,-0.36996883153915405,-0.1947217583656311
1761315769927413500,6.01841357421875,-1.3639214038848877,-0.4201807677745819,0.005517199635505676
1761315769937395500,6.0283955078125,-1.29042649269104,-0.4954366385936737,0.16887415945529938
1761315769947377400,6.03837744140625,-1.219007134437561,-0.5901955962181091,0.2986280918121338
1761315769957359400,6.048359375,-1.119442105293274,-0.67680424451828,0.3924054503440857
1761315769967342300,6.05834228515625,-0.9960041642189026,-0.7777464985847473,0.4480190575122833
1761315769977324500,6.068324462890625,-0.876661479473114,-0.882304847240448,0.4960307776927948
1761315769987306200,6.07830615234375,-0.7929485440254211,-0.9767311811447144,0.5338714122772217
1761315769997288400,6.088288330078125,-0.7323368787765503,-1.060326099395752,0.5902247428894043
1761315770007270400,6.0982705078125,-0.6675058007240295,-1.0980026721954346,0.6906322836875916
1761315770017253400,6.10825341796875,-0.6145070195198059,-1.0601346492767334,0.7869665026664734
1761315770027235300,6.1182353515625,-0.5942292809486389,-1.0132545232772827,0.8130214214324951
1761315770037217300,6.12821728515625,-0.5800708532333374,-0.9567526578903198,0.7729991674423218
1761315770047199500,6.138199462890625,-0.5367484092712402,-0.8192043900489807,0.6970399618148804
1761315770057182200,6.14818212890625,-0.47756603360176086,-0.6814560890197754,0.5865925550460815
1761315770067164400,6.158164306640625,-0.4258538782596588,-0.5740637183189392,0.4549660086631775
1761315770077146400,6.168146484375,-0.3830411732196808,-0.4573376178741455,0.3297843933105469
1761315770087128300,6.17812841796875,-0.36160022020339966,-0.32160887122154236,0.23725517094135284
1761315770097110300,6.1881103515625,-0.3512543737888336,-0.15090826153755188,0.1861104965209961
1761315770107093200,6.19809326171875,-0.35627955198287964,0.02673156000673771,0.16751718521118164
1761315770117075500,6.208075439453125,-0.36972373723983765,0.13673023879528046,0.16897687315940857
1761315770127057400,6.218057373046875,-0.40378016233444214,0.13877765834331512,0.17716756463050842
1761315770137039400,6.228039306640625,-0.4544193744659424,0.07457071542739868,0.19687868654727936
1761315770147021300,6.238021240234375,-0.5095095634460449,-0.026445738971233368,0.22308170795440674
1761315770157004300,6.24800439453125,-0.5592984557151794,-0.12105719745159149,0.25523272156715393
1761315770166986500,6.257986572265625,-0.5858022570610046,-0.1996883898973465,0.2927601635456085
1761315770176968400,6.267968505859375,-0.589518666267395,-0.2685476243495941,0.3272497057914734
1761315770186950400,6.277950439453125,-0.5618762969970703,-0.32914426922798157,0.36063459515571594
1761315770196932400,6.287932373046875,-0.5055767893791199,-0.37431734800338745,0.3856582045555115
1761315770206914300,6.297914306640625,-0.42189714312553406,-0.3829115629196167,0.41670531034469604
1761315770216896500,6.307896484375,-0.3090214729309082,-0.3271007537841797,0.46376973390579224
1761315770226878500,6.31787841796875,-0.17890283465385437,-0.22760094702243805,0.5151438117027283
1761315770236860400,6.3278603515625,-0.06166142225265503,-0.18159005045890808,0.5326343774795532
1761315770246842600,6.337842529296875,0.03466898575425148,-0.1956612914800644,0.504304051399231
1761315770256825300,6.347825439453125,0.09967967867851257,-0.22973111271858215,0.43091365694999695
1761315770266807600,6.3578076171875,0.1340664178133011,-0.27540284395217896,0.3120124340057373
1761315770276789500,6.36778955078125,0.11301067471504211,-0.30841752886772156,0.17807725071907043
1761315770286771500,6.377771484375,0.034920692443847656,-0.321053147315979,0.06183582916855812
1761315770296753400,6.38775341796875,-0.06828398257493973,-0.30763372778892517,-0.02873614802956581
1761315770306736400,6.397736328125,-0.18041914701461792,-0.2782546579837799,-0.07796740531921387
1761315770316718600,6.407718505859375,-0.2830145061016083,-0.2273494154214859,-0.10692261904478073
1761315770326700500,6.417700439453125,-0.37252703309059143,-0.20784513652324677,-0.1221623569726944
1761315770336682500,6.4276826171875,-0.446675568819046,-0.22506940364837646,-0.12387130409479141
1761315770346664400,6.43766455078125,-0.4911927878856659,-0.24838392436504364,-0.10594163089990616
1761315770356647400,6.4476474609375,-0.4913563132286072,-0.2490835338830948,-0.05886173993349075
1761315770366629600,6.457629638671875,-0.4451819956302643,-0.21123716235160828,0.024175003170967102
1761315770376611600,6.467611572265625,-0.37518081068992615,-0.12739312648773193,0.13195791840553284
1761315770386593500,6.477593505859375,-0.2896941006183624,0.00019055651500821114,0.24037420749664307
1761315770396575500,6.487575439453125,-0.19912958145141602,0.10791542381048203,0.31002599000930786
1761315770406558500,6.497558349609375,-0.13052764534950256,0.12119539082050323,0.316343754529953
1761315770416540700,6.507540771484375,-0.0973137691617012,0.0719066634774208,0.2613838315010071
1761315770426522400,6.5175224609375,-0.07899270951747894,-0.010711219161748886,0.17568661272525787
1761315770436504600,6.527504638671875,-0.0699819028377533,-0.12453658878803253,0.08055450767278671
1761315770446486500,6.537486572265625,-0.07561152428388596,-0.2579379379749298,-0.014232096262276173
1761315770456469500,6.547469482421875,-0.09245308488607407,-0.38639336824417114,-0.09659142047166824
1761315770466451500,6.557451416015625,-0.12114313244819641,-0.5074740648269653,-0.17671672999858856
1761315770476433400,6.567433349609375,-0.16339844465255737,-0.5955876708030701,-0.2523009777069092
1761315770486415400,6.577415283203125,-0.22556684911251068,-0.6453106999397278,-0.33242180943489075
1761315770496398300,6.5873984375,-0.3038342297077179,-0.6518354415893555,-0.4296170473098755
1761315770506380500,6.597380615234375,-0.37040606141090393,-0.6249867081642151,-0.5356972813606262
1761315770516362500,6.607362548828125,-0.4040287435054779,-0.5747400522232056,-0.621405303478241
1761315770526344400,6.617344482421875,-0.4015374183654785,-0.47570088505744934,-0.666877806186676
1761315770536326400,6.627326416015625,-0.3800393342971802,-0.3552362620830536,-0.6792519092559814
1761315770546309400,6.637309326171875,-0.34820184111595154,-0.24691201746463776,-0.6504067778587341
1761315770556291600,6.64729150390625,-0.3115125596523285,-0.17369186878204346,-0.6011101007461548
1761315770566273500,6.6572734375,-0.2763679623603821,-0.12986527383327484,-0.5413514971733093
1761315770576255500,6.66725537109375,-0.23236404359340668,-0.1250649243593216,-0.48029589653015137
1761315770586237400,6.677237548828125,-0.17620912194252014,-0.14380033314228058,-0.4248376786708832
1761315770596220400,6.687220458984375,-0.1255131959915161,-0.15905705094337463,-0.3769471347332001
1761315770606202600,6.69720263671875,-0.07586091011762619,-0.16482263803482056,-0.33582544326782227
1761315770616184600,6.7071845703125,-0.0481584407389164,-0.17231810092926025,-0.30605319142341614
1761315770626166500,6.71716650390625,-0.03178509697318077,-0.1714666187763214,-0.2875778079032898
1761315770636148500,6.7271484375,-0.025731999427080154,-0.17865848541259766,-0.2916809320449829
1761315770646131500,6.73713134765625,-0.019333109259605408,-0.20756569504737854,-0.31656408309936523
1761315770656113400,6.747113525390625,-0.02036508359014988,-0.2391798198223114,-0.35970303416252136
1761315770666095600,6.757095703125,-0.019324395805597305,-0.24328362941741943,-0.3877299427986145
1761315770676077600,6.76707763671875,-0.017201323062181473,-0.21979081630706787,-0.39008018374443054
1761315770686059500,6.7770595703125,-0.004412557929754257,-0.1862187385559082,-0.3671378493309021
1761315770696042500,6.78704248046875,0.014468987472355366,-0.1637594997882843,-0.32192108035087585
1761315770706024400,6.7970244140625,0.03367513418197632,-0.16180546581745148,-0.27197858691215515
1761315770716006400,6.80700634765625,0.0438486747443676,-0.19670991599559784,-0.21952204406261444
1761315770725988400,6.81698828125,0.04886920005083084,-0.2373717874288559,-0.17211700975894928
1761315770735970600,6.826970458984375,0.04458843171596527,-0.268949955701828,-0.14204326272010803
1761315770745953500,6.83695361328125,0.03313450887799263,-0.30371275544166565,-0.12670399248600006
1761315770755935500,6.846935546875,0.0047281705774366856,-0.3196621537208557,-0.1256328672170639
1761315770765917400,6.85691748046875,-0.02026236057281494,-0.31720125675201416,-0.12505650520324707
1761315770775899400,6.8668994140625,-0.02523714490234852,-0.3140257000923157,-0.11222938448190689
1761315770785881600,6.876881591796875,-0.005246579647064209,-0.31798070669174194,-0.08680779486894608
1761315770795864600,6.886864501953125,0.02249849960207939,-0.34607598185539246,-0.06871960312128067
1761315770805846500,6.896846435546875,0.042238499969244,-0.3851501941680908,-0.06511618942022324
1761315770815828500,6.906828369140625,0.04738559201359749,-0.4438483715057373,-0.08234071731567383
1761315770825810400,6.916810546875,0.0347987599670887,-0.5039953589439392,-0.11167014390230179
1761315770835792600,6.926792724609375,0.008672882802784443,-0.5452831387519836,-0.13786207139492035
1761315770845775600,6.936775634765625,-0.027463406324386597,-0.5717453360557556,-0.14422830939292908
1761315770855757600,6.946757568359375,-0.07558592408895493,-0.5938903093338013,-0.13356554508209229
1761315770865739500,6.956739501953125,-0.12889212369918823,-0.6056483387947083,-0.09576033055782318
1761315770875721500,6.966721435546875,-0.17503298819065094,-0.6111584305763245,-0.047301724553108215
1761315770885703700,6.97670361328125,-0.20215527713298798,-0.6020107865333557,-0.016528215259313583
1761315770895686400,6.986686279296875,-0.20894500613212585,-0.5941454172134399,0.0008829985745251179
1761315770905668600,6.996668701171875,-0.20427840948104858,-0.6085211634635925,-0.008510388433933258
1761315770915650600,7.006650634765625,-0.2021273821592331,-0.6180025339126587,-0.021169191226363182
1761315770925632500,7.016632568359375,-0.19908414781093597,-0.6196310520172119,-0.013873808085918427
1761315770935614500,7.026614501953125,-0.19906550645828247,-0.6017577648162842,0.03351873904466629
1761315770945597400,7.036597412109375,-0.19769364595413208,-0.5426732301712036,0.12008322030305862
1761315770955579400,7.046579345703125,-0.18646761775016785,-0.3959178626537323,0.22732818126678467
1761315770965561300,7.056561279296875,-0.15526902675628662,-0.2227492481470108,0.31609752774238586
1761315770975543600,7.06654345703125,-0.11138279736042023,-0.140434131026268,0.31920838356018066
1761315770985525500,7.076525390625,-0.08588124066591263,-0.17673933506011963,0.23041030764579773
1761315770995508500,7.086508544921875,-0.08902137726545334,-0.2757149338722229,0.09124390035867691
1761315771005490400,7.096490478515625,-0.1465231329202652,-0.4344322383403778,-0.0970672070980072
1761315771015472400,7.106472412109375,-0.2362183928489685,-0.6217339634895325,-0.3083046078681946
1761315771025454600,7.11645458984375,-0.3531422019004822,-0.7910451889038086,-0.5020862221717834
1761315771035436300,7.126436279296875,-0.49928316473960876,-0.8688398599624634,-0.6565549373626709
1761315771045419500,7.13641943359375,-0.6454887390136719,-0.8256691694259644,-0.7342921495437622
1761315771055401500,7.1464013671875,-0.7726269960403442,-0.6635417938232422,-0.7524006366729736
1761315771065383400,7.156383544921875,-0.8521302342414856,-0.43923741579055786,-0.7276191115379333
1761315771075365600,7.16636572265625,-0.8692940473556519,-0.19197729229927063,-0.6844151616096497
1761315771085347300,7.176347412109375,-0.8355704545974731,0.02334114909172058,-0.6065842509269714
1761315771095330600,7.18633056640625,-0.7520009875297546,0.18467064201831818,-0.5173689126968384
1761315771105312500,7.1963125,-0.6497008204460144,0.30528128147125244,-0.391267865896225
1761315771115294500,7.20629443359375,-0.5390491485595703,0.4255765378475189,-0.23637254536151886
1761315771125276700,7.216276611328125,-0.4496133029460907,0.5418927669525146,-0.0748467743396759
1761315771135258400,7.22625830078125,-0.3764626681804657,0.6373454928398132,0.06851145625114441
1761315771145241600,7.23624169921875,-0.3146025538444519,0.6896750926971436,0.167476624250412
1761315771155223600,7.2462236328125,-0.2693527936935425,0.7124669551849365,0.22163306176662445
1761315771165205500,7.25620556640625,-0.2402922511100769,0.6567854285240173,0.23113280534744263
1761315771175187700,7.266187744140625,-0.2273160070180893,0.5065341591835022,0.20521226525306702
1761315771185169400,7.27616943359375,-0.2035808563232422,0.2713717520236969,0.1963478922843933
1761315771195152600,7.286152587890625,-0.15380769968032837,0.01470641978085041,0.2439098209142685
1761315771205134800,7.296134765625,-0.09090867638587952,-0.2041006088256836,0.3593742847442627
1761315771215116800,7.30611669921875,-0.04431481286883354,-0.36947304010391235,0.5245083570480347
1761315771225098800,7.3160986328125,-0.05556507408618927,-0.4592295289039612,0.6759359836578369
1761315771235080700,7.326080810546875,-0.11329468339681625,-0.5069698691368103,0.7561181783676147
1761315771245063700,7.336063720703125,-0.20296604931354523,-0.5388141870498657,0.7344537377357483
1761315771255045600,7.346045654296875,-0.30797716975212097,-0.5561745166778564,0.6089035272598267
1761315771265027800,7.35602783203125,-0.41549837589263916,-0.5226148962974548,0.4187415838241577
1761315771275009800,7.366009765625,-0.507641077041626,-0.43863052129745483,0.2235981971025467
1761315771284991700,7.37599169921875,-0.5791605710983276,-0.3256585896015167,0.06840295344591141
1761315771294974700,7.385974609375,-0.6333523988723755,-0.1921524703502655,-0.02709481120109558
1761315771304956700,7.395956787109375,-0.6661626100540161,-0.03798515349626541,-0.07466505467891693
1761315771314939000,7.40593896484375,-0.6680406928062439,0.10377117991447449,-0.08270779997110367
1761315771324920600,7.415920654296875,-0.6535777449607849,0.18075521290302277,-0.07922666519880295
1761315771334902800,7.42590283203125,-0.6406694054603577,0.1829022467136383,-0.06856310367584229
1761315771344885800,7.4358857421875,-0.6224265694618225,0.13307997584342957,-0.05830599367618561
1761315771354867700,7.44586767578125,-0.605280339717865,0.05020640045404434,-0.02930869534611702
1761315771364850000,7.455849853515625,-0.5857186317443848,-0.04503247141838074,0.010003790259361267
1761315771374831600,7.46583154296875,-0.5702890753746033,-0.1346086859703064,0.05334753543138504
1761315771384813800,7.475813720703125,-0.5630279779434204,-0.20311421155929565,0.08714598417282104
1761315771394796800,7.485796875,-0.5679753422737122,-0.2349696159362793,0.08321382850408554
1761315771404778800,7.49577880859375,-0.5802966356277466,-0.21833613514900208,0.04972859472036362
1761315771414760700,7.5057607421875,-0.6010104417800903,-0.17602942883968353,-0.028870075941085815
1761315771424742700,7.51574267578125,-0.6258180737495422,-0.1179426982998848,-0.13200712203979492
1761315771434724900,7.525724853515625,-0.6562162041664124,-0.04429510608315468,-0.24459198117256165
1761315771444707800,7.535707763671875,-0.6850379705429077,0.017333369702100754,-0.3318278193473816
1761315771454689800,7.545689697265625,-0.7029285430908203,0.06365799158811569,-0.3835546672344208
1761315771464671700,7.555671630859375,-0.7005199193954468,0.09739137440919876,-0.3850116729736328
1761315771474653700,7.56565380859375,-0.6906039118766785,0.1398158073425293,-0.35518690943717957
1761315771484636000,7.575635986328125,-0.6696041822433472,0.18029701709747314,-0.3123031258583069
1761315771494618600,7.58561865234375,-0.6575025320053101,0.2014630138874054,-0.2823265790939331
1761315771504600800,7.595600830078125,-0.6448432207107544,0.22533835470676422,-0.26063039898872375
1761315771514582800,7.605582763671875,-0.6336840391159058,0.24849852919578552,-0.2543983459472656
1761315771524564700,7.615564697265625,-0.6252415776252747,0.2561180591583252,-0.2858222723007202
1761315771534547000,7.625546875,-0.6115862131118774,0.25592684745788574,-0.3267281651496887
1761315771544529700,7.63552978515625,-0.5893250703811646,0.2598436176776886,-0.3603050708770752
1761315771554512000,7.645511962890625,-0.5529114007949829,0.2625270187854767,-0.36555495858192444
1761315771564493600,7.65549365234375,-0.5113719701766968,0.24366416037082672,-0.34711605310440063
1761315771574475800,7.665475830078125,-0.4773506820201874,0.19238047301769257,-0.316983699798584
1761315771584457700,7.675457763671875,-0.44222503900527954,0.11569471657276154,-0.2655531167984009
1761315771594440700,7.685440673828125,-0.40624094009399414,0.04232676327228546,-0.19661827385425568
1761315771604423000,7.6954228515625,-0.36847835779190063,0.003011534456163645,-0.11023274809122086
1761315771614404600,7.705404541015625,-0.3533420264720917,-0.012812169268727303,-0.026820948347449303
1761315771624386800,7.71538671875,-0.3429349362850189,-0.02603232115507126,0.04997047036886215
1761315771634368800,7.72536865234375,-0.35321152210235596,-0.03387613222002983,0.09784851223230362
1761315771644351700,7.735351806640625,-0.36256328225135803,-0.030635109171271324,0.11893849819898605
1761315771654334000,7.745333984375,-0.3743714690208435,-0.01731264591217041,0.11596987396478653
1761315771664315600,7.755315673828125,-0.384404718875885,0.04062459617853165,0.0748414471745491
1761315771674297900,7.7652978515625,-0.400692343711853,0.1928253173828125,0.010008386336266994
1761315771684279800,7.77527978515625,-0.3985540270805359,0.4093373715877533,-0.07567193359136581
1761315771694262800,7.7852626953125,-0.3845205008983612,0.5672580003738403,-0.17590852081775665
1761315771704244700,7.79524462890625,-0.36101582646369934,0.598244309425354,-0.29523470997810364
1761315771714226700,7.805226806640625,-0.33516666293144226,0.5141749978065491,-0.40644511580467224
1761315771724209000,7.815208984375,-0.3160909116268158,0.30002477765083313,-0.4801371395587921
1761315771734190600,7.825190673828125,-0.3440498411655426,0.008991897106170654,-0.500944197177887
1761315771744173800,7.835173828125,-0.4256148934364319,-0.215690478682518,-0.4678502380847931
1761315771754155500,7.845155517578125,-0.5050338506698608,-0.2676236927509308,-0.38006657361984253
1761315771764137700,7.8551376953125,-0.5282854437828064,-0.14432121813297272,-0.25462067127227783
1761315771774120000,7.865119873046875,-0.4827435314655304,0.0804157480597496,-0.1059451773762703
1761315771784101600,7.8751015625,-0.3960200846195221,0.3346029818058014,0.022360358387231827
1761315771794084900,7.8850849609375,-0.2902979254722595,0.5491059422492981,0.09584496170282364
1761315771804066600,7.895066650390625,-0.1999426782131195,0.6860272884368896,0.08320242911577225
1761315771814048800,7.905048828125,-0.13972008228302002,0.7516656517982483,-0.0020663917530328035
1761315771824030700,7.91503076171875,-0.09757480770349503,0.7769411206245422,-0.06871262192726135
1761315771834012700,7.9250126953125,-0.04872976616024971,0.8165242075920105,-0.06620339304208755
1761315771843996000,7.934995849609375,0.0008032452315092087,0.8260202407836914,0.017990436404943466
1761315771853977600,7.9449775390625,0.04942724108695984,0.7773379683494568,0.15218792855739594
1761315771863959800,7.954959716796875,0.09349311888217926,0.6596896052360535,0.3109971284866333
1761315771873941800,7.964941650390625,0.14848314225673676,0.5014976263046265,0.4588049650192261
1761315771883923700,7.974923828125,0.19858792424201965,0.3291822373867035,0.5716366171836853
1761315771893907000,7.984906982421875,0.23939688503742218,0.15205273032188416,0.6511124968528748
1761315771903888600,7.994888671875,0.2696400582790375,0.021232130005955696,0.6768061518669128
1761315771913870800,8.004870849609375,0.2943219542503357,-0.07981699705123901,0.6604466438293457
1761315771923852800,8.014852783203125,0.3057257831096649,-0.13016070425510406,0.5987312197685242
1761315771933834800,8.024834716796875,0.3006569743156433,-0.15158796310424805,0.5074729919433594
1761315771943817700,8.034817626953124,0.291481077671051,-0.15591254830360413,0.40438273549079895
1761315771953799700,8.044799560546876,0.28631001710891724,-0.16328097879886627,0.3082199692726135
1761315771963782000,8.054781982421876,0.28331124782562256,-0.17066989839076996,0.23947927355766296
1761315771973763600,8.064763671875,0.2852814495563507,-0.14232295751571655,0.20114146173000336
1761315771983745800,8.074745849609375,0.29030609130859375,-0.10577395558357239,0.18926480412483215
1761315771993728500,8.084728515625,0.2973589301109314,-0.05428999662399292,0.19966045022010803
1761315772003710700,8.094710693359374,0.3348875641822815,0.033976536244153976,0.2356024831533432
1761315772013693000,8.10469287109375,0.38564208149909973,0.13610264658927917,0.2784724533557892
1761315772023674600,8.114674560546876,0.4512409567832947,0.23121492564678192,0.3203338384628296
1761315772033656800,8.12465673828125,0.5233497619628906,0.3025732636451721,0.348249614238739
1761315772043639600,8.1346396484375,0.576653003692627,0.34138187766075134,0.3477632999420166
1761315772053621800,8.144621826171875,0.6118016839027405,0.3375799357891083,0.3255016803741455
1761315772063603700,8.154603759765624,0.6246508359909058,0.29624471068382263,0.29391780495643616
1761315772073585700,8.164585693359374,0.6286218762397766,0.2411702573299408,0.2483479082584381
1761315772083567900,8.17456787109375,0.6084548234939575,0.1791628897190094,0.19086028635501862
1761315772093550600,8.184550537109375,0.5791704058647156,0.09071638435125351,0.12243488430976868
1761315772103532800,8.19453271484375,0.5468382239341736,0.0022607347927987576,0.04566781595349312
1761315772113514800,8.2045146484375,0.5249502658843994,-0.05765426531434059,-0.039508067071437836
1761315772123496700,8.21449658203125,0.520117461681366,-0.09693321585655212,-0.1125764548778534
1761315772133478700,8.224478759765624,0.5247633457183838,-0.13229626417160034,-0.1725388616323471
1761315772143461600,8.234461669921876,0.533937931060791,-0.16296496987342834,-0.20703744888305664
1761315772153443800,8.24444384765625,0.5387321710586548,-0.17909227311611176,-0.210727259516716
1761315772163425800,8.25442578125,0.5410547852516174,-0.1818985641002655,-0.19493119418621063
1761315772173407700,8.26440771484375,0.5430604219436646,-0.18959030508995056,-0.16644228994846344
1761315772183389700,8.2743896484375,0.5435584783554077,-0.1934075504541397,-0.14206653833389282
1761315772193372700,8.28437255859375,0.536964476108551,-0.19960446655750275,-0.11891063302755356
1761315772203355000,8.29435498046875,0.5282491445541382,-0.20381276309490204,-0.11278524249792099
1761315772213336600,8.304336669921875,0.515184760093689,-0.22280935943126678,-0.1196436807513237
1761315772223318500,8.314318603515625,0.5090509653091431,-0.22689390182495117,-0.12844672799110413
1761315772233300500,8.324300537109375,0.5055813789367676,-0.1894136369228363,-0.1359885334968567
1761315772243283500,8.334283447265625,0.5094850659370422,-0.15923194587230682,-0.14745070040225983
1761315772253265700,8.344265625,0.5252605676651001,-0.1473153680562973,-0.1509905755519867
1761315772263247600,8.35424755859375,0.542617917060852,-0.1270553171634674,-0.14868737757205963
1761315772273229600,8.3642294921875,0.5603473782539368,-0.10419846326112747,-0.14828550815582275
1761315772283211500,8.37421142578125,0.5630185604095459,-0.10828810185194016,-0.16961896419525146
1761315772293194500,8.384194580078125,0.547322690486908,-0.130687415599823,-0.20532557368278503
1761315772303176400,8.394176513671875,0.5132104158401489,-0.15490514039993286,-0.2612510323524475
1761315772313158400,8.404158447265624,0.4620170295238495,-0.1948152780532837,-0.33799508213996887
1761315772323140600,8.414140625,0.39769691228866577,-0.2589694857597351,-0.42871007323265076
1761315772333122600,8.42412255859375,0.311903178691864,-0.32706600427627563,-0.5259305834770203
1761315772343105500,8.43410546875,0.21574455499649048,-0.3966410756111145,-0.6215239763259888
1761315772353087500,8.44408740234375,0.1215544119477272,-0.43758076429367065,-0.691588282585144
1761315772363069400,8.4540693359375,0.03734833002090454,-0.42755475640296936,-0.7204195261001587
1761315772373051400,8.464051513671874,-0.019373536109924316,-0.3876003921031952,-0.6994261145591736
1761315772383033600,8.47403369140625,-0.04069074988365173,-0.31766679883003235,-0.627881646156311
1761315772393016600,8.4840166015625,-0.008540001697838306,-0.17102864384651184,-0.5148187279701233
1761315772402998500,8.49399853515625,0.06310584396123886,0.04700471833348274,-0.37564173340797424
1761315772412980500,8.50398046875,0.15089721977710724,0.17883892357349396,-0.2523972690105438
1761315772422962400,8.51396240234375,0.20962901413440704,0.1522596925497055,-0.17890013754367828
1761315772432944600,8.523944580078124,0.2140836864709854,0.04689173772931099,-0.1591799557209015
1761315772442927600,8.533927734375,0.17877063155174255,-0.08641114830970764,-0.18751280009746552
1761315772452909600,8.54390966796875,0.12877324223518372,-0.2363860011100769,-0.2525138854980469
1761315772462891500,8.5538916015625,0.0731712356209755,-0.3544100821018219,-0.3364298641681671
1761315772472873500,8.56387353515625,0.01419180165976286,-0.38684818148612976,-0.40824466943740845
1761315772482855700,8.573855712890625,-0.039444778114557266,-0.3743409812450409,-0.44851136207580566
1761315772492837400,8.58383740234375,-0.07309062778949738,-0.3347959518432617,-0.44565457105636597
1761315772502820600,8.593820556640624,-0.08342736214399338,-0.28482580184936523,-0.39855149388313293
1761315772512802600,8.603802490234376,-0.06402196735143661,-0.23680980503559113,-0.30629241466522217
1761315772522784500,8.613784423828125,-0.02652653679251671,-0.19494690001010895,-0.18804097175598145
1761315772532766500,8.623766357421875,0.008705487474799156,-0.16746947169303894,-0.06981498748064041
1761315772542749400,8.63374951171875,0.032939836382865906,-0.13456498086452484,0.02203352376818657
1761315772552731400,8.6437314453125,0.04191388934850693,-0.10869316011667252,0.0854196846485138
1761315772562713600,8.653713623046874,0.0449296198785305,-0.07554486393928528,0.12701326608657837
1761315772572695600,8.663695556640626,0.05797431617975235,0.0043827202171087265,0.1827782690525055
1761315772582677500,8.673677490234375,0.07929664850234985,0.09776242822408676,0.2535041272640228
1761315772592659500,8.683659423828125,0.10319186002016068,0.1617342233657837,0.33537688851356506
1761315772602642400,8.693642333984375,0.12808823585510254,0.19863666594028473,0.4217020273208618
1761315772612624400,8.703624267578125,0.15548470616340637,0.20299014449119568,0.5210256576538086
1761315772622606600,8.713606689453124,0.17267528176307678,0.1539454162120819,0.618032693862915
1761315772632588300,8.72358837890625,0.17432858049869537,0.061148639768362045,0.6880208253860474
1761315772642571500,8.733571533203126,0.15691927075386047,-0.03616150841116905,0.7418285012245178
1761315772652553500,8.743553466796875,0.1080167144536972,-0.10808975994586945,0.7671687006950378
1761315772662535400,8.753535400390625,0.021585067734122276,-0.1490718573331833,0.7652282118797302
1761315772672517600,8.763517578125,-0.09165094047784805,-0.17752720415592194,0.7271907925605774
1761315772682499300,8.773499267578124,-0.2204105108976364,-0.20191942155361176,0.6661437749862671
1761315772692481500,8.7834814453125,-0.336604505777359,-0.20945589244365692,0.5932820439338684
1761315772702464500,8.793464599609376,-0.4402868151664734,-0.2221575677394867,0.5059092044830322
1761315772712446500,8.803446533203125,-0.5347360372543335,-0.23441928625106812,0.3991420269012451
1761315772722428700,8.8134287109375,-0.6244914531707764,-0.2413967102766037,0.2710385024547577
1761315772732410400,8.823410400390625,-0.6863473653793335,-0.22467845678329468,0.13580211997032166
1761315772742392600,8.833392578125,-0.726687490940094,-0.17280559241771698,0.021674830466508865
1761315772752375600,8.84337548828125,-0.7384008765220642,-0.11085833609104156,-0.052828166633844376
1761315772762357500,8.853357421875,-0.7328088879585266,-0.06631546467542648,-0.07460199296474457
1761315772772339500,8.86333935546875,-0.712688684463501,-0.03454155847430229,-0.05722752958536148
1761315772782321400,8.8733212890625,-0.6811304688453674,-0.029533350840210915,-0.015376926399767399
1761315772792303600,8.8833037109375,-0.6494739651679993,-0.03550948202610016,0.027461349964141846
1761315772802286300,8.893286376953125,-0.6241508722305298,-0.053976915776729584,0.06854312121868134
1761315772812268500,8.9032685546875,-0.6054323315620422,-0.08092784136533737,0.09121435135602951
1761315772822250500,8.91325048828125,-0.6019473075866699,-0.09118447452783585,0.08854133635759354
1761315772832232400,8.923232421875,-0.6076635122299194,-0.0891045406460762,0.06629648059606552
1761315772842214700,8.933214599609375,-0.6177462339401245,-0.09326842427253723,0.03856341913342476
1761315772852197400,8.943197265625,-0.626368522644043,-0.09250302612781525,-0.0017911947797983885
1761315772862179600,8.9531796875,-0.6237390041351318,-0.09313144534826279,-0.043457627296447754
1761315772872161300,8.963161376953124,-0.6151684522628784,-0.06415519118309021,-0.0887601301074028
1761315772882143500,8.9731435546875,-0.6010152101516724,-0.032592736184597015,-0.13103818893432617
1761315772892125700,8.983125732421875,-0.5861153602600098,0.002048065885901451,-0.16646675765514374
1761315772902108400,8.9931083984375,-0.5817863345146179,0.040914516896009445,-0.20029248297214508
1761315772912090600,9.003090576171875,-0.5921063423156738,0.06219823285937309,-0.23382540047168732
1761315772922072300,9.013072265625,-0.6127908229827881,0.07150784134864807,-0.26540783047676086
1761315772932054500,9.023054443359374,-0.6358982920646667,0.07101808488368988,-0.29517024755477905
1761315772942036500,9.033036376953126,-0.6461141705513,0.06954863667488098,-0.3111623227596283
1761315772952019500,9.04301953125,-0.6451466679573059,0.0542016439139843,-0.3169536292552948
1761315772962001700,9.053001708984375,-0.630693256855011,0.04065307602286339,-0.30437809228897095
1761315772971983400,9.0629833984375,-0.6131249070167542,0.060119714587926865,-0.2752037048339844
1761315772981965600,9.072965576171875,-0.5791791081428528,0.08866514265537262,-0.22074458003044128
1761315772991947500,9.082947509765624,-0.5355099439620972,0.12630678713321686,-0.16192413866519928
1761315773001930500,9.092930419921874,-0.49668240547180176,0.1433582603931427,-0.11094141751527786
1761315773011912700,9.10291259765625,-0.46830135583877563,0.15122176706790924,-0.07141690701246262
1761315773021894400,9.112894287109375,-0.45073655247688293,0.1361413151025772,-0.045899953693151474
1761315773031876600,9.122876708984375,-0.439296156167984,0.09603037685155869,-0.03420228511095047
1761315773041858600,9.132858642578125,-0.4378393590450287,0.03976113721728325,-0.027810638770461082
1761315773051841500,9.142841552734374,-0.4295305609703064,-0.03515411913394928,-0.019900517538189888
1761315773061823500,9.152823486328124,-0.4126470386981964,-0.12369199842214584,-0.007802428677678108
1761315773071805400,9.162805419921876,-0.39046958088874817,-0.19848555326461792,0.005708852782845497
1761315773081787600,9.17278759765625,-0.37115007638931274,-0.2464025318622589,0.0165835190564394
1761315773091769300,9.182769287109375,-0.35480067133903503,-0.27661824226379395,0.0070808278396725655
1761315773101751600,9.19275146484375,-0.3503939211368561,-0.3005638122558594,-0.01435039658099413
1761315773111734300,9.202734375,-0.35894638299942017,-0.3195984959602356,-0.05078696459531784
1761315773121716500,9.212716552734374,-0.37775540351867676,-0.3025102913379669,-0.09841427952051163
1761315773131698700,9.22269873046875,-0.40855300426483154,-0.26570940017700195,-0.15165141224861145
1761315773141680400,9.232680419921875,-0.4262653589248657,-0.18989774584770203,-0.18594254553318024
1761315773151662600,9.24266259765625,-0.4282246530056,-0.07770835608243942,-0.1886877417564392
1761315773161645300,9.252645263671875,-0.41343775391578674,0.058590471744537354,-0.17337140440940857
1761315773171627500,9.26262744140625,-0.37742170691490173,0.2371562123298645,-0.14614778757095337
1761315773181609500,9.272609375,-0.3098078668117523,0.4316158890724182,-0.11362641304731369
1761315773191591400,9.28259130859375,-0.2236841470003128,0.4953796863555908,-0.10624626278877258
1761315773201573600,9.29257373046875,-0.16108335554599762,0.42359471321105957,-0.12780801951885223
1761315773211557400,9.302557373046875,-0.12819011509418488,0.2990970015525818,-0.1642879992723465
1761315773221539600,9.31253955078125,-0.10777575522661209,0.13003669679164886,-0.20870475471019745
1761315773231521300,9.322521240234375,-0.09612762182950974,-0.08615418523550034,-0.252840518951416
1761315773241503500,9.33250341796875,-0.09483188390731812,-0.2683843970298767,-0.2898445129394531
1761315773251485400,9.3424853515625,-0.10052705556154251,-0.34514227509498596,-0.28980058431625366
1761315773261468400,9.352468505859376,-0.11177138984203339,-0.3239861726760864,-0.25120285153388977
1761315773271450600,9.36245068359375,-0.12236890196800232,-0.18383410573005676,-0.18688298761844635
1761315773281432300,9.372432373046875,-0.1092010885477066,-0.004099447745829821,-0.12551485002040863
1761315773291414500,9.38241455078125,-0.07084517925977707,0.17217305302619934,-0.06196064502000809
1761315773301396500,9.392396484375,-0.010612317360937595,0.2888312041759491,-0.006385919637978077
1761315773311379500,9.40237939453125,0.06964390724897385,0.3743703365325928,0.042279619723558426
1761315773321361400,9.412361328125,0.14750225841999054,0.41167715191841125,0.08273892104625702
1761315773331343400,9.42234326171875,0.22105982899665833,0.42656636238098145,0.1442054808139801
1761315773341325600,9.43232568359375,0.2930900454521179,0.44386106729507446,0.21632245182991028
1761315773351307500,9.4423076171875,0.36671900749206543,0.4737667739391327,0.3027931749820709
1761315773361290500,9.45229052734375,0.4416680932044983,0.4971047043800354,0.3678889572620392
1761315773371272400,9.4622724609375,0.5167503356933594,0.47668570280075073,0.40561288595199585
1761315773381254400,9.47225439453125,0.5822716355323792,0.4132539927959442,0.3978935778141022
1761315773391236400,9.482236328125,0.633527934551239,0.3114831745624542,0.36556118726730347
1761315773401218300,9.49221826171875,0.6735517382621765,0.20619462430477142,0.3269498646259308
1761315773411201500,9.502201416015625,0.7054513692855835,0.09969907999038696,0.2984369993209839
1761315773421183200,9.512183349609375,0.7402549982070923,-0.003187505528330803,0.27075693011283875
1761315773431165400,9.52216552734375,0.7701886296272278,-0.0880986675620079,0.24710167944431305
1761315773441147400,9.5321474609375,0.800669252872467,-0.1578930914402008,0.21870596706867218
1761315773451129300,9.54212939453125,0.8173331618309021,-0.2291337102651596,0.18949908018112183
1761315773461111300,9.552111328125,0.817199170589447,-0.27495720982551575,0.1437932550907135
1761315773471094300,9.56209423828125,0.8129733204841614,-0.31054744124412537,0.0903254970908165
1761315773481076500,9.572076416015625,0.802970290184021,-0.3364146649837494,0.040255527943372726
1761315773491058400,9.582058349609374,0.7901074886322021,-0.3490082025527954,0.012158645316958427
1761315773501040400,9.592040283203126,0.7821059226989746,-0.33129802346229553,0.01972752995789051
1761315773511022300,9.602022216796875,0.7917534708976746,-0.28634172677993774,0.06624256819486618
1761315773521005300,9.61200537109375,0.8117289543151855,-0.20261789858341217,0.13040335476398468
1761315773530987500,9.621987548828125,0.8520774245262146,-0.12279843538999557,0.2055567055940628
1761315773540969500,9.631969482421875,0.9040471911430359,-0.037640053778886795,0.2704963982105255
1761315773550951400,9.641951416015624,0.9713830947875977,0.04777790978550911,0.32133400440216064
1761315773560933400,9.651933349609376,1.0148687362670898,0.10549113154411316,0.338777095079422
1761315773570916400,9.661916259765626,1.038891077041626,0.13991540670394897,0.33700743317604065
1761315773580898600,9.671898681640625,1.0398319959640503,0.16741164028644562,0.32081785798072815
1761315773590880500,9.681880615234375,1.0207527875900269,0.19980180263519287,0.29664114117622375
1761315773600862500,9.691862548828125,0.9918807148933411,0.22979965806007385,0.27508580684661865
1761315773610844400,9.701844482421874,0.9636032581329346,0.26315149664878845,0.25447800755500793
1761315773620827400,9.711827392578124,0.9242833256721497,0.2765604853630066,0.23267841339111328
1761315773630809300,9.721809326171876,0.8802130818367004,0.2861345410346985,0.20432373881340027
1761315773640791300,9.731791259765625,0.8352978229522705,0.28991881012916565,0.15823593735694885
1761315773650773500,9.7417734375,0.787813663482666,0.2865544259548187,0.09925063699483871
1761315773660755500,9.75175537109375,0.7441620826721191,0.28576573729515076,0.04608015716075897
1761315773670738400,9.761738525390625,0.691421389579773,0.2994876801967621,-0.00004099961370229721
1761315773680720400,9.771720458984374,0.6577979922294617,0.3346286714076996,-0.04520542547106743
1761315773690702300,9.781702392578126,0.6165453791618347,0.35420528054237366,-0.08672091364860535
1761315773700684300,9.791684326171875,0.5883412957191467,0.3637072443962097,-0.11644939333200455
1761315773710666500,9.80166650390625,0.5625677108764648,0.3539872467517853,-0.12596699595451355
1761315773720649500,9.8116494140625,0.5305553078651428,0.3592097759246826,-0.13370396196842194
1761315773730631400,9.82163134765625,0.49596646428108215,0.3856280744075775,-0.16160722076892853
1761315773740613400,9.83161328125,0.4569023549556732,0.43009307980537415,-0.19223757088184357
1761315773750595300,9.84159521484375,0.4231036305427551,0.46206218004226685,-0.2130456566810608
1761315773760577500,9.85157763671875,0.3819739520549774,0.46712812781333923,-0.220330148935318
1761315773770559200,9.861559326171875,0.288980633020401,0.5091408491134644,0.03977467492222786
1761315773780542500,9.87154248046875,0.241148442029953,0.13915854692459106,0.075542151927948
1761315773790524400,9.8815244140625,0.23593689501285553,-0.07027697563171387,0.05350475758314133
1761315773800506400,9.89150634765625,0.20655518770217896,-0.17135697603225708,-0.02387114241719246
1761315773810488600,9.901488525390626,0.15042029321193695,-0.3076242506504059,-0.10946540534496307
1761315773820470300,9.91147021484375,0.07927998155355453,-0.43207305669784546,-0.19995437562465668
1761315773830453500,9.92145361328125,0.0158887580037117,-0.51496422290802,-0.3016197383403778
1761315773840435500,9.931435546875,-0.046424977481365204,-0.53154057264328,-0.3899937868118286
1761315773850417400,9.94141748046875,-0.11062979698181152,-0.4937417805194855,-0.45733579993247986
1761315773860399400,9.9513994140625,-0.1775415688753128,-0.4178619384765625,-0.4633171558380127
1761315773870381300,9.96138134765625,-0.21938861906528473,-0.34718990325927734,-0.3945463299751282
