time,seconds_elapsed,z,y,x
1761315178660678400,0.078678466796875,-0.1661427483588457,0.17312292610239235,0.2587951669625938
1761315178670660600,0.08866064453125,-0.05802665703296661,0.1272165039820131,0.2764132412396371
1761315178680641500,0.0986416015625,0.02219780328273773,0.053175180147495116,0.27802674085088075
1761315178690623500,0.10862353515625,0.07529927887320519,0.032595552651118485,0.1933547996070236
1761315178700604400,0.1186044921875,0.12926876946985721,0.005422207711823284,0.07829721858017147
1761315178710586600,0.128586669921875,0.15585867023169994,-0.07246820189943537,-0.022152137510105967
1761315178720568300,0.138568359375,0.07142974396348,-0.18732132812906055,-0.1528662834826857
1761315178730549500,0.148549560546875,0.02498947982788086,-0.28446216245954853,-0.3068346829883754
1761315178740531500,0.158531494140625,-0.019431261178851127,-0.336024171789363,-0.3748652860328555
1761315178750512600,0.1685126953125,-0.10058744938671588,-0.317545681290701,-0.32969891429059206
1761315178760494600,0.17849462890625,-0.09549509468376637,-0.2160872942883521,-0.14189846087507904
1761315178770475300,0.188475341796875,0.0014390928924083708,-0.06361222034664825,0.09388758642189204
1761315178780457500,0.19845751953125,0.1311386549949646,0.05796645127832889,0.2902483629118651
1761315178790438400,0.2084384765625,0.23056407486498354,0.0917165442594327,0.4041023403026163
1761315178800420600,0.218420654296875,0.280241421225667,0.04851986515494063,0.43303339736312624
1761315178810401500,0.228401611328125,0.208998139744997,-0.0325176833756268,0.37048027588166293
1761315178820383500,0.238383544921875,0.09113046973347663,-0.1155951767685823,0.22187084612585603
1761315178830365400,0.248365478515625,-0.03504676346182823,-0.20611100346874445,0.08537124861963093
1761315178840346600,0.2583466796875,-0.14176117129623889,-0.28044196703275664,-0.032447759944573044
1761315178850328300,0.268328369140625,-0.22250059539675712,-0.30236195802111177,-0.06904021847844123
1761315178860309500,0.2783095703125,-0.22899112645983694,-0.2746155989668332,-0.045630043731257314
1761315178870291500,0.28829150390625,-0.21967618562579153,-0.24952419313443824,-0.012954539445415138
1761315178880272400,0.2982724609375,-0.23588263953924177,-0.23273305293451993,0.042729426918923855
1761315178890254600,0.308254638671875,-0.20963000790774822,-0.1949958265460096,0.09001848990358412
1761315178900235500,0.318235595703125,-0.1730529661387205,-0.15587355727357788,0.11256525275446475
1761315178910217500,0.328217529296875,-0.1626180813640356,-0.12326775722308084,0.11197532403729855
1761315178920198400,0.338198486328125,-0.2098573869228363,-0.10043189349882305,0.12815730109661816
1761315178930180600,0.3481806640625,-0.2791694080799818,-0.11078227832783014,0.130574226045236
1761315178940161500,0.35816162109375,-0.29828911909163,-0.11135984075376763,0.10086787376329302
1761315178950143500,0.3681435546875,-0.27788462896645066,-0.14088652561986817,0.033207930662110446
1761315178960125400,0.37812548828125,-0.16815233461558818,-0.1693534175010398,-0.00342931686155498
1761315178970106600,0.388106689453125,-0.023013795840740203,-0.16019509200081228,-0.003606938450783491
1761315178980088600,0.398088623046875,0.039764439633488656,-0.19704950767280532,-0.014697729850932956
1761315178990069500,0.408069580078125,-0.02394844634234905,-0.265919703346584,-0.09118431881256402
1761315179000051500,0.418051513671875,-0.03643149581849575,-0.28644075078982856,-0.16925211255103348
1761315179010032400,0.428032470703125,0.02570084296762943,-0.24252105464041232,-0.1530716698616743
1761315179020014600,0.4380146484375,0.07223346156179905,-0.18524158097924665,-0.08931465248316525
1761315179029995500,0.44799560546875,-0.04390110104680061,-0.1788445551522076,-0.039095600461214776
1761315179039977500,0.4579775390625,-0.1372030696004629,-0.14748395112352444,-0.043202743519097565
1761315179049959400,0.46795947265625,-0.15521160449981689,-0.05709573285840451,-0.08725582025721669
1761315179059940600,0.477940673828125,-0.12710603847801685,-0.03650806818604469,-0.10798187048695981
1761315179069922600,0.487922607421875,-0.15951427012979982,-0.05230307348808273,-0.03524330894723535
1761315179079903500,0.497903564453125,-0.16717501401603221,-0.048454599632695314,0.022926921274885534
1761315179089885400,0.507885498046875,-0.11908932076096534,-0.038601076676230875,0.03214351630099117
1761315179099866400,0.517866455078125,-0.09289981749355793,-0.0178608335243538,0.03559358368963003
1761315179109848600,0.5278486328125,-0.05556465083360672,-0.012093611767143011,0.02430975393541157
1761315179119829500,0.53782958984375,-0.0039233109235763544,-0.05006104844864458,-0.01688121136985719
1761315179129811500,0.5478115234375,0.01028524717092514,-0.07733577140318229,-0.0728103846669197
1761315179139792400,0.55779248046875,0.016706804651021957,-0.1315192883430049,-0.09853227042257785
1761315179149774600,0.567774658203125,0.0005552957952022552,-0.15447952736560255,-0.11152743413932621
1761315179159756500,0.577756591796875,-0.015917700099945066,-0.16042842583265154,-0.1169928599383682
1761315179169737500,0.587737548828125,-0.019403788650035857,-0.14516137166116386,-0.11513934102617203
1761315179179719400,0.597719482421875,0.0099035543769598,-0.12959294165661558,-0.08961860386580228
1761315179189700600,0.60770068359375,0.028646833291649815,-0.10830246247714385,-0.06276018836088479
1761315179199682600,0.6176826171875,0.012126491123437881,-0.07211551600424572,-0.06288871011137961
1761315179209663500,0.62766357421875,-0.02629997790455818,-0.03642954132342711,-0.037308643979206677
1761315179219645400,0.6376455078125,-0.007695230677723884,-0.01006104649361223,0.001541384223103523
1761315179229626400,0.64762646484375,0.03801788822710514,-0.020984883829019963,0.07099405595995485
1761315179239608600,0.657608642578125,0.07894611094295978,-0.03987268578093499,0.15390943586006758
1761315179249589500,0.667589599609375,0.10677227550148963,-0.03755078217200935,0.19079649342633784
1761315179259571500,0.677571533203125,0.06833879221081733,-0.054217656671442085,0.1671338052228093
1761315179269553400,0.687553466796875,-0.022322306445240973,-0.05858021752880886,0.13635894692651926
1761315179279534600,0.69753466796875,-0.056423898011446,-0.07881623748559505,0.0848431330922991
1761315179289516500,0.7075166015625,-0.06563245586156845,-0.11595820139469579,0.07302475806996225
1761315179299497700,0.717497802734375,-0.054421910539269445,-0.1237312465489842,0.1223888737630099
1761315179309479400,0.7274794921875,-0.0636088410794735,-0.13122974907821044,0.1338120389226824
1761315179319460400,0.73746044921875,-0.07244856561720371,-0.09435829093987122,0.12984620403163133
1761315179329442600,0.747442626953125,-0.060685647109150885,-0.06457160343071446,0.10438267695121467
1761315179339423500,0.757423583984375,-0.009119126001000405,-0.06618884763531387,0.10944850897341966
1761315179349405400,0.767405517578125,-0.01580430285334587,-0.11613704682663083,0.12942147581353783
1761315179359387400,0.777387451171875,-0.1025911904245615,-0.13494122561570257,0.12037526891827582
1761315179369368600,0.78736865234375,-0.20721768606901167,-0.08789179833950474,0.13676847757548094
1761315179379350500,0.7973505859375,-0.2936643819004297,-0.02451009881310165,0.15518581247143445
1761315179389331500,0.80733154296875,-0.3099818949729204,0.032445074797142294,0.15995668013505637
1761315179399313400,0.8173134765625,-0.23890227962136268,0.03783210159773007,0.11709332463815808
1761315179409294600,0.827294677734375,-0.14269173014461994,-0.015808175310865043,0.0553835951782763
1761315179419276500,0.837276611328125,-0.07706219689249992,-0.08671641615089029,0.01975479404479265
1761315179429257500,0.847257568359375,-0.08348024724125862,-0.11839048830922692,-0.01847388738878071
1761315179439239400,0.857239501953125,-0.07985562700331211,-0.1469101515572518,-0.027976678945124147
1761315179449220400,0.867220458984375,-0.03567629353702068,-0.1532788463389501,-0.010468567848578095
1761315179459202600,0.87720263671875,0.08403612755835056,-0.14617644872153177,-0.019255173959583042
1761315179469184500,0.8871845703125,0.2124666926383972,-0.18606204878296703,-0.043496173507720226
1761315179479165400,0.89716552734375,0.2576011348724365,-0.2392832052303478,-0.05091302563548088
1761315179489147400,0.9071474609375,0.17951427110731602,-0.245979725460615,-0.033155981279164554
1761315179499128600,0.917128662109375,-0.05381517681777477,-0.20598708482813088,-0.023441958124935627
1761315179509110500,0.927110595703125,-0.2602420047700405,-0.16301135499794034,-0.03236366185769438
1761315179519091700,0.937091796875,-0.35858664366602894,-0.0851452395777218,0.007220452772825956
1761315179529073400,0.947073486328125,-0.3977542864501476,-0.02233217938528396,0.03933445071838796
1761315179539054300,0.957054443359375,-0.35495267107784745,-0.009290363515214993,0.045762876330688596
1761315179549036500,0.96703662109375,-0.24764848065674303,-0.04442516145352274,0.02861256569586694
1761315179559017500,0.977017578125,-0.12816577666401863,-0.10594450117414816,-0.02169073054343462
1761315179568999400,0.98699951171875,-0.031443186011910436,-0.20008138618199153,-0.05194624114073813
1761315179578981400,0.9969814453125,0.022005495581030845,-0.25696248990902676,-0.06916815570704639
1761315179588962600,1.006962646484375,0.0668061758160591,-0.2800545568840578,-0.11821173420883714
1761315179598944500,1.016944580078125,0.11422551411688327,-0.2836336392135359,-0.14251688503436744
1761315179608925700,1.02692578125,0.11715747591555117,-0.2622343841636553,-0.15298428383916615
1761315179618907400,1.036907470703125,0.031387071910500525,-0.2551373751074076,-0.13249277301765977
1761315179628888600,1.046888671875,-0.09088497053980826,-0.24144871270116416,-0.11697685865163802
1761315179638870500,1.05687060546875,-0.18990823934972284,-0.18535664045996963,-0.06241100959703326
1761315179648851500,1.0668515625,-0.24608313103616236,-0.11615915819373912,-0.004465893367677927
1761315179658834400,1.07683447265625,-0.31261048991084095,-0.08021189309507608,0.05138283510431647
1761315179668816400,1.08681640625,-0.3469219248354435,-0.05149600402205251,0.0792419520843774
1761315179678797600,1.096797607421875,-0.2972375642120838,-0.003888349208049476,0.08972615589350462
1761315179688779300,1.106779296875,-0.14567512986958026,0.03137731770146638,0.10294643360301851
1761315179698760400,1.116760498046875,-0.0071007719159126275,0.021213760681450367,0.1236594051554799
1761315179708742400,1.126742431640625,-0.001059153664112091,-0.02122019042223692,0.1108468314640224
1761315179718723600,1.1367236328125,0.000180032742023468,-0.06708192401751875,0.03534983806163072
1761315179728705300,1.146705322265625,0.01604220326244831,-0.0981062087639235,-0.04144764348007739
1761315179738686200,1.156686279296875,-0.030978491109609603,-0.13448328924775121,-0.08469568744562565
1761315179748668400,1.16666845703125,-0.07121931608319282,-0.14876787172053008,-0.08253558680228888
1761315179758649300,1.1766494140625,-0.05761690718829632,-0.11623933815732597,-0.04265066259428858
1761315179768631600,1.186631591796875,0.00831014770567417,-0.06486886934423819,0.00265606746673584
1761315179778613200,1.19661328125,0.08003332165777682,-0.03174870829712599,0.07313735159896313
1761315179788594400,1.206594482421875,0.024261165553331375,-0.028180530954152343,0.16095526271834967
1761315179798576400,1.216576416015625,-0.07136018585860729,0.003169442082662135,0.22803061086460946
1761315179808557600,1.2265576171875,-0.08722527898848056,0.08137587710684165,0.26209479302987454
1761315179818539300,1.236539306640625,-0.04095452620089054,0.10783201368749142,0.2508157125160098
1761315179828520400,1.2465205078125,0.027777649241685867,0.06493064600145444,0.2555754011984914
1761315179838502400,1.25650244140625,0.10162029956579208,-0.001821808599680662,0.2194760599438101
1761315179848483300,1.2664833984375,0.08672375920712948,-0.06057022230224684,0.1302981125175953
1761315179858465500,1.276465576171875,0.07593231607973575,-0.08294332735296338,0.03109444563947618
1761315179868447200,1.286447265625,0.07686988919079303,-0.10075937188751995,-0.04734963406547904
1761315179878428400,1.296428466796875,0.11592530377209186,-0.12938322616238146,-0.08888831682987511
1761315179888410400,1.306410400390625,0.11086977394819258,-0.15204749617939814,-0.057128612214699385
1761315179898391600,1.3163916015625,0.054396191576123236,-0.1424461030867882,0.0013327829737216233
1761315179908373200,1.326373291015625,-0.0030196400821208952,-0.11630482287527992,0.04505187851712107
1761315179918354400,1.3363544921875,-0.05616963098943233,-0.07805329028908163,0.07012940195463598
1761315179928336400,1.34633642578125,-0.10544833342134952,-0.04560779536683112,0.12810315975658595
1761315179938317600,1.356317626953125,-0.14575696293413637,-0.04237442120248452,0.16262115010395645
1761315179948299500,1.366299560546875,-0.1893131960660219,-0.04596362306717783,0.1306653383947909
1761315179958280400,1.376280517578125,-0.22860475749075412,-0.06739477109266445,0.1024663950011134
1761315179968262400,1.386262451171875,-0.23786767587661742,-0.08623555556507781,0.04065459340624511
1761315179978244400,1.396244384765625,-0.21325287458002565,-0.14060571765080093,-0.008727423269674182
1761315179988225500,1.4062255859375,-0.17407529492378235,-0.189283769042138,-0.03662058864980936
1761315179998207200,1.416207275390625,-0.18667291069030761,-0.1975383689019829,-0.06447305669337511
1761315180008188400,1.4261884765625,-0.28030338054597376,-0.2030653521625325,-0.10751184182241559
1761315180018170400,1.43617041015625,-0.3256096722155809,-0.191990488983877,-0.1445372849460691
1761315180028151600,1.446151611328125,-0.30471535274684425,-0.14897254571346566,-0.14030395822525024
1761315180038133500,1.456133544921875,-0.25228432376384735,-0.10579532022811472,-0.11693879166357218
1761315180048114400,1.466114501953125,-0.2072638632982969,-0.07709156911745667,-0.07726582970581948
1761315180058096400,1.476096435546875,-0.13700257859230042,-0.05153137672953308,-0.054873965155705806
1761315180068078600,1.48607861328125,-0.05832651676237583,-0.05069010359980166,-0.0337928909432143
1761315180078059500,1.4960595703125,0.06844985136985779,-0.07256304057603702,0.008129165115579963
1761315180088041200,1.506041259765625,0.19126199204623698,-0.11219462934378534,0.025816432171314952
1761315180098022400,1.5160224609375,0.21513445054292676,-0.15481725315367803,0.016521218951046465
1761315180108004400,1.52600439453125,0.18780396054685114,-0.18275948183992877,-0.0019032763380557296
1761315180117985500,1.535985595703125,0.10151742371320724,-0.19096753914430736,-0.06627579526640474
1761315180127967200,1.54596728515625,-0.003524666994810104,-0.151818710658513,-0.1144107344906777
1761315180137948400,1.555948486328125,-0.0813373899936676,-0.12006149026136845,-0.12436784568578003
1761315180147930400,1.565930419921875,-0.1162549741178751,-0.12094088517809286,-0.1353310651835054
1761315180157911600,1.57591162109375,-0.1318967798858881,-0.1255654762388207,-0.09809051800444722
1761315180167893500,1.5858935546875,-0.10583002621531486,-0.10488076266646384,-0.04677110352516174
1761315180177875500,1.59587548828125,-0.06314356165528297,-0.09244955297540873,0.00412087932229042
1761315180187856400,1.6058564453125,-0.021299977660179138,-0.11682358605237678,0.057310617718100546
1761315180197838300,1.61583837890625,0.031075521743297575,-0.12822293194504453,0.08054119811467826
1761315180207819500,1.625819580078125,0.07673720272183418,-0.12425662212995811,0.07230754971131682
1761315180217801200,1.63580126953125,0.10867430973052977,-0.15458008339693768,0.03762428579963743
1761315180227782400,1.645782470703125,0.07954115422666072,-0.19830876875258982,0.018737872087210415
1761315180237764400,1.655764404296875,-0.004188099339604377,-0.22207639690162612,0.015330693992227315
1761315180247745500,1.66574560546875,-0.09742401691973208,-0.20328398161558434,-0.004667407289147376
1761315180257727500,1.6757275390625,-0.1743897677004337,-0.16376105912039055,-0.022873802848160266
1761315180267708400,1.68570849609375,-0.19231003979444503,-0.10826156421117485,-0.03317826617620885
1761315180277690400,1.6956904296875,-0.14596037655174732,-0.06373946345550939,0.005629238058626651
1761315180287672600,1.705672607421875,-0.04511982918679714,-0.02135696854442358,0.05799852691702544
1761315180297653500,1.715653564453125,0.035599721169471736,-0.03619268209394067,0.1070029424522072
1761315180307635200,1.72563525390625,0.08993746055662631,-0.06347726885536685,0.16075389492735265
1761315180317616400,1.735616455078125,0.03493336621522903,-0.09759710846431553,0.1597469829071313
1761315180327598300,1.745598388671875,-0.12802899854183197,-0.1330101114226505,0.11423523179329931
1761315180337579500,1.75557958984375,-0.26140695689618587,-0.14946409209007397,0.06840155524872243
1761315180347561500,1.7655615234375,-0.30307752241194247,-0.15010878320178017,0.05549779614247381
1761315180357542400,1.77554248046875,-0.2995692220300436,-0.13754137991042806,0.057640945651009676
1761315180367524400,1.7855244140625,-0.26856033578217026,-0.10994611976463348,0.033363121223822234
1761315180377506600,1.795506591796875,-0.244272866743803,-0.07911898329183459,0.025685499268025158
1761315180387487500,1.805487548828125,-0.18568214608728884,-0.05533628543782979,0.02849361549131572
1761315180397469400,1.815469482421875,-0.10176000029742717,-0.048239659974072126,0.07855864599533378
1761315180407450400,1.825450439453125,-0.011788637471199036,-0.06446763159958645,0.10424458365477621
1761315180417432300,1.835432373046875,0.07292144382596015,-0.08681297186054289,0.11587591167241335
1761315180427413500,1.84541357421875,0.10037117628753185,-0.10378085686685516,0.10358875009454786
1761315180437395500,1.8553955078125,0.08005670253336429,-0.13712739228205756,0.08160955799855292
1761315180447376400,1.86537646484375,0.04756956042647362,-0.1802976217710413,0.053129605706408616
1761315180457358300,1.8753583984375,0.02651566648185253,-0.20084531975919379,0.045255365199968214
1761315180467339500,1.885339599609375,0.020770985350012778,-0.20650931860394775,0.032338162090256806
1761315180477321500,1.895321533203125,-0.014055997881293296,-0.19970703644426538,0.022595862689614294
1761315180487303400,1.905303466796875,-0.03324117534458637,-0.17305271041039377,0.030016806470602748
1761315180497284400,1.915284423828125,-0.05086567936241627,-0.14179848936563358,0.04487929842919111
1761315180507266600,1.9252666015625,-0.06190788238048553,-0.10815666079828515,0.07163732229955494
1761315180517247500,1.93524755859375,-0.05937164190113544,-0.07427961696926504,0.08343407001197338
1761315180527229200,1.945229248046875,-0.10344225429594515,-0.0391966679492034,0.11064341784641146
1761315180537210400,1.95521044921875,-0.09806640647649764,-0.02760735244238749,0.1310279611621052
1761315180547192300,1.9651923828125,-0.15494330895245073,-0.05299087308915332,0.14945428308211267
1761315180557173500,1.975173583984375,-0.30009061555564404,-0.051868865055590865,0.16984335644245147
1761315180567155500,1.985155517578125,-0.410640656030178,-0.01953046550331637,0.15757672619596122
1761315180577137400,1.995137451171875,-0.4197089286267757,0.009571765139326453,0.1037321771532297
1761315180587118300,2.005118408203125,-0.39722120248675347,-0.013489450039714574,0.05093194953165948
1761315180597100500,2.0151005859375,-0.34533436338305473,-0.08438921531233937,-0.01502038593403995
1761315180607081500,2.02508154296875,-0.2485819621145725,-0.18216507787704467,-0.1265885174099356
1761315180617063400,2.0350634765625,-0.09892390008866786,-0.2285919345417991,-0.14589644447006284
1761315180627044400,2.04504443359375,0.05710895766615867,-0.20630785948140545,-0.13242511460892856
1761315180637026300,2.0550263671875,0.1792044745057821,-0.1580983754498884,-0.09033888096436858
1761315180647007500,2.065007568359375,0.2804728918939829,-0.13882771166022867,-0.028329876296967267
1761315180656989400,2.074989501953125,0.3127928607404232,-0.15835370191782713,0.0014388736966997385
1761315180666971100,2.08497119140625,0.27521862462759017,-0.1892064112232998,-0.02306421085372567
1761315180676952300,2.094952392578125,0.20361644670665263,-0.1945651435111649,-0.09389109355323016
1761315180686934300,2.104934326171875,0.08258242161870002,-0.14841166042769327,-0.11883278871662914
1761315180696915500,2.11491552734375,-0.02286708084642887,-0.1081168950434774,-0.11903685992136596
1761315180706897200,2.124897216796875,-0.040942835763096805,-0.08160385891012847,-0.07311060972250998
1761315180716878300,2.13487841796875,0.042004327514767646,-0.0652068508606404,-0.010674319553747773
1761315180726860300,2.1448603515625,0.17712825275361538,-0.08922902002632617,0.03445734620131552
1761315180736841200,2.15484130859375,0.24185762229561805,-0.11947824701331555,0.052742213824018835
1761315180746823400,2.164823486328125,0.25794775635302064,-0.11491411743555217,0.061067339903116226
1761315180756804400,2.174804443359375,0.21957506333887575,-0.09907786680767312,0.03693915307968855
1761315180766786300,2.184786376953125,0.09865969619452952,-0.06814432908464223,0.02715834829956293
1761315180776768300,2.194768310546875,-0.07211480361819267,-0.05180546269686892,0.013748027910664677
1761315180786749400,2.20474951171875,-0.21572014147639273,-0.04762227699439972,-0.0003568506136536598
1761315180796731100,2.214731201171875,-0.30294191333353515,-0.05058848812254146,-0.03809650642126798
1761315180806712300,2.22471240234375,-0.3319266002774238,-0.06978617800753563,-0.05617562233880162
1761315180816694300,2.2346943359375,-0.2825701564341783,-0.0921931122626178,-0.05545008454322815
1761315180826675200,2.24467529296875,-0.20222470008730886,-0.10836434873221441,-0.012262830854207277
1761315180836657400,2.254657470703125,-0.1263069970548153,-0.11726181307286024,0.03494841765388846
1761315180846638000,2.26463818359375,-0.11010931096971034,-0.12059501261617987,0.029323855770379305
1761315180856620300,2.274620361328125,-0.13721417551636694,-0.12297209874475375,0.004578121570497751
1761315180866602200,2.284602294921875,-0.17438333795964717,-0.1256327510550618,-0.013459127966687082
1761315180876583400,2.29458349609375,-0.14832359855175017,-0.13128211858626454,-0.009219663766026497
1761315180886565000,2.304565185546875,-0.09791384626328944,-0.15475571395847945,0.0078209028840065
1761315180896546300,2.31454638671875,-0.04665010749399662,-0.18541986015560105,-0.0019628245055675507
1761315180906528300,2.3245283203125,-0.05494213502109051,-0.1997445371767506,-0.047356356067210434
1761315180916509400,2.334509521484375,-0.06981821711361408,-0.17148995460569857,-0.06316825770512223
1761315180926491100,2.3444912109375,-0.06267360605597495,-0.10386926580267027,-0.05723009982779622
1761315180936472000,2.35447216796875,-0.08200666755735873,-0.05863408487420529,-0.034755890756472944
1761315180946454300,2.364454345703125,-0.10479717603623867,-0.05927369795199483,0.020210355792567133
1761315180956435200,2.374435302734375,-0.12191489957571029,-0.0637294535181485,0.06426058298647404
1761315180966417400,2.38441748046875,-0.10048340449035167,-0.0568097372575663,0.07704305380061269
1761315180976399000,2.394399169921875,-0.14592121358513832,-0.0605365574946627,0.0718004039067775
1761315180986380300,2.40438037109375,-0.22257132254540918,-0.056055283894762394,0.05038680980429053
1761315180996362200,2.4143623046875,-0.20127134488523005,-0.022337430949136615,0.02921805730834603
1761315181006343400,2.424343505859375,-0.0884130274683237,0.01706171903591603,0.04195413169749081
1761315181016325000,2.4343251953125,0.022556699723005294,0.019572204019501806,0.06360898720994591
1761315181026306300,2.444306396484375,0.0624275223404169,-0.03301737652607262,0.11460355364903807
1761315181036288300,2.454288330078125,0.09177695094346999,-0.05785418654289096,0.1585521470993757
1761315181046269200,2.464269287109375,0.08050210821330547,-0.08298939498439431,0.11822028284147382
1761315181056251400,2.47425146484375,0.03842997615933418,-0.11794990493487566,0.05313822740428149
1761315181066233300,2.4842333984375,0.024102175599336622,-0.16203980655204503,0.004805792846530676
1761315181076214300,2.49421435546875,0.02071954742372036,-0.18329075743872672,0.014498773212730885
1761315181086196200,2.5041962890625,-0.02151332814991474,-0.17135145945046096,0.049895592221245164
1761315181096177400,2.514177490234375,-0.11278408313691615,-0.13739530423693358,0.08966178542040287
1761315181106159000,2.5241591796875,-0.16083879673182963,-0.07482252820692956,0.1298560678385198
1761315181116140300,2.534140380859375,-0.16275602853000162,-0.028175489452853798,0.1626977955367416
1761315181126122200,2.544122314453125,-0.11331015283763408,-0.02770652023423463,0.16673669566400348
1761315181136103400,2.554103515625,-0.09481529572606086,-0.04366824213899672,0.16362294755764303
1761315181146085400,2.56408544921875,-0.09032733665704727,-0.05125135421175509,0.12513831860162317
1761315181156067300,2.5740673828125,-0.11926467732787131,-0.09486023084633052,0.07756313215196133
1761315181166048300,2.58404833984375,-0.12734627697467804,-0.14018920927178113,0.047131826596334574
1761315181176030500,2.594030517578125,-0.08608955295681953,-0.16187044133450834,0.029732144310325382
1761315181186011400,2.604011474609375,-0.057901569348573684,-0.17776746397260576,0.031171894789859652
1761315181195993000,2.6139931640625,-0.03164659962952137,-0.17658238237388432,0.04378587716929614
1761315181205974300,2.623974365234375,-0.026782208463549614,-0.14805117481853813,0.03507511277347803
1761315181215956200,2.633956298828125,-0.055227381703257555,-0.1034877374054864,0.038314971477538345
1761315181225937400,2.6439375,-0.08404021921157837,-0.07793028496392071,0.032711890773475166
1761315181235919400,2.65391943359375,-0.14398819969594479,-0.06559248917736113,0.02515489952266216
1761315181245901300,2.6639013671875,-0.1947469115525484,-0.0650354398164898,0.0077582129113376135
1761315181255882200,2.67388232421875,-0.23602877001166342,-0.06476334487684071,-0.035857641453295945
1761315181265864400,2.683864501953125,-0.22336977944672107,-0.048594775288365775,-0.08218019749335945
1761315181275845400,2.693845458984375,-0.17038696179986,-0.03086735888533294,-0.11783091819770633
1761315181285827300,2.703827392578125,-0.09606208091676234,-0.038463695765845476,-0.16096899898275732
1761315181295808300,2.713808349609375,-0.0559662173718214,-0.08740973217729478,-0.19781674745194613
1761315181305790200,2.723790283203125,-0.037138767305016515,-0.12411208082642405,-0.23024244169518351
1761315181315771400,2.733771484375,0.022356208714842795,-0.10428403888233005,-0.2695089417438954
1761315181325753000,2.743753173828125,0.09583937807679176,-0.09308153073601425,-0.2578211342986673
1761315181335734300,2.753734375,0.1574152520239353,-0.1205418941894546,-0.23537352097332476
1761315181345716200,2.76371630859375,0.15970131713449953,-0.16172880437411366,-0.19950616184361278
1761315181355698400,2.773698486328125,0.12785188840925693,-0.15659374304059892,-0.16432634658664463
1761315181365679400,2.783679443359375,0.12673428255617616,-0.12900164296627045,-0.12644574793837965
1761315181375661300,2.793661376953125,0.10946107619404792,-0.11687526144068687,-0.08976604951247573
1761315181385642200,2.803642333984375,0.0496527964413166,-0.1182094691865146,-0.016288506173714995
1761315181395624400,2.81362451171875,-0.04542027343809604,-0.07840977557655424,0.012135770408436655
1761315181405605400,2.82360546875,-0.16377835731506346,-0.03301894742865115,-0.015886428178846834
1761315181415587000,2.833587158203125,-0.20388006607890127,-0.015761048233509063,0.009011939299479126
1761315181425568300,2.843568359375,-0.1669704313546419,-0.017158859267458318,0.07087934353910386
1761315181435550200,2.85355029296875,-0.083960724234581,-0.03252447844259441,0.1415831843808293
1761315181445532400,2.863532470703125,0.005971475625038147,-0.0553565975734964,0.19055837382152677
1761315181455513300,2.873513427734375,0.061544309765100474,-0.06474076771885157,0.17804953231699763
1761315181465495300,2.883495361328125,0.09682780459225178,-0.09705606039017438,0.14777743591107428
1761315181475476200,2.893476318359375,0.08198562476933002,-0.12841916690319777,0.10414031956270337
1761315181485458400,2.90345849609375,0.018988778108358383,-0.14032920226436107,0.05325856584832072
1761315181495439400,2.913439453125,-0.06159048699438571,-0.1552239525247365,0.041050095529854294
1761315181505421300,2.92342138671875,-0.1210866320580244,-0.15457747131474314,0.04291311292275786
1761315181515402200,2.93340234375,-0.1231166765809059,-0.13179945699125528,0.08035093623958528
1761315181525384200,2.94338427734375,-0.11108780061304568,-0.10139171497430652,0.11715740285031497
1761315181535366400,2.953366455078125,-0.06800853734314441,-0.0637365225797519,0.16183935207650063
1761315181545347300,2.963347412109375,-0.04705927281677723,-0.04201386252809316,0.17456804687678812
1761315181555329300,2.973329345703125,-0.0375356576681137,-0.03044084056895226,0.1900098730932921
1761315181565310200,2.983310302734375,-0.030241993528604506,-0.02198101872690022,0.20979908086434004
1761315181575292400,2.99329248046875,-0.007939560827612876,-0.0347596536161378,0.20523834882006048
1761315181585273300,3.0032734375,0.004368716603517532,-0.05766089246049523,0.18584880789108574
1761315181595255300,3.01325537109375,-0.04422667973935604,-0.08252316571213304,0.15065006873793899
1761315181605236200,3.023236328125,-0.13331716807782648,-0.07090027672927826,0.0817256586588919
1761315181615218400,3.033218505859375,-0.16739187163710592,-0.03470043424218893,0.01743760314360261
1761315181625200400,3.043200439453125,-0.18381693673729896,-0.018359905620291828,-0.008861497978121042
1761315181635181300,3.053181396484375,-0.16713468200564383,-0.025796521894447505,-0.008380144201964139
1761315181645163300,3.063163330078125,-0.0715513245165348,-0.0445868913538754,0.007359495917335152
1761315181655144200,3.073144287109375,0.0325339038580656,-0.07320818834546954,0.02180442005097866
1761315181665126100,3.083126220703125,0.10818623395264149,-0.11029847686626017,0.04429229232147336
1761315181675107000,3.093107177734375,0.16812661565244197,-0.11147029712460935,0.05589147163517773
1761315181685089000,3.103089111328125,0.1868167030751705,-0.11062836640775203,0.04181216594353318
1761315181695070000,3.113070068359375,0.1514239026546478,-0.12106891373824327,0.028738749358803033
1761315181705052200,3.12305224609375,0.06973755309283733,-0.12988657257463782,0.017257935727760194
1761315181715034000,3.1330341796875,-0.02155950537919998,-0.11622172943539917,-0.017658260156959295
1761315181725015000,3.14301513671875,-0.05006488437354564,-0.09214976631123573,-0.06146444946192205
1761315181734997000,3.1529970703125,-0.09151391609311103,-0.08027677502483128,-0.06920775706507265
1761315181744978000,3.16297802734375,-0.13847323566675185,-0.09200531633924693,-0.07660458931811154
1761315181754960100,3.172960205078125,-0.16381868932545185,-0.09908581265211104,-0.09268325213342904
1761315181764941000,3.182941162109375,-0.15546996317505835,-0.10603073641918599,-0.07703669712506234
1761315181774923000,3.192923095703125,-0.12131050394177437,-0.11464370299633592,-0.05212729679606855
1761315181784904000,3.202904052734375,-0.08181962055265903,-0.11806436162739992,-0.04410604903437197
1761315181794886100,3.21288623046875,-0.10296002373695373,-0.1429562628323212,-0.033316140276938674
1761315181804868000,3.2228681640625,-0.1609627153724432,-0.15960958373043685,-0.04751154662892222
1761315181814849000,3.23284912109375,-0.1403793615490198,-0.14091387028452007,-0.05797141971439123
1761315181824831000,3.2428310546875,-0.087658994230628,-0.12513068328443913,-0.040176381435245274
1761315181834812200,3.252812255859375,-0.08088730813860892,-0.13065901825185863,-0.0018199089035391806
1761315181844794000,3.262794189453125,-0.1279974343597889,-0.12052388360872864,0.0031908319305628536
1761315181854775000,3.272775146484375,-0.11877075633108615,-0.11602500128690153,0.01023731637597084
1761315181864757000,3.282757080078125,-0.04109188884496689,-0.10633512619324027,0.018578297611325977
1761315181874738000,3.292738037109375,0.037595863422751424,-0.14571630213018505,0.0052151042997837065
1761315181884720000,3.30272021484375,0.029136078113317487,-0.19488069400005043,0.014892375640198588
1761315181894702000,3.3127021484375,-0.0018961890101432798,-0.19833463384620845,0.04228234073854983
1761315181904683000,3.32268310546875,-0.02254559380710125,-0.14197411992717535,0.023119009780883788
1761315181914665000,3.3326650390625,-0.029748072531819342,-0.11732859469875692,0.010555515479668974
1761315181924646100,3.342646240234375,-0.06684300069510936,-0.14105561684276907,0.020341946282982824
1761315181934628000,3.352628173828125,-0.09776187057197093,-0.13997742968462407,0.019909692345559594
1761315181944609000,3.362609130859375,-0.11652736131846904,-0.09840305455233901,0.004650967610999941
1761315181954591000,3.372591064453125,-0.13721476003825664,-0.06016608021445572,-0.0035046471200883386
1761315181964572000,3.382572021484375,-0.12894845147430897,-0.06980817064363509,-0.007908215841278434
1761315181974554000,3.39255419921875,-0.1084381628870964,-0.10811024610698222,0.03975311452187597
1761315181984535800,3.402535888671875,-0.08769523458778858,-0.12060710491277277,0.08306180263347923
1761315181994517000,3.41251708984375,-0.013191490006446838,-0.10245097823627293,0.08858809177428484
1761315182004499000,3.4224990234375,0.04797931027114391,-0.06736625738423317,0.11204656264260411
1761315182014480100,3.432480224609375,0.03251753724515438,-0.05037570388838648,0.1380273915953934
1761315182024462000,3.442462158203125,-0.056088382446765894,-0.05309426039839163,0.14104074806720018
1761315182034443300,3.452443359375,-0.14230769926309586,-0.044862237696535884,0.10598660501651465
1761315182044425000,3.462425048828125,-0.17943769873976706,-0.03594146554553881,0.09418664243370294
1761315182054406000,3.472406005859375,-0.15650573596358297,-0.044607769745122636,0.08493541448563337
1761315182064388000,3.48238818359375,-0.08745791870057583,-0.07780300532244146,0.06974990111775696
1761315182074370000,3.4923701171875,0.0003337619990110397,-0.11874390485677867,0.07577383758239448
1761315182084351000,3.50235107421875,0.01577332319319248,-0.14185005515608937,0.0384139018073678
1761315182094333000,3.5123330078125,-0.018381459864974022,-0.12829756808383388,0.007450169875472783
1761315182104314000,3.522314208984375,-0.03850537948310375,-0.1067825594334863,-0.020194500636309384
1761315182114296000,3.532296142578125,-0.05099719678759575,-0.109415008562617,-0.03813961491063237
1761315182124277000,3.542277099609375,-0.06549860034883022,-0.1396471930832602,-0.019491466933488844
1761315182134259000,3.552259033203125,-0.06681202103495597,-0.1545363173204474,-0.010878609954193234
1761315182144240000,3.562240234375,-0.06313947000205516,-0.14155019542668013,0.006820493669807911
1761315182154222000,3.57222216796875,-0.06321954950094223,-0.10957403504922986,0.020689298415929078
1761315182164204000,3.5822041015625,-0.07522329102754592,-0.09055327263372018,0.025815847649425266
1761315182174185000,3.59218505859375,-0.07108838317990303,-0.07316524425288662,0.018638064974546432
1761315182184167200,3.602167236328125,-0.0893587838858366,-0.05551198906460777,0.028773382280766962
1761315182194148000,3.612148193359375,-0.10834463938474655,-0.03048612274909392,0.05923420619182288
1761315182204130000,3.622130126953125,-0.10379998169243335,-0.03059402183666825,0.07258044836856424
1761315182214111000,3.632111083984375,-0.10275544107556342,-0.03643407136807218,0.06897497122250497
1761315182224093000,3.642093017578125,-0.10669161148071288,-0.044218679095990955,0.05845218896865845
1761315182234074000,3.65207421875,-0.12114683781266211,-0.04813086583735421,0.04186747632734477
1761315182244056000,3.66205615234375,-0.14830197124183178,-0.05215515291737392,0.02432487843930721
1761315182254038000,3.6720380859375,-0.17117840443849563,-0.055375229208730156,-0.006027443595975637
1761315182264019000,3.68201904296875,-0.14380290625691414,-0.05035997659629211,-0.01803783405907452
1761315182274001200,3.692001220703125,-0.05918576394021511,-0.04709553144024685,-0.03228694335967302
1761315182283982000,3.701982177734375,0.023372107759118077,-0.061007536007277666,-0.05242934848256409
1761315182293964000,3.711964111328125,0.08033727304041385,-0.08752322075543925,-0.03499101468659937
1761315182303945000,3.721945068359375,0.09906126273274421,-0.12333687693653628,-0.017022373406216502
1761315182313927000,3.731927001953125,0.031174305942654607,-0.16869522758694364,-0.03663308280520141
1761315182323909000,3.7419091796875,-0.06691197427809238,-0.17681599020035937,-0.02860365173704922
1761315182333890000,3.75189013671875,-0.13899579823613167,-0.13492420141566544,-0.005804083168879151
1761315182343872000,3.7618720703125,-0.1997229463994503,-0.09700573670873418,-0.005667889568582177
1761315182353853000,3.77185302734375,-0.19853578244149683,-0.07613235043017193,-0.0072102236397564405
1761315182363835100,3.781835205078125,-0.12191957575082778,-0.057728587401844556,-0.0017402677960693836
1761315182373816000,3.791816162109375,-0.007921440649032592,-0.03680664927382022,0.017880524605512618
1761315182383798000,3.801798095703125,0.03293020969927311,-0.04837640156364068,0.04817629414796829
1761315182393779000,3.811779052734375,0.012955927684903144,-0.06388270785110071,0.0350573579210788
1761315182403761200,3.82176123046875,-0.0230400993257761,-0.08355426232554018,0.004686842641979456
1761315182413743000,3.8317431640625,-0.1312555593729019,-0.09996290601389482,-0.03833133809044957
1761315182423724000,3.84172412109375,-0.2161918506413698,-0.11308934969380498,-0.07670739210546017
1761315182433706000,3.8517060546875,-0.2655447873532772,-0.11788579019010066,-0.07554317063167691
1761315182443687000,3.86168701171875,-0.21898820336163044,-0.08037855489887297,-0.054710664352774614
1761315182453669000,3.871669189453125,-0.13786299481391906,-0.04713646623883396,-0.006617956835031509
1761315182463650000,3.881650146484375,-0.0956324573278427,-0.04259093176368624,0.06538264581896364
1761315182473632000,3.891632080078125,-0.07844576020538807,-0.0314577990591526,0.10647796873003244
1761315182483613000,3.901613037109375,-0.07441255916655064,-0.006842011381871998,0.08415515082813799
1761315182493595100,3.91159521484375,-0.0789455264210701,-0.02559639621246606,0.026643384514749048
1761315182503577000,3.9215771484375,-0.04986322432160377,-0.06634933542665093,0.006682108112424611
1761315182513558300,3.931558349609375,0.03852233061790466,-0.09339435954485088,-0.026183804178982972
1761315182523540000,3.9415400390625,0.11372633242309092,-0.14020550281945615,-0.05915449201911688
1761315182533521000,3.95152099609375,0.09837152690291404,-0.17911982842963187,-0.078896280451864
1761315182543503000,3.961503173828125,0.03204465903639793,-0.15738799869082867,-0.0745736680123955
1761315182553484000,3.971484130859375,0.024373978278040883,-0.1064102737886831,-0.06045885261595249
1761315182563466000,3.981466064453125,0.034732290685176845,-0.08046999604199082,-0.039508930502459405
1761315182573448000,3.991447998046875,0.02762275094091892,-0.09034468965064733,-0.015090382430329919
1761315182583429000,4.00142919921875,-0.00788929194509983,-0.10144074174780399,0.013917612323909997
1761315182593411000,4.0114111328125,0.039434769287705417,-0.10265512250624596,0.03409012032411993
1761315182603392000,4.02139208984375,0.12612053457200526,-0.15065942108817398,0.055052171266824004
1761315182613374000,4.0313740234375,0.12952654362320898,-0.18102522365953772,0.07873911712877452
1761315182623355100,4.041355224609375,0.0548942042261362,-0.16940204241573809,0.08197378820106387
1761315182633337000,4.051337158203125,0.007336334237456321,-0.12088800421338528,0.050554713717103
1761315182643318000,4.061318115234375,-0.02294073060452938,-0.07618380662277341,0.02755363122746348
1761315182653300000,4.071300048828125,-0.01673018552660942,-0.08140873819682747,0.02991553805321455
1761315182663282000,4.081281982421875,-0.03967033160924911,-0.11233517032563686,0.05096870134547352
1761315182673263000,4.09126318359375,-0.06024141047298908,-0.14656100932601837,0.04179747983105481
1761315182683245000,4.1012451171875,-0.04188274696171283,-0.15734140133643523,0.00957600292302668
1761315182693226000,4.11122607421875,-0.018776596662402154,-0.172631014399603,-0.0014927958410233257
1761315182703208000,4.1212080078125,0.035572833162546155,-0.2154231860901229,-0.00920570830591023
1761315182713188900,4.13118896484375,0.08685586115419865,-0.21776158417612312,-0.024244287483766672
1761315182723171000,4.141171142578125,0.13308335932195187,-0.2187194328902289,-0.04330817665494978
1761315182733152000,4.151152099609375,0.10635901852548121,-0.2314644943034276,-0.05000058696568012
1761315182743134000,4.161134033203125,0.006526771420240402,-0.23479723718902096,-0.0683027710493654
1761315182753116000,4.171115966796875,-0.13623685491681098,-0.1933841535656713,-0.06310571386292577
1761315182763097000,4.18109716796875,-0.26672727513611316,-0.14079897520057857,-0.05960610824413597
1761315182773079000,4.1910791015625,-0.2981564326226711,-0.09480842759385705,-0.023449629974737762
1761315182783060000,4.20106005859375,-0.2671504689842462,-0.05402470964891836,0.04733998945429921
1761315182793042000,4.2110419921875,-0.16190905631184577,-0.024143019066378474,0.10113514639735222
1761315182803023000,4.221023193359375,-0.12832535113990307,-0.005408562778960913,0.14036496769748627
1761315182813005000,4.231005126953125,-0.1619774453729391,0.0001118811429478228,0.1672694873664528
1761315182822987000,4.240987060546875,-0.2088683758854866,0.001051390482764691,0.1745556988518685
1761315182832968000,4.250968017578125,-0.25854513772428034,-0.0160509345581755,0.12233882407620549
1761315182842950100,4.2609501953125,-0.30695640967190263,-0.035841475769784296,0.08315371870063244
1761315182852931000,4.27093115234375,-0.2950269024252891,-0.04062520291497931,0.06964388346001506
1761315182862912800,4.280912841796875,-0.3171007870674133,-0.03233425310011953,0.03944704424738884
1761315182872894000,4.29089404296875,-0.3172644531965256,-0.02585203320765868,0.009724398417770862
1761315182882876000,4.3008759765625,-0.2611988671034574,-0.00685572937997058,0.02896320576444268
1761315182892857000,4.310857177734375,-0.1670925964295864,0.017877729860227554,0.06338759954422712
1761315182902839000,4.320839111328125,-0.0748936206817627,0.03276791354333981,0.10899411626942455
1761315182912821000,4.330821044921875,-0.01374912388920784,0.02606848896993324,0.14488478320948778
1761315182922802000,4.340802001953125,0.03212064688205719,-0.008369294014386833,0.14407653556652367
1761315182932784000,4.3507841796875,0.011184826359152793,-0.03775154717480764,0.11434848290942609
1761315182942765000,4.36076513671875,-0.005565817433595657,-0.04738339020460844,0.08947831861227751
1761315182952747000,4.3707470703125,0.04386369164586067,-0.0420590351103805,0.054888212876766915
1761315182962728000,4.38072802734375,0.08682429697215556,-0.07685604332853108,0.014678440628573297
1761315182972710000,4.3907099609375,0.07194646131396293,-0.12138822708679363,-0.013459054901450872
1761315182982692000,4.400692138671875,0.056925417792797084,-0.1583766078693792,-0.04681194699220359
1761315182992673000,4.410673095703125,0.055390463310480115,-0.17842508763112128,-0.08240962233506142
1761315183002655000,4.420655029296875,0.10925357092320918,-0.18832060483209787,-0.11853358657434582
1761315183012636000,4.430635986328125,0.16184768151342868,-0.17762955333925784,-0.09459902262687682
1761315183022618000,4.4406181640625,0.2167676047027111,-0.17725589772127567,-0.06885908975787461
1761315183032599000,4.45059912109375,0.18858429726958273,-0.18714776166044175,-0.07899879097826779
1761315183042581000,4.4605810546875,0.09853519303202629,-0.17977220965744928,-0.0993123148843646
1761315183052562000,4.47056201171875,-0.02854161935150623,-0.16790075274100527,-0.09015789837427436
1761315183062544100,4.480544189453125,-0.18801731103658675,-0.15953503892319276,-0.0689474986936897
1761315183072526000,4.490526123046875,-0.26056933702826496,-0.12089596832413226,-0.048199309697374695
1761315183082507000,4.500507080078125,-0.29554303525388237,-0.10086513381693511,-0.014380992051959036
1761315183092489000,4.510489013671875,-0.2888368156135082,-0.0983549776269123,-0.0018261194486171007
1761315183102470000,4.520469970703125,-0.2273760924786329,-0.07469258168432862,0.0030735622264444827
1761315183112452000,4.5304521484375,-0.15061726244688034,-0.038789292724709955,0.03289258110262453
1761315183122433000,4.54043310546875,-0.0661924278318882,-0.036141572961211205,0.07092449785508215
1761315183132415000,4.5504150390625,-0.015505612167716025,-0.045380891275778414,0.06982099359259009
1761315183142397000,4.56039697265625,0.013082184413075446,-0.0561434188359417,0.053091173392161725
1761315183152378000,4.570378173828125,-0.008950783696770668,-0.06778884844416752,0.01889532767124474
1761315183162360000,4.580360107421875,-0.07137129177451133,-0.1020127329494804,0.013788140725344419
1761315183172341000,4.590341064453125,-0.08206628879010677,-0.11679193053878843,-0.0006871785465627908
1761315183182323000,4.600322998046875,-0.09323357949256897,-0.10248429598398506,0.0034660686753690243
1761315183192303900,4.610303955078125,-0.11833002682626247,-0.08638955881670117,0.023316724310070275
1761315183202286000,4.6202861328125,-0.08881108687520027,-0.06106165908100083,0.04882672088071704
1761315183212267000,4.63026708984375,0.0015624270111322402,-0.04644450191929936,0.059651554821059105
1761315183222249000,4.6402490234375,0.04063187011778355,-0.07148949306039139,0.09261405935473739
1761315183232231000,4.65023095703125,-0.001633154159784317,-0.11218752374956384,0.1260707771461457
1761315183242212000,4.660212158203125,-0.09719956051409244,-0.09221097671287133,0.11966836275793612
1761315183252194000,4.670194091796875,-0.14091712168753145,-0.036852241981215776,0.09845927825160324
1761315183262175000,4.680175048828125,-0.15785715057253838,-0.033708792856335636,0.06168832134567201
1761315183272157000,4.690156982421875,-0.15833236686885355,-0.05010918017299845,0.0272877468328923
1761315183282138000,4.70013818359375,-0.10073065724968909,-0.06119483874030411,0.01771013647466898
1761315183292120000,4.7101201171875,-0.0390349563151598,-0.07566151804802938,-0.015405001337453723
1761315183302102000,4.72010205078125,-0.0409603714197874,-0.12467316704159602,-0.0516098487932235
1761315183312083000,4.7300830078125,-0.0868751503765583,-0.1763196763170883,-0.04713496840149164
1761315183322065200,4.740065185546875,-0.15404957498311997,-0.1673533845239319,-0.04575461995899677
1761315183332046000,4.750046142578125,-0.15809797359108924,-0.1543803961063735,-0.052720951840281485
1761315183342027800,4.76002783203125,-0.11990882045030593,-0.13958923408463597,-0.041837519580498334
1761315183352009000,4.770009033203125,-0.04853869771957397,-0.1448958708590828,-0.07798742197863757
1761315183361991000,4.779990966796875,0.035733576682209965,-0.1767186490394175,-0.11581468300446868
1761315183371972000,4.78997216796875,0.09430617716014385,-0.21644684831574557,-0.13387940507046878
1761315183381954000,4.7999541015625,0.10583061073720454,-0.21173289847113191,-0.13574044970199464
1761315183391936000,4.80993603515625,0.05120879371166229,-0.19546337099252267,-0.12405483421385287
1761315183401917000,4.8199169921875,-0.07858955259025097,-0.17020312966555357,-0.12661613606922328
1761315183411899100,4.829899169921875,-0.17551263425052166,-0.1655340236096643,-0.1330804367125034
1761315183421880000,4.839880126953125,-0.21386194638907907,-0.1436488116737455,-0.09737908179946243
1761315183431862000,4.849862060546875,-0.17359481793045997,-0.113522571745608,-0.011839490875601768
1761315183441843000,4.859843017578125,-0.08025953162908554,-0.09118249218165873,0.043463074955716725
1761315183451825000,4.869824951171875,0.000360065484046936,-0.08760088910153135,0.10636332937441766
1761315183461807000,4.87980712890625,0.07821545858085155,-0.0808354500872083,0.12940803181007504
1761315183471788000,4.8897880859375,0.1039940429598093,-0.08067194835487752,0.12770824215486645
1761315183481770000,4.89977001953125,0.035683892321586606,-0.08301146068572998,0.12136077282428741
1761315183491751000,4.9097509765625,-0.05603051477968692,-0.08444317398928106,0.08992898498922586
1761315183501733000,4.919733154296875,-0.1538385625809431,-0.06877360343150794,0.05907061312794685
1761315183511714000,4.929714111328125,-0.19904840813875196,-0.055490873211342835,0.060699894830211994
1761315183521696000,4.939696044921875,-0.16531155823171137,-0.05509924354525283,0.09232004484422504
1761315183531678000,4.949677978515625,-0.10093582443296908,-0.06809044347293675,0.13520590443387626
1761315183541659100,4.9596591796875,-0.03057984718084335,-0.07022192080998793,0.15305829892344772
1761315183551641000,4.96964111328125,0.04750526301860809,-0.05937313973847776,0.16390008399859068
1761315183561622000,4.9796220703125,0.07490355755388736,-0.03505081858243793,0.18485197887346147
1761315183571604000,4.98960400390625,0.08667582841217518,-0.021172022165264932,0.20192973572872577
1761315183581585000,4.9995849609375,0.030523148557543754,-0.009617978901229798,0.20539551214314997
1761315183591567000,5.009567138671875,-0.02589607327878475,-0.03336418066974729,0.15280278979241846
1761315183601548000,5.019548095703125,-0.08613339209854602,-0.06060620693108067,0.09427980060987173
1761315183611530000,5.029530029296875,-0.11978431728780269,-0.04447093682400882,0.04937989778406918
1761315183621512000,5.039511962890625,-0.08351648759841919,-0.042121140561159696,0.017550927324965594
1761315183631493000,5.0494931640625,-0.04654723164141178,-0.07303160793585703,0.007786196896806359
1761315183641475000,5.05947509765625,-0.04716857841014862,-0.12537515956480055,0.01273198273591697
1761315183651456000,5.0694560546875,-0.014213234269618987,-0.12868052125312388,0.011398615240305662
1761315183661438200,5.079438232421875,0.023214286848902702,-0.10487195830550045,0.00014145429730415344
1761315183671419100,5.089419189453125,-0.00900339066684246,-0.11268559119850396,-0.0016487901203334331
1761315183681401300,5.0994013671875,-0.03782265791594982,-0.13957182629210874,-0.00009900339506566524
1761315183691383300,5.10938330078125,-0.02833469860255718,-0.12811289569931103,-0.0057599517662078135
1761315183701364200,5.1193642578125,-0.04324935913980007,-0.1410249842424877,-0.03160312581397593
1761315183711346200,5.12934619140625,-0.12517419363260268,-0.1598076270531863,-0.061701546153426164
1761315183721327400,5.139327392578125,-0.16901216631531715,-0.17372617095885798,-0.08824855762161314
1761315183731309000,5.14930908203125,-0.16544307565689087,-0.14246899077203123,-0.09809534031003712
1761315183741290200,5.159290283203125,-0.10376374133527279,-0.15382046066867186,-0.09203202168308199
1761315183751272200,5.169272216796875,-0.07061784305870533,-0.1745716453396715,-0.09104556792899966
1761315183761254400,5.17925439453125,-0.07084346850812434,-0.18733009595740585,-0.07676789012104272
1761315183771235300,5.1892353515625,-0.04406476717591285,-0.16783070144578813,-0.07511047830283642
1761315183781217300,5.19921728515625,-0.0454962612837553,-0.16494866146976128,-0.08857808183692395
1761315183791198200,5.2091982421875,-0.04953939919471741,-0.1681565358666703,-0.08258717085905373
1761315183801180400,5.219180419921875,-0.03474047399163246,-0.16863624567501245,-0.09580401450246571
1761315183811161300,5.229161376953125,0.0010118073910474776,-0.1971622107996605,-0.0762060184545815
1761315183821143000,5.23914306640625,0.02991641483604908,-0.20711601579282432,-0.04972103937193751
1761315183831124200,5.249124267578125,0.06004150398671627,-0.1812826872856356,-0.01714059295840561
1761315183841106200,5.259106201171875,0.06954641443490982,-0.14064939239574595,0.0068234893444925546
1761315183851088400,5.26908837890625,-0.002359130346775055,-0.11272919287821277,0.018528394054993985
1761315183861069300,5.2790693359375,-0.10796060850322246,-0.08367935000993311,0.022516879169270396
1761315183871051300,5.28905126953125,-0.19877485189437866,-0.0707928890983574,0.005249298830330372
1761315183881032200,5.2990322265625,-0.2472749711692333,-0.04299838005341589,0.02584631585292518
1761315183891014400,5.309014404296875,-0.2717383812963962,-0.03044968146253377,0.06486285972855985
1761315183900995300,5.318995361328125,-0.22280396225750446,-0.0035479382725432515,0.10967954125031829
1761315183910977300,5.328977294921875,-0.14477379711568356,0.010199815643485636,0.13514029185175894
1761315183920959200,5.338959228515625,-0.08245441132485866,0.009487192128412425,0.17215893990844486
1761315183930940200,5.348940185546875,-0.023818097960948942,0.018184348123986272,0.19292196114771068
1761315183940922400,5.35892236328125,0.0008615852653980255,0.008286894694250077,0.13914572810083628
1761315183950903300,5.3689033203125,-0.013335866913199424,-0.014601028010807931,0.07601561044901609
1761315183960885200,5.37888525390625,-0.009907646030187607,-0.012026556146610528,0.05091434080973267
1761315183970866200,5.3888662109375,0.021038111853599547,-0.01935439655035734,0.023629151260107756
1761315183980848400,5.398848388671875,0.06010930852591991,-0.048005887750815594,0.009668503512069583
1761315183990830000,5.408830078125,0.11204290938079356,-0.06042372650364414,0.01868687255233526
1761315184000811300,5.418811279296875,0.11519406688809394,-0.05247620156528428,0.018253303440660236
1761315184010793200,5.428793212890625,0.05200725061297416,-0.039647242994606494,-0.005164397025853395
1761315184020774400,5.4387744140625,-0.007035889986157417,-0.01945416713040322,-0.02395969838872552
1761315184030756400,5.44875634765625,-0.03859598037600517,-0.027023360275663433,-0.013195362463966012
1761315184040737300,5.4587373046875,-0.037221184891462325,-0.0672824698246084,0.009063158030062914
1761315184050719200,5.46871923828125,-0.03259761674404144,-0.08642705954918638,0.048546150373667475
1761315184060701400,5.478701416015625,-0.02678630011677742,-0.09076576460693031,0.05213401879779994
1761315184070682400,5.488682373046875,-0.058035424861311906,-0.0966916109919548,0.050265448446944354
1761315184080664000,5.4986640625,-0.11412380730807781,-0.08052733398610726,0.0370995312731713
1761315184090645200,5.508645263671875,-0.17615151667594908,-0.06509261336382478,0.0018682050246745347
1761315184100627200,5.518627197265625,-0.2214548857361078,-0.06559568578144535,-0.030601693686470387
1761315184110608400,5.5286083984375,-0.23978724576234817,-0.07586898678625002,-0.0688077979620546
1761315184120590300,5.53859033203125,-0.1975871034145355,-0.10096574464719742,-0.10534523837305605
1761315184130571300,5.5485712890625,-0.15847674377560614,-0.1310925690972246,-0.09025069122426212
1761315184140553200,5.55855322265625,-0.10783084464371204,-0.14091425387701018,-0.0408699166573584
1761315184150535400,5.568535400390625,-0.06455985819399357,-0.09965758465807885,-0.011208937887102364
1761315184160516400,5.578516357421875,-0.015731237617135047,-0.08529973601968958,-0.002719634222239256
1761315184170498300,5.588498291015625,-0.016881576696038247,-0.09489285447429865,0.039525808572024104
1761315184180479200,5.598479248046875,-0.03192015587389469,-0.11416141763841732,0.04249766398966312
1761315184190461200,5.608461181640625,-0.040213936966657635,-0.13928833317561073,0.022745938684791325
1761315184200442400,5.6184423828125,-0.045538346859812735,-0.14392085181446745,-0.021591946344077587
1761315184210424000,5.628424072265625,-0.09640987144112587,-0.16379848678763956,-0.05391074614673853
1761315184220406300,5.63840625,-0.13916180245280266,-0.1924134088373743,-0.062013461646810174
1761315184230387200,5.64838720703125,-0.1375076055049896,-0.19291628032559527,-0.06563435555770993
1761315184240369400,5.658369384765625,-0.1038368065714836,-0.16535431966120376,-0.058646396366506814
1761315184250350300,5.668350341796875,-0.0058317748934030526,-0.1515155995260924,-0.040337124954909084
1761315184260332300,5.678332275390625,0.04716974745392799,-0.1620179235137999,-0.0021131196964532134
1761315184270313200,5.688313232421875,0.024482114827632902,-0.1826889008217491,0.034965076527744526
1761315184280295400,5.69829541015625,-0.03008008096516132,-0.1482096533158794,0.048262730322405696
1761315184290277000,5.708277099609375,-0.14111235199868677,-0.11158995971521363,0.04439209943413734
1761315184300258000,5.718258056640625,-0.2790992654532194,-0.07711041994839907,0.03308635010905563
1761315184310240300,5.728240234375,-0.3386690602749586,-0.06030983606670051,0.02912920998111367
1761315184320221200,5.73822119140625,-0.2812251715660095,-0.05258430158225819,0.018056757955253123
1761315184330203400,5.748203369140625,-0.1977396636277437,-0.0462594459422864,0.041804055702313776
1761315184340184300,5.758184326171875,-0.10482640213072299,-0.05146419324483722,0.06758680479973554
1761315184350166300,5.768166259765625,-0.05499941816627979,-0.05987845891211181,0.0829515471920371
1761315184360148200,5.778148193359375,-0.0706102442741394,-0.047742377976421266,0.06330160176120699
1761315184370129400,5.78812939453125,-0.08416706046164035,-0.03486674898611381,0.0510671202186495
1761315184380111000,5.798111083984375,-0.014663900646567344,-0.02506475528748706,0.03012253186739981
1761315184390092300,5.80809228515625,0.053986441731452936,-0.0391520981551148,0.013870412181317805
1761315184400074200,5.81807421875,0.08534604111313819,-0.054669400760624556,0.02725713249891996
1761315184410055200,5.82805517578125,0.05456219579279423,-0.055437316393200306,0.03319638635478914
1761315184420037400,5.838037353515625,0.01416822608411312,-0.044061808033846316,0.03344977659396827
1761315184430019000,5.84801904296875,0.011425064855813979,-0.05113770123682916,0.05540222681351006
1761315184440000300,5.858000244140625,0.04443535405397415,-0.045408016744721676,0.08852160240933299
1761315184449982200,5.867982177734375,0.08337152616977692,-0.04037995944963768,0.09982684027776122
1761315184459963400,5.87796337890625,0.07065992863476275,-0.02967232214817777,0.1047805171623826
1761315184469945000,5.887945068359375,0.008398995032906531,-0.012332279361225664,0.11568111975267528
1761315184479926300,5.89792626953125,-0.04069733656942844,-0.01575467329164967,0.08242460070848465
1761315184489908200,5.907908203125,-0.07960077545940876,-0.017057718714233488,0.05972140518687665
1761315184499889200,5.91788916015625,-0.14665595760047434,-0.019570907111559063,0.055695364541187876
1761315184509871400,5.927871337890625,-0.1765735414803028,-0.03766330263577401,0.06542232024222612
1761315184519853300,5.937853271484375,-0.164948570138216,-0.05147219388820231,0.052697863225638866
1761315184529834200,5.947834228515625,-0.12206512170135975,-0.06131817285902798,0.04802687573991716
1761315184539816200,5.957816162109375,-0.1083989999204874,-0.06629906654413789,0.058148091455549
1761315184549797400,5.96779736328125,-0.08724807534217834,-0.05416636487562209,0.05501322749592363
1761315184559779000,5.977779052734375,-0.09296996012032031,-0.05632054723482579,0.03659757310040295
1761315184569761300,5.98776123046875,-0.1329196931928396,-0.0792266631837003,0.010844926880300044
1761315184579742200,5.9977421875,-0.1386976920723915,-0.08831756773721426,-0.022389015005901455
1761315184589724400,6.007724365234375,-0.1194400338947773,-0.09729746793061494,-0.055717795568704605
1761315184599705300,6.017705322265625,-0.08231880224645137,-0.10641175335971638,-0.06763115539811551
1761315184609687300,6.027687255859375,-0.0856552531927824,-0.09910513840708882,-0.08223309672437608
1761315184619668200,6.037668212890625,-0.09043021250963211,-0.07611623954558745,-0.07524228798896074
1761315184629650400,6.047650390625,-0.026497546303272244,-0.06359537880970165,-0.051705198926478624
1761315184639632100,6.057632080078125,0.04311433458328247,-0.0677673855310306,-0.03731112819723785
1761315184649613000,6.067613037109375,0.10384089822471142,-0.06856659135101363,-0.02202266591154039
1761315184659595300,6.07759521484375,0.13004618358314038,-0.07448535040812566,-0.02327814586535096
1761315184669576200,6.087576171875,0.1469640006363392,-0.09410007839510216,-0.037473552217334505
1761315184679558100,6.09755810546875,0.12331541402339935,-0.11024585162987932,-0.04757898584194481
1761315184689539000,6.1075390625,0.039273441246151924,-0.11189506187532096,-0.04917524205744266
1761315184699521000,6.11752099609375,-0.06289338628649711,-0.10175499532874673,-0.0402251890130341
1761315184709503200,6.127503173828125,-0.12804302706718443,-0.09006649376377462,-0.05711202640607953
1761315184719484200,6.137484130859375,-0.15142974787354468,-0.0859719179265201,-0.03189655580259859
1761315184729466000,6.147466064453125,-0.14032909266650676,-0.05429037484778091,0.010972937174141406
1761315184739447000,6.157447021484375,-0.11939327214360236,-0.04951168920388445,0.04644786292016506
1761315184749429200,6.16742919921875,-0.07858195380568504,-0.05000692537492141,0.09297069077268243
1761315184759410200,6.17741015625,-0.024337737920880315,-0.06435675510363653,0.10990933141820132
1761315184769392000,6.18739208984375,-0.02882394342422485,-0.09670129213575274,0.11599975724779069
1761315184779373000,6.197373046875,-0.07872983784377574,-0.1389286147514358,0.11151150591783225
1761315184789355000,6.20735498046875,-0.12657587712407112,-0.15816336697749792,0.0785681444760412
1761315184799337200,6.217337158203125,-0.20383447337150573,-0.1587171101364307,0.05356529370993376
1761315184809318100,6.227318115234375,-0.25903788967728614,-0.12575617650533094,0.057363809210062025
1761315184819300000,6.237300048828125,-0.25339842248558997,-0.09797067275075241,0.057402533785253756
1761315184829281000,6.247281005859375,-0.18421031996905804,-0.08168068700600414,0.056584714596346015
1761315184839263200,6.25726318359375,-0.11806348484456539,-0.08505522320671006,0.06205583948381245
1761315184849244200,6.267244140625,-0.06036591363549232,-0.10380796406948939,0.0610962006714195
1761315184859226000,6.27722607421875,-0.010970306825637816,-0.11547677455330267,0.04954824008829892
1761315184869208000,6.2872080078125,0.023613515299558636,-0.11510430624540895,0.019696780247241256
1761315184879189000,6.29718896484375,0.0112280809789896,-0.11509460683530195,-0.0006645283233374357
1761315184889171200,6.307171142578125,-0.012659575086832046,-0.12382392980111762,-0.03108494715876877
1761315184899152100,6.317152099609375,-0.05160334598720073,-0.1493637004555203,-0.0496628794439137
1761315184909134000,6.327134033203125,-0.10993512344658374,-0.14331537846829742,-0.036583325379341836
1761315184919115000,6.337114990234375,-0.14121055167615412,-0.10724075152976438,-0.009947612714394927
1761315184929097200,6.34709716796875,-0.1330734224498272,-0.05712890447564423,0.01958141023926437
1761315184939079200,6.3570791015625,-0.14897826306819914,-0.042398112605325874,0.016345131731778383
1761315184949060000,6.36706005859375,-0.14157529333531857,-0.06838339853752404,0.009433452647179364
1761315184959042000,6.3770419921875,-0.10645897176861763,-0.07293949093930423,-0.001863967240974307
1761315184969023200,6.387023193359375,-0.04282265816032886,-0.08444711951203644,-0.01938610686287284
1761315184979005200,6.397005126953125,-0.001218143618106842,-0.09997304381541908,-0.039965953554958106
1761315184988986000,6.406986083984375,0.06718728408813476,-0.11445170582188292,-0.03379727485738694
1761315184998968000,6.416968017578125,0.11177929000854492,-0.09700243050679563,-0.04973338739685714
1761315185008950300,6.4269501953125,0.16243395696878432,-0.10362979449098929,-0.05380575140230357
1761315185018931200,6.43693115234375,0.17908581656217573,-0.12047772464575245,-0.045472515081986783
1761315185028913000,6.446912841796875,0.13775076661109922,-0.14375824513128027,-0.03469524661041796
1761315185038894000,6.45689404296875,0.0477139373332262,-0.15616547115854917,-0.02475632865913212
1761315185048876000,6.4668759765625,-0.029534137520194053,-0.14910313155688346,0.0024101298816502094
1761315185058857200,6.476857177734375,-0.0748451053649187,-0.12594642011411486,0.03104220399558544
1761315185068839200,6.486839111328125,-0.03736263918876648,-0.10946204430842771,0.08030198253132402
1761315185078821000,6.496821044921875,0.007904489514231682,-0.08788556952811777,0.1340570266596973
1761315185088802000,6.506802001953125,0.013610592201352118,-0.06519605547199026,0.1486363177627325
1761315185098784300,6.5167841796875,-0.04789338555335998,-0.04998222932508215,0.13191592297777532
1761315185108765200,6.52676513671875,-0.13658289187550543,-0.03124282286791131,0.11618461229540407
1761315185118747100,6.5367470703125,-0.3067144176095724,-0.013308924107346683,0.09285210589431225
1761315185128728000,6.54672802734375,-0.38763913514912124,-0.005426262832432985,0.0914171777203679
1761315185138710000,6.5567099609375,-0.3259375889956951,0.008745945307053625,0.05579933637231588
1761315185148692200,6.566692138671875,-0.19922376470565795,-0.008021905348822474,0.05549048961885273
1761315185158673200,6.576673095703125,-0.05383738864958286,-0.049138252781610936,0.07588146267533302
1761315185168655000,6.586655029296875,0.04242109162211418,-0.08933646245617419,0.056969695325940845
1761315185178636000,6.596635986328125,0.06021627603173255,-0.11119237523237242,0.022299290895834562
1761315185188618200,6.6066181640625,0.014540566527843475,-0.12005148032400756,-0.004813537761569023
1761315185198599200,6.61659912109375,-0.02823182274997234,-0.11451525431107729,-0.010728753154724836
1761315185208581000,6.6265810546875,-0.032470190972089766,-0.11099095264244824,-0.04472805339023471
1761315185218563000,6.63656298828125,0.014434768065810203,-0.10443541178544982,-0.07537643576264381
1761315185228544300,6.646544189453125,0.08315291498303413,-0.09473150816643611,-0.0758914726126939
1761315185238526200,6.656526123046875,0.11098609380424022,-0.09630867608897388,-0.05769099533781409
1761315185248507100,6.666507080078125,0.05765490111112594,-0.10462863280260935,-0.0532834080286324
1761315185258489000,6.676489013671875,-0.034276948133110996,-0.09337441273536533,-0.06727956548146903
1761315185268471300,6.68647119140625,-0.0705231505125761,-0.06229852566588669,-0.09033442398495972
1761315185278452200,6.6964521484375,-0.041869302958250046,-0.09273280862988903,-0.08927395514659583
1761315185288434000,6.706433837890625,0.004495557853579521,-0.1516736761646345,-0.07286087274514139
1761315185298415000,6.7164150390625,0.01932838532626629,-0.16163677870910614,-0.04972111243717372
1761315185308397000,6.72639697265625,-0.001679331389069557,-0.1273257456433028,-0.028749124622344968
1761315185318378200,6.736378173828125,-0.07457680981755256,-0.07258260379303247,-0.03564034544080496
1761315185328360200,6.746360107421875,-0.17117022113204,-0.052536133325286206,-0.030807226195931434
1761315185338342100,6.756342041015625,-0.18149755387902258,-0.04187854571063071,-0.009192848824337125
1761315185348323000,6.766322998046875,-0.13461013049781323,-0.05727519934484735,-0.009267375365272165
1761315185358305300,6.77630517578125,-0.1063292079091072,-0.0682093023459427,-0.00499437422119081
1761315185368286200,6.7862861328125,-0.06381225469708442,-0.06850180075280368,0.027319530210644004
1761315185378268200,6.79626806640625,-0.05317161821722984,-0.05318694365052506,0.047169382127746934
1761315185388249000,6.8062490234375,-0.049965515652298925,-0.06447444493286311,0.06489515456296503
1761315185398231000,6.81623095703125,-0.024088147073984146,-0.08795806850874796,0.07502280001938343
1761315185408213200,6.826213134765625,0.0005786766707897186,-0.11410641778185963,0.05175751363560557
1761315185418194200,6.836194091796875,-0.022525720062851903,-0.1357130867710337,0.047242008972540495
1761315185428176100,6.846176025390625,-0.07398936531841754,-0.10747658784594386,0.03327390857040882
1761315185438157000,6.856156982421875,-0.10770049626231193,-0.07390652760686352,0.018263824834674595
1761315185448139300,6.86613916015625,-0.1395212834149599,-0.06584801657469942,0.02402633388414979
1761315185458120200,6.8761201171875,-0.16745675356686116,-0.08592778652384876,0.046285877291485665
1761315185468102100,6.88610205078125,-0.11201192972064018,-0.0771390249883756,0.07017718661911786
1761315185478084000,6.896083984375,-0.06229366682767868,-0.0598351312270388,0.07184314706996082
1761315185488065300,6.906065185546875,-0.03860591724812984,-0.07725963742705061,0.08922682806923984
1761315185498047200,6.916047119140625,-0.056232759353518486,-0.09488452503737062,0.07870704149007797
1761315185508028000,6.92602783203125,-0.08869827415049075,-0.08221198087111115,0.05791055637262761
1761315185518010000,6.936010009765625,-0.08966799596548079,-0.07397268817825242,0.030556247109547255
1761315185527991000,6.945990966796875,-0.08457739482820034,-0.0746206672255881,0.04837495852522552
1761315185537973200,6.95597314453125,-0.07214929040968418,-0.08503467360902577,0.061732452748343346
1761315185547955000,6.965954833984375,-0.04522095147371292,-0.08747815777100622,0.035948899933323265
1761315185557936000,6.97593603515625,-0.05580722741782665,-0.07327403838960453,0.008027604437246918
1761315185567918000,6.98591796875,-0.07035948438346386,-0.07343898316035047,-0.010686375317722558
1761315185577899300,6.995899169921875,-0.07516717692613602,-0.07560182375004515,-0.03790112997964024
1761315185587881200,7.005881103515625,-0.09169336431324482,-0.08067815889995544,-0.05370411765873432
1761315185597862100,7.015862060546875,-0.07572831794023513,-0.08685235402286053,-0.060469154814258214
1761315185607844000,7.025843994140625,-0.05746025532186031,-0.08965716404421255,-0.05885309791974723
1761315185617826300,7.035826416015625,-0.04854278937280178,-0.10625946714114397,-0.05741276291832328
1761315185627807200,7.04580712890625,-0.050985506349802014,-0.09770645059030503,-0.05179134283997118
1761315185637789000,7.055788818359375,-0.0435877973139286,-0.08049472862444818,-0.08281104274280368
1761315185647770000,7.06577001953125,-0.007500000366568565,-0.07948202618425712,-0.08745528835207224
1761315185657752000,7.075751953125,0.04390928435325622,-0.11839649792490527,-0.08443952072747052
1761315185667733200,7.085733154296875,0.07371464003026484,-0.1504408099014312,-0.10861739191152155
1761315185677715200,7.095715087890625,0.09582359598577021,-0.17041602349756285,-0.09902122298330068
1761315185687697200,7.105697265625,0.11210019252598286,-0.1856584912170656,-0.066390946078673
1761315185697678300,7.11567822265625,0.10523322936594486,-0.16251098599405958,-0.02860182510614395
1761315185707660300,7.125660400390625,0.07043488770723343,-0.1090684053483419,0.01654014284722507
1761315185717641500,7.135641357421875,0.002327566164731979,-0.050266380028706044,0.039292438207566734
1761315185727623200,7.145623046875,-0.10749065290391445,-0.007984313284792006,0.02992174859829247
1761315185737604000,7.15560400390625,-0.17393559419214724,-0.02052634467286989,0.023068010246008634
1761315185747586300,7.16558642578125,-0.18338497506082058,-0.06483763395575806,0.01046374554298818
1761315185757568300,7.175568359375,-0.17200024221539498,-0.11365867401435971,-0.008180895302817225
1761315185767549200,7.185549072265625,-0.156017075663805,-0.15034268328920006,0.013648439993709325
1761315185777531100,7.19553125,-0.12131167298555373,-0.15091542340954764,0.038788872599601745
1761315185787512300,7.20551220703125,-0.1017372039437294,-0.11360873392540961,0.0722594727858901
1761315185797494300,7.215494384765625,-0.09662556001842021,-0.07745667610280216,0.10944317521117627
1761315185807476200,7.225476318359375,-0.13040391097962856,-0.07095768773863091,0.1250358811404556
1761315185817457200,7.23545703125,-0.11854805349111557,-0.09267905088234692,0.13134652559198437
1761315185827439400,7.245439453125,-0.14276011920571327,-0.11592577869612723,0.12284596988074481
1761315185837420300,7.255420166015625,-0.14053484437167643,-0.12285819004150107,0.10860139062479138
1761315185847402200,7.26540234375,-0.1517956585764885,-0.11656239609923214,0.08322276534885167
1761315185857383200,7.275383056640625,-0.17149989147782324,-0.11115030792262405,0.04569426807388663
1761315185867365400,7.285365478515625,-0.15725860015749932,-0.09690346364434808,0.027661183255165814
1761315185877347300,7.295347412109375,-0.15136135881245136,-0.10219037280501797,0.03137976538687944
1761315185887328300,7.305328369140625,-0.15029226827621459,-0.11614555892664938,0.049152737964689726
1761315185897310200,7.315310302734375,-0.12440730091333388,-0.1147367881072685,0.06699190764650702
1761315185907291100,7.325291015625,-0.06344400590658188,-0.10633706242199986,0.07730703849904239
1761315185917273300,7.3352734375,0.01373684892952442,-0.10698809194294735,0.05361731615811586
1761315185927254300,7.345254150390625,0.07652034510076046,-0.10551807418931275,0.03795432147160172
1761315185937236200,7.355236328125,0.13722002073526382,-0.09461020160801709,0.02051372265331447
1761315185947218200,7.36521826171875,0.18881401437222955,-0.08678297858107835,0.023835195226222277
1761315185957199400,7.375199462890625,0.1633235992848873,-0.07818754766061901,0.030396745698899028
1761315185967181300,7.385181396484375,0.08317629585862159,-0.08034843375524506,0.03740888948328793
1761315185977162200,7.395162353515625,-0.06265899300873279,-0.08813276748852804,0.046261911894008516
1761315185987144200,7.405144287109375,-0.19439093772172927,-0.10482472163029015,0.020801161292567847
1761315185997125000,7.415125,-0.2456938394576311,-0.10980751501154154,0.003562807048112154
1761315186007107300,7.425107421875,-0.2433879006028175,-0.10019127140967175,0.010053995698317884
1761315186017089300,7.43508935546875,-0.1968389153957367,-0.0944641624671407,0.017164558355882764
1761315186027070200,7.4450703125,-0.1428676712334156,-0.0617274477796629,0.05253850794546306
1761315186037052200,7.45505224609375,-0.10935118607878684,-0.05558976700855419,0.05855236140750348
1761315186047033300,7.465033447265625,-0.06497077708244324,-0.06971472020652145,0.024292291343957183
1761315186057015300,7.475015380859375,-0.0037871173232793807,-0.10754802738064899,0.004393851044774055
1761315186066996200,7.484996337890625,0.035523733323812486,-0.15662258554259315,-0.0404709074024111
1761315186076978200,7.494978271484375,0.023081600379943848,-0.19621988844824953,-0.09222191823199391
1761315186086960400,7.50496044921875,0.01163023203909397,-0.18926314637921748,-0.10243884940706192
1761315186096941300,7.51494140625,-0.009211480459570884,-0.16665628737155347,-0.1026661553569138
1761315186106923300,7.52492333984375,-0.07422025146484375,-0.13518405792824922,-0.05692929025031626
1761315186116904200,7.534904296875,-0.14475158528387547,-0.09186819115718826,-0.025944150204211473
1761315186126886400,7.544886474609375,-0.18301555722653864,-0.037228345284610984,-0.014829831798002123
1761315186136868400,7.554868408203125,-0.20509762517511843,-0.00635481238681823,-0.03346570481546223
1761315186146849300,7.564849365234375,-0.22384207313358784,-0.022351057615689934,-0.08012976776957512
1761315186156831200,7.574831298828125,-0.17859481817483902,-0.06154673918420449,-0.09041698770187795
1761315186166812200,7.584812255859375,-0.10613865377306937,-0.08986171017298475,-0.08281542665697633
1761315186176794400,7.59479443359375,-0.035842882275581356,-0.08719981575366109,-0.07403378898203372
1761315186186775300,7.604775390625,0.04532324280440807,-0.05703733546836302,-0.10035656324028969
1761315186196757200,7.61475732421875,0.07170096212029457,-0.050597128086723384,-0.12464951217137277
1761315186206739200,7.6247392578125,0.039302082818746566,-0.07077858657836913,-0.12099975749216973
1761315186216720400,7.634720458984375,0.0022504092752933503,-0.09152270218776538,-0.12103979724161326
1761315186226702300,7.644702392578125,-0.05897592058181762,-0.07533237742520868,-0.10430245132185519
1761315186236683300,7.654683349609375,-0.060489832276105875,-0.048433154985867435,-0.09449980003610253
1761315186246665200,7.664665283203125,-0.04210954145491123,-0.03857533944677561,-0.07926160663291812
1761315186256646100,7.674646240234375,-0.043941433057188985,-0.033621680828463285,-0.034731925358995795
1761315186266628400,7.68462841796875,-0.0785790311962366,-0.038408933371305465,-0.023994112114980815
1761315186276610000,7.694610107421875,-0.09162146812081337,-0.03155943280272186,-0.029452596716582773
1761315186286591200,7.70459130859375,-0.038541619840264316,-0.03536174769513309,-0.03832191267497837
1761315186296573200,7.7145732421875,0.04825286651551723,-0.06261100741485133,-0.016588438968360424
1761315186306554400,7.724554443359375,0.11790800202190875,-0.10790591917391866,0.008417115211486815
1761315186316536000,7.7345361328125,0.1166863512724638,-0.1338832592616789,0.027936346934735772
1761315186326517200,7.744517333984375,0.0679828183799982,-0.10698674023607745,0.009311360637471079
1761315186336499200,7.754499267578125,-0.009212064981460572,-0.0742688946458511,-0.022206498045846818
1761315186346481400,7.7644814453125,-0.12136427995562553,-0.0597187200394459,-0.010060936895757914
1761315186356462300,7.77446240234375,-0.21165537625551223,-0.016362155931815503,0.035398499508947134
1761315186366444300,7.7844443359375,-0.23899580312371252,0.03584912935327738,0.07461341550089419
1761315186376425200,7.79442529296875,-0.21260054815113544,0.03289157645562663,0.09906535438597201
1761315186386407200,7.8044072265625,-0.14560089558959005,-0.012127039112709462,0.10719510402344166
1761315186396388400,7.814388427734375,-0.04574176047742366,-0.051433085720520466,0.09167984724454581
1761315186406370000,7.8243701171875,-0.02411445055902004,-0.08480867370027118,0.07721972554177045
1761315186416352300,7.834352294921875,-0.0963210241138935,-0.09850037744697183,0.06375109909437597
1761315186426333200,7.844333251953125,-0.11920973227024077,-0.0642547469007317,0.03267396991588175
1761315186436315400,7.8543154296875,-0.05249006569385528,-0.0279377077747602,-0.0019035685990005731
1761315186446296300,7.86429638671875,0.042350364473462104,-0.06459952348410151,-0.009434987017139792
1761315186456278300,7.8742783203125,0.11454349402487277,-0.12931487363390623,0.02025551010854542
1761315186466260200,7.88426025390625,0.13111819672882555,-0.14611350302053613,0.03041099341996014
1761315186476241400,7.894241455078125,0.08679857800900935,-0.12892467787307688,-0.0000713116705417633
1761315186486223000,7.90422314453125,-0.041404023534059524,-0.11389404453965835,-0.024728052412718533
1761315186496204000,7.9142041015625,-0.1501005450963974,-0.1525068573194556,-0.04196194967776537
1761315186506186200,7.924186279296875,-0.16732874327301978,-0.1436532777863089,-0.034670185234397646
1761315186516167200,7.934167236328125,-0.09115501965284346,-0.0929556758666411,-0.06056713529601693
1761315186526149400,7.9441494140625,-0.027819150295853613,-0.1250976121318992,-0.06797426974736154
1761315186536131000,7.954131103515625,-0.03444645948112011,-0.16097701789243146,0.017549027628824113
1761315186546112300,7.9641123046875,-0.06449380722045898,-0.13837494465773925,0.09139306619241833
1761315186556094200,7.97409423828125,-0.0736906746327877,-0.10861814996334723,0.10734912554137407
1761315186566075400,7.984075439453125,-0.08353811490833758,-0.11796167757106013,0.06048216042630374
1761315186576057000,7.99405712890625,-0.07658931868374347,-0.16748042670339344,-0.006224062146618962
1761315186586038300,8.004038330078124,-0.11094634631574153,-0.16958251354917883,0.039693274093419315
1761315186596020200,8.014020263671876,-0.15837912862002848,-0.1594161435175687,0.05006970667913556
1761315186606002400,8.02400244140625,-0.1913619452893734,-0.14922294941111466,0.05015870013684034
1761315186615983400,8.0339833984375,-0.23399171122610568,-0.12306759500848129,0.07114303597658872
1761315186625965300,8.04396533203125,-0.2650035200834274,-0.08903790876786224,0.11055771232433617
1761315186635946200,8.0539462890625,-0.2690349675565958,-0.058952119581121946,0.13087510868795216
1761315186645928200,8.06392822265625,-0.22230536508560178,-0.039703064835071564,0.1160525103483349
1761315186655910100,8.07391015625,-0.15629881521463393,-0.0637835857250262,0.08374437807016075
1761315186665890800,8.083890869140625,-0.06724807436466217,-0.06851313499757088,0.07290376203879713
1761315186675872800,8.093872802734374,0.03961480202972889,-0.0752589103301987,0.06174180509857833
1761315186685853700,8.103853759765625,0.11604279267191886,-0.10605876607042737,0.05572101043909788
1761315186695836000,8.1138359375,0.09901625454723835,-0.12334202803568914,0.03901099091768265
1761315186705816800,8.12381689453125,0.05992459960877895,-0.13360269788778387,-0.0020350860241800544
1761315186715798800,8.133798828125,0.04433423176705837,-0.19503537310510874,-0.09444076332524418
1761315186725780700,8.14378076171875,-0.012950082466006279,-0.19950510239768773,-0.11883943765312432
1761315186735761700,8.15376171875,-0.09494973576068877,-0.13080820833104662,-0.04948233524523675
1761315186745744000,8.163743896484375,-0.1419967336177826,-0.08194381318790837,-0.03569974747784436
1761315186755724500,8.173724609375,-0.13718962559700013,-0.022744239918049424,0.015002411885932087
1761315186765706800,8.183706787109376,-0.12804127350151537,-0.0077150952888187015,0.07767068417966365
1761315186775688700,8.193688720703125,-0.12200082429349422,0.0007835424599703401,0.1206154343497008
1761315186785670000,8.203669921875,-0.1133311956256628,0.017842813810473306,0.13334471367187797
1761315186795651600,8.213651611328125,-0.09185761496424674,0.022173289895989,0.07679514345414937
1761315186805632800,8.2236328125,-0.08098316972851753,0.013300238477392121,0.031134777649864553
1761315186815614700,8.23361474609375,-0.05813830071389675,-0.03391092783231288,-0.0035036972720175977
1761315186825596000,8.243595947265625,-0.0455570515602827,-0.07208364129494875,-0.03356748468950391
1761315186835577600,8.25357763671875,-0.03993921167850494,-0.07734321492412127,-0.07738236875757575
1761315186845559800,8.263559814453124,-0.039753918239474294,-0.0662103105484508,-0.09852291807234287
1761315186855540700,8.273540771484376,-0.0012046996146440505,-0.052631949249422175,-0.09257131619155406
1761315186865523000,8.28352294921875,-0.0009703063368797302,-0.05976199292559176,-0.07352642398178577
1761315186875503900,8.29350390625,-0.05738192938864231,-0.06321944903624244,-0.0869183319311589
1761315186885485600,8.303485595703124,-0.12172083830833434,-0.06292974537466653,-0.13224055182226002
1761315186895466800,8.313466796875,-0.1758323677241802,-0.07598544363961554,-0.11896847086027264
1761315186905448700,8.32344873046875,-0.20520576172471044,-0.07915754347024485,-0.06440934380739927
1761315186915431000,8.333430908203125,-0.12182488320469856,-0.06898425050750374,-0.023600144361332058
1761315186925411600,8.34341162109375,0.019907646518945693,-0.0681547134813387,0.002904562335088849
1761315186935393800,8.353393798828124,0.16501169850230216,-0.09460803705039433,0.0037891631498932835
1761315186945374700,8.363374755859375,0.2091729117900133,-0.14550251324903218,0.0014641542684286832
1761315186955357000,8.37335693359375,0.13211305298507212,-0.17649128829063845,-0.031459187298640605
1761315186965337900,8.383337890625,0.004375730866193771,-0.13563776564565486,-0.06246712369844317
1761315186975319800,8.39331982421875,-0.1056277816414833,-0.07981766961310058,-0.08322356906645
1761315186985301800,8.4033017578125,-0.17963292905092237,-0.03789680086439475,-0.06424312039501964
1761315186995282700,8.41328271484375,-0.2288181079804897,-0.0327781335432548,-0.024585429071635006
1761315187005264600,8.4232646484375,-0.23549276343882083,-0.05552504947558045,0.014327069907635449
1761315187015245600,8.43324560546875,-0.2013829885661602,-0.06611970052239485,0.03754252580031752
1761315187025227800,8.443227783203126,-0.13097849599719047,-0.051304079912835726,0.0372089099317789
1761315187035209700,8.453209716796875,-0.04271569065451622,-0.06318809491675347,0.031626945080980656
1761315187045191000,8.46319091796875,0.019768530309200286,-0.09115667275381274,0.015665478904545307
1761315187055172600,8.473172607421875,0.04110299476087093,-0.09171511035417206,-0.012522943095117806
1761315187065153800,8.48315380859375,-0.018883564168214798,-0.08838701624423265,-0.05474113255627453
1761315187075135700,8.4931357421875,-0.08333411676883697,-0.0903803363527637,-0.10914864924401044
1761315187085117000,8.503116943359375,-0.11754384488463401,-0.10789794593001716,-0.1095271271675825
1761315187095098600,8.5130986328125,-0.1207639759749174,-0.10200222068862058,-0.06677212741598486
1761315187105080800,8.523080810546874,-0.0380979677259922,-0.06309536599884741,-0.01581606635637581
1761315187115061800,8.533061767578126,0.03045885114967823,-0.02088757006754167,0.032697496921941634
1761315187125044000,8.5430439453125,0.04885901571512222,0.00011824695165269077,0.04549889163225889
1761315187135025000,8.55302490234375,-0.03299859876036644,-0.022390110984444617,0.030791371039673686
1761315187145006600,8.563006591796874,-0.11215104593038558,-0.033711605867929754,0.013849223262816667
1761315187154988800,8.57298876953125,-0.07321078216135501,-0.036971256117848676,0.0423564288880676
1761315187164969700,8.5829697265625,0.002208323699235916,-0.057259307655971495,0.08937420065067708
1761315187174951700,8.59295166015625,0.049776130560040474,-0.04469511010185815,0.11172602545134723
1761315187184932600,8.6029326171875,0.05370528670251369,-0.031799707832001145,0.07155607375688851
1761315187194914800,8.612914794921876,0.03965396499633789,-0.04748225660235621,0.0006570026040077209
1761315187204895700,8.622895751953125,-0.01293254680931568,-0.08574528783010318,-0.06792283182106912
1761315187214878000,8.6328779296875,-0.1288859076321125,-0.11204745769174769,-0.08347732463181018
1761315187224859600,8.642859619140625,-0.23305530715882777,-0.10342572328625246,-0.05985029226355254
1761315187234840800,8.6528408203125,-0.26676176192760465,-0.05518648800386581,-0.03232829828336835
1761315187244822800,8.66282275390625,-0.25628362253308296,-0.02912129153613932,-0.05132072965353727
1761315187254803700,8.6728037109375,-0.18728724319636822,-0.041897830366413105,-0.08521525434032082
1761315187264785700,8.68278564453125,-0.21576690322756767,-0.028572818207368254,-0.09543357375487685
1761315187274766600,8.6927666015625,0.13750292932987213,-0.13854717768579722,0.1272056994602084
1761315187284748800,8.702748779296876,0.23679624725282192,-0.17975576997930182,0.41516894710958
1761315187294730800,8.712730712890625,0.16049217525124548,-0.02237112315618433,0.19166538521535695
1761315187304712000,8.7227119140625,0.05796937388777733,0.046752928547654296,-0.002195537282899022
1761315187314693600,8.732693603515624,0.01991290721595287,-0.08216338335587643,0.004660466091707349
1761315187324674800,8.7426748046875,0.018836217895150182,-0.15270374073158016,-0.006995777171477675
1761315187334656800,8.75265673828125,-0.02736146965622902,-0.16164766542930156,-0.08261771212778984
