time,seconds_elapsed,z,y,x
1761315477392337000,0.0813369140625,0.06909925518929957,-0.13933109460510312,-0.0023472937785089013
1761315477402318600,0.091318603515625,0.087463179397583,-0.18519333965703844,-0.15310221113041042
1761315477412300800,0.10130078125,0.15916238795220852,-0.18690547733716664,-0.18720760208889842
1761315477422282800,0.11128271484375,0.26868250085711476,-0.10190876111835241,-0.1619315604045987
1761315477432265700,0.121265625,0.4336708184838295,0.005197276382148266,-0.10834142451435327
1761315477442247700,0.13124755859375,0.6317547655045985,0.08284099948965012,-0.03218289846330881
1761315477452229600,0.141229736328125,0.8067220408320427,0.10123663401044905,0.02844181223884225
1761315477462211800,0.1512119140625,0.917170959019661,0.056818158026039595,0.062057154658064245
1761315477472193800,0.16119384765625,0.9392366603553295,-0.019144333996251223,0.09345240987502038
1761315477482176800,0.1711767578125,0.9444114326447248,-0.07648812333159148,0.07984349817410111
1761315477492158700,0.18115869140625,0.9441419680535793,-0.1679262707747519,0.08001505534872412
1761315477502140700,0.191140625,0.8755582611709832,-0.24396716179549693,0.15031864482648669
1761315477512122600,0.20112255859375,0.7238426820933819,-0.29222945372648534,0.1869423022162169
1761315477522104800,0.211104736328125,0.49790743607282634,-0.3267795927777886,0.15726166889742016
1761315477532087800,0.221087890625,0.23767945982813835,-0.3611144085779786,0.060793491397798056
1761315477542069800,0.23106982421875,0.055876785522699354,-0.4154094048019498,0.009192921889573335
1761315477552051700,0.2410517578125,-0.058200844556093215,-0.4665645686302334,0.06607793460674584
1761315477562033700,0.25103369140625,-0.10922317578494548,-0.49380701501667496,0.18533135988824068
1761315477572015900,0.261015869140625,-0.1808914046794176,-0.4883139705583453,0.27643033850491044
1761315477581998800,0.270998779296875,-0.3312877178519964,-0.4901357060927897,0.3369078227560967
1761315477591980800,0.280980712890625,-0.5577636466205119,-0.4968601189769804,0.34059279487915334
1761315477601962800,0.290962646484375,-0.7892372375458478,-0.49774333155229683,0.2970094545446336
1761315477611944700,0.30094482421875,-0.9254559722840785,-0.43109263855889435,0.27705490014404055
1761315477621927000,0.310927001953125,-0.9622323360174894,-0.31127507658861575,0.2583775260724127
1761315477631910000,0.320909912109375,-0.8889356291383504,-0.24399697241187093,0.2808890714794397
1761315477641891800,0.330891845703125,-0.8229933766752481,-0.26387583122774955,0.3495886598266661
1761315477651873800,0.340873779296875,-0.7702712557911873,-0.2504187490876764,0.3956304992292076
1761315477661855700,0.350855712890625,-0.6360013170331716,-0.19147629238404332,0.4597396179810166
1761315477671837700,0.360837646484375,-0.44667350791990756,-0.09141966193839907,0.49585108806490896
1761315477681820700,0.370820556640625,-0.2820347343832254,-0.03039177726283669,0.4490988353706896
1761315477691802600,0.380802734375,-0.1334907710790634,-0.0421653632953763,0.32614692089743913
1761315477701784600,0.39078466796875,0.13431611598730087,-0.049221857678145166,0.26544125391356643
1761315477711766800,0.400766845703125,0.47446693925261496,-0.019027064292132852,0.2753362596578896
1761315477721748700,0.410748779296875,0.764385704883933,-0.020459581313282252,0.3294004428006708
1761315477731730700,0.420730712890625,0.9613315877854823,-0.04217566549368203,0.2837646999809891
1761315477741713700,0.430713623046875,1.0440040257751941,-0.04735832882858813,0.11514569770172238
1761315477751695600,0.440695556640625,1.0023486578285694,-0.1497164411496371,-0.14344327916428445
1761315477761677800,0.450677734375,0.9882043971419334,-0.3444676635511219,-0.2940354802351445
1761315477771659500,0.460659423828125,1.0128244591355324,-0.4577320044856518,-0.2994214841224253
1761315477781641700,0.470641845703125,1.0118915621995925,-0.47201107053309677,-0.2983409223441034
1761315477791624700,0.480624755859375,1.034755720436573,-0.4505509338751435,-0.4108456040177494
1761315477801606700,0.490606689453125,1.0813877077519893,-0.47023478157557547,-0.48072658416926856
1761315477811588900,0.5005888671875,1.1057757145553826,-0.44546931976191695,-0.3611854279875755
1761315477821570600,0.510570556640625,1.1179682566523552,-0.33265308792106807,-0.1843438832208514
1761315477831552800,0.520552734375,1.1452075612336396,-0.2001617762081325,-0.073193100374192
1761315477841535700,0.53053564453125,1.0703858367443084,-0.15666998661458492,-0.013089052545279263
1761315477851517700,0.540517578125,0.8652811973065138,-0.26658209451176224,0.01625876862257719
1761315477861500000,0.5505,0.6398503936767578,-0.41546084272824224,0.029910277356207368
1761315477871481600,0.560481689453125,0.4030962319999933,-0.4739481030102819,0.05348017270974815
1761315477881463800,0.5704638671875,0.13262392511665821,-0.4437339473366737,0.10803637715317309
1761315477891446800,0.58044677734375,-0.26281799273788925,-0.39024354549385604,0.16750797229744493
1761315477901428700,0.5904287109375,-0.7318482938945293,-0.3388205975748598,0.263996242737025
1761315477911410700,0.60041064453125,-1.1903262213766574,-0.2522618196710944,0.43259193720594047
1761315477921391900,0.610391845703125,-1.555575245541334,-0.13444836406484245,0.5397543810687959
1761315477931373800,0.620373779296875,-1.7444173169642685,-0.023823504788428543,0.560238512301445
1761315477941356800,0.630356689453125,-1.7289730795949696,0.05522460522428155,0.5551981800466775
1761315477951338800,0.6403388671875,-1.618562155330181,0.06069514558985829,0.49651532412730154
1761315477961321000,0.650321044921875,-1.3056968138754368,0.03583769464381039,0.376785805766657
1761315477971302700,0.660302734375,-0.9136223266273736,-0.022398002029955386,0.26002785056270655
1761315477981284900,0.670284912109375,-0.6220902805805206,-0.1419921305079013,0.1897680271614343
1761315477991267000,0.68026708984375,-0.40379999635517594,-0.2602939541529864,0.14705818172581492
1761315478001249800,0.690249755859375,-0.2918833437025547,-0.33214199659377336,0.08474113402254879
1761315478011232000,0.70023193359375,-0.27570319327414033,-0.41202619210444386,0.0588812280356884
1761315478021213700,0.710213623046875,-0.261244459810853,-0.44077802014052864,0.10415931652411818
1761315478031196000,0.72019580078125,-0.2433399698078632,-0.41181254935376344,0.1358176796566695
1761315478041177900,0.730177734375,-0.19575871894359587,-0.35512956201471385,0.21065350573658942
1761315478051160800,0.740160888671875,-0.18051088092923162,-0.2658079683341086,0.27579255205802616
1761315478061143000,0.75014306640625,-0.2183925755560398,-0.2022795720797032,0.2930678042467683
1761315478071124700,0.760124755859375,-0.21287176630795002,-0.1531573753837496,0.30851766763925553
1761315478081107000,0.77010693359375,-0.16519816098511217,-0.1167039599943906,0.31182248133830726
1761315478091089000,0.7800888671875,-0.09532558333575725,-0.10383892546333372,0.34397746888138353
1761315478101072000,0.79007177734375,-0.07665244704782963,-0.10078567537255585,0.33810441212952136
1761315478111053800,0.8000537109375,-0.16450608706772327,-0.12425612893961369,0.3082487145047635
1761315478121035800,0.810035888671875,-0.38595863471627234,-0.10714183946624398,0.28714710896089674
1761315478131018000,0.82001806640625,-0.5754372504770755,-0.06172898214962333,0.24151947638243434
1761315478140999700,0.829999755859375,-0.6808668791979551,-0.01206168225891888,0.19875505121536552
1761315478150983000,0.83998291015625,-0.6848410435259342,-0.01501728066150099,0.15828487446531653
1761315478160964900,0.84996484375,-0.5441314271092415,-0.06779343328773975,0.19237156072333453
1761315478170946800,0.85994677734375,-0.3572457504510879,-0.11773538540136068,0.2627529646776616
1761315478180929000,0.869928955078125,-0.16490648456215856,-0.14224482662733642,0.2524032009031624
1761315478190910700,0.87991064453125,-0.04958966807723045,-0.13448617532458157,0.20986673927307128
1761315478200894000,0.88989404296875,0.022388941940665243,-0.12320808119140565,0.21545038462430238
1761315478210875600,0.899875732421875,0.08786123880445956,-0.11336195609010756,0.2209519046500325
1761315478220857900,0.90985791015625,0.09782558345794677,-0.1292653719363734,0.19075871869921684
1761315478230840000,0.919840087890625,0.0442500606149435,-0.18369908251129088,0.10716463581994175
1761315478240821800,0.92982177734375,-0.023425883772969246,-0.2882286571199074,0.010535057213529944
1761315478250805000,0.939804931640625,-0.12829963217675686,-0.3792896783463657,-0.0224736976146698
1761315478260786700,0.94978662109375,-0.24861177273094653,-0.37588114854451266,-0.01965447547547519
1761315478270769000,0.959768798828125,-0.32717209922671314,-0.2959684575917199,0.03269756998717785
1761315478280750800,0.969750732421875,-0.39746085646152496,-0.20463574328441173,0.08537022570632398
1761315478290732800,0.97973291015625,-0.43300972422659395,-0.15421678477618841,0.11006364519707858
1761315478300716000,0.989716064453125,-0.40963001768290996,-0.1376829255392775,0.07645027553923428
1761315478310697700,0.99969775390625,-0.3282160553216934,-0.15742708859220148,0.028381606484204527
1761315478320680000,1.009679931640625,-0.21666063719689846,-0.1743897677004337,0.023819193939492105
1761315478330662000,1.019661865234375,-0.09290507819056511,-0.22228618546109646,0.05999846856258809
1761315478340643800,1.029643798828125,0.009862053322792053,-0.2397070566656068,0.14584464121758936
1761315478350625800,1.039625732421875,0.07742401594221592,-0.23152944929841904,0.20797654161229728
1761315478360608800,1.04960888671875,0.09242577024102211,-0.21508483924753963,0.22738865969926117
1761315478370591000,1.059591064453125,0.09915361719131469,-0.23540870188456028,0.235533022383973
1761315478380572700,1.06957275390625,0.07335983524322509,-0.2284392647307366,0.21198687323220072
1761315478390555000,1.079554931640625,-0.009889525851607323,-0.25204755586590616,0.1717987282939255
1761315478400536800,1.089536865234375,-0.11593874777555466,-0.2688265489703044,0.14974405980892477
1761315478410519800,1.099519775390625,-0.24236148016452788,-0.26519794667698443,0.16285532418601215
1761315478420502000,1.109501953125,-0.3704273035854101,-0.21644206254277376,0.2000774589255452
1761315478430483700,1.119483642578125,-0.4233294572114944,-0.15448566484544426,0.21978213021829723
1761315478440466000,1.1294658203125,-0.4448106366574764,-0.10765925093647091,0.20019027165025471
1761315478450448000,1.13944775390625,-0.4620896882385015,-0.09528386308588087,0.17066877441592512
1761315478460430800,1.149430908203125,-0.43156244802773,-0.13870218558441846,0.1557449807241559
1761315478470413000,1.1594130859375,-0.3651876493662595,-0.188633945097588,0.15238719472885132
1761315478480394800,1.169394775390625,-0.2913461680859327,-0.21943218426946548,0.1509127382621169
1761315478490377000,1.179376953125,-0.22339725197553634,-0.195714404877834,0.1623373647265136
1761315478500359000,1.18935888671875,-0.19606033223867414,-0.19118498128727077,0.15151362676471472
1761315478510342000,1.199341796875,-0.1928951462060213,-0.21415132125709205,0.14734313614703715
1761315478520323800,1.20932373046875,-0.21003741966485975,-0.22796361004300414,0.1281090049754828
1761315478530305800,1.219305908203125,-0.20675825186371802,-0.21773053145073354,0.09429251396097242
1761315478540288000,1.2292880859375,-0.17911738074421882,-0.17725889339596032,0.0738202192965895
1761315478550270000,1.23927001953125,-0.13773556904196738,-0.1506859803015366,0.0502894138444215
1761315478560252000,1.249251953125,-0.12359130835533141,-0.1655418598562479,0.0502873680178076
1761315478570235000,1.25923486328125,-0.10490063641071319,-0.18726791744139043,0.07916727941296994
1761315478580216800,1.269216796875,-0.0035310967355966566,-0.16754980214517562,0.09183825267665087
1761315478590198800,1.27919873046875,0.1855664107531309,-0.12543715541772543,0.07177329670414329
1761315478600181000,1.289180908203125,0.33294483740925784,-0.14259860850106923,0.07491860899254679
1761315478610163000,1.299162841796875,0.3952279828429222,-0.2170079893298447,0.08196575102508068
1761315478620146000,1.30914599609375,0.3241775935858488,-0.28846860335562374,0.06856836318299174
1761315478630127900,1.3191279296875,0.21004092679619787,-0.306440496039018,0.0397384284093976
1761315478640109800,1.32910986328125,0.1391162097454071,-0.27770934546478093,0.009130085786432027
1761315478650091800,1.339091796875,0.1075017588198185,-0.26123616690654305,-0.022624431196972727
1761315478660073700,1.34907373046875,0.10663725094497203,-0.28344854670390485,-0.03427979767732322
1761315478670056700,1.359056640625,0.1300181265324354,-0.3189931036200374,-0.02389766600318253
1761315478680039000,1.369038818359375,0.11438625763654708,-0.3351213777307421,-0.01856068888939917
1761315478690020900,1.379020751953125,0.0885088890582323,-0.3269347468068823,-0.010489026114717125
1761315478700002800,1.3890029296875,0.04422258808612823,-0.2982265021841973,-0.010984408416226506
1761315478709984800,1.39898486328125,-0.05550678316652775,-0.25967271698210387,0.014272928567603229
1761315478719967700,1.4089677734375,-0.16966799987554548,-0.2435242403335869,0.03109196142144501
1761315478729950000,1.418949951171875,-0.28800211835503575,-0.23128351171333342,0.07926745185181498
1761315478739932000,1.428931884765625,-0.36842648515701293,-0.18472345712296664,0.12872282602488994
1761315478749913900,1.438913818359375,-0.4037269311189651,-0.1562047071903944,0.16672653959617018
1761315478759895800,1.448895751953125,-0.3861865982532501,-0.1749202943805605,0.18620653528757392
1761315478769878800,1.458878662109375,-0.33158699305951594,-0.18913791256435214,0.18977365318462253
1761315478779861000,1.468861083984375,-0.30354455540180203,-0.2608474233172834,0.1445331932928413
1761315478789843000,1.478843017578125,-0.2799585126310587,-0.31875410723239184,0.08920739271640778
1761315478799825000,1.488824951171875,-0.2492266897588968,-0.32259244328625497,0.04172470685578882
1761315478809806800,1.498806884765625,-0.17872516655623913,-0.29742424589060246,0.02820259665548801
1761315478819789000,1.5087890625,-0.11847907990813254,-0.28725451485812664,0.034928982301056385
1761315478829771800,1.518771728515625,-0.06466916378736495,-0.3018381898753345,0.06486132535859943
1761315478839754000,1.52875390625,-0.07702946366667747,-0.30951705394014717,0.05833221585080027
1761315478849735700,1.538735595703125,-0.13860416857004165,-0.30722174607720226,0.012044950319826601
1761315478859718000,1.5487177734375,-0.1251519818007946,-0.30493396393358707,-0.04325812696814537
1761315478869699800,1.558699951171875,-0.06332067178785801,-0.3134575717268511,-0.07291282212808728
1761315478879682800,1.568682861328125,0.02061199539601803,-0.3140670088620856,-0.05233144106604159
1761315478889664800,1.578664794921875,0.08281038515567779,-0.3016794556496665,-0.0016975246328860521
1761315478899646700,1.588646728515625,0.03321487185955047,-0.31070929593201724,0.025985139801725742
1761315478909629000,1.59862890625,-0.052798693251609796,-0.32586510828137394,0.009776932322606444
1761315478919610600,1.608610595703125,-0.06746727007329463,-0.3315238281628117,-0.02480864336825907
1761315478929594600,1.6185947265625,-0.03447802366316318,-0.32556868261806665,-0.032585487914830444
1761315478939576300,1.628576416015625,0.07996142546534538,-0.2921489723687991,-0.02709887319728732
1761315478949558500,1.63855859375,0.18042729429900645,-0.29319223434403535,0.05087035553753376
1761315478959540500,1.64854052734375,0.24872926163077352,-0.3190633558446541,0.09448255664035678
1761315478969522400,1.6585224609375,0.2669464708447456,-0.30953868125006556,0.08863434206880628
1761315478979505700,1.668505615234375,0.20734043566584587,-0.25688662992753086,0.09223346253931522
1761315478989487400,1.6784873046875,0.07556932798624039,-0.2103860139068216,0.1157101997166872
1761315478999469600,1.688469482421875,-0.04630348601341247,-0.21288440659381447,0.12118695062734186
1761315479009451300,1.698451171875,-0.13555822500288486,-0.20157040089704095,0.12021635202951729
1761315479019433500,1.70843359375,-0.18975684818029404,-0.20395214493442326,0.11151983535476029
1761315479029415400,1.71841552734375,-0.20663900939822197,-0.21590872285105286,0.11494615654163062
1761315479039398400,1.7283984375,-0.16769290041029453,-0.2020811634307727,0.1419914729207754
1761315479049380600,1.738380615234375,-0.10784253508150576,-0.18479568210896102,0.14438523618951438
1761315479059362300,1.7483623046875,-0.05143967985808849,-0.17461623340006915,0.14654986687749624
1761315479069344500,1.758344482421875,-0.005211597168445587,-0.14941234363652764,0.16634828086830675
1761315479079326500,1.768326416015625,-0.01068038396835327,-0.1355233728852123,0.19866971101947128
1761315479089309400,1.778309326171875,-0.10364566791355609,-0.11237586766220628,0.207492630552873
1761315479099291600,1.788291748046875,-0.18687573978602884,-0.09519545415006578,0.20623671220764517
1761315479109273300,1.7982734375,-0.20119594156146048,-0.08164484850764274,0.18650844084359705
1761315479119255600,1.808255615234375,-0.19067104041576385,-0.06718534785937517,0.1744538459125906
1761315479129237500,1.818237548828125,-0.18342647611498833,-0.08291395512800663,0.197485031279549
1761315479139220500,1.828220458984375,-0.1755839459210634,-0.0857963786965236,0.20421536244787275
1761315479149202700,1.83820263671875,-0.169614808383584,-0.08539017251580953,0.17005999486781656
1761315479159184400,1.848184326171875,-0.12114274615943431,-0.14239252800233662,0.0961792044904083
1761315479169166600,1.85816650390625,-0.03849368904531002,-0.21617066172286867,0.036302608741819856
1761315479179148500,1.8681484375,0.08830547544062137,-0.2761433017244562,0.00685154639519751
1761315479189130500,1.878130615234375,0.20819383762478827,-0.3227520542947575,-0.004697217905521392
1761315479199113500,1.888113525390625,0.2163578548580408,-0.3450079444402829,-0.013788432986289262
1761315479209095400,1.898095458984375,0.12387772408127784,-0.356404294658266,-0.026007643894478676
1761315479219077600,1.90807763671875,0.0007429273217916488,-0.33390473194997755,-0.04212568887211382
1761315479229059600,1.9180595703125,-0.12150690329670906,-0.2759093103054911,-0.040459143899381156
1761315479239041500,1.92804150390625,-0.24998072299659252,-0.24272812151983378,0.008196165937185288
1761315479249024500,1.9380244140625,-0.36220483416318894,-0.2108896525800228,0.04317549018599093
1761315479259006500,1.94800634765625,-0.4060942447721958,-0.20432010146398097,0.0760986856225878
1761315479268988400,1.957988525390625,-0.3741916245549917,-0.19309658706225455,0.11309198004230857
1761315479278970400,1.967970458984375,-0.298309577357769,-0.18900442237779497,0.12586086072251199
1761315479288952600,1.97795263671875,-0.2297118419498205,-0.21377551021464167,0.14433109484948217
1761315479298935300,1.987935302734375,-0.19984803408384322,-0.25161990503836423,0.14218670323193072
1761315479308917500,1.99791748046875,-0.13324468736350537,-0.26539240980315953,0.13420388778448103
1761315479318899500,2.0078994140625,-0.06129588796198368,-0.27683468152210117,0.08629822727143764
1761315479328881400,2.01788134765625,-0.030077742877602575,-0.31575967465676363,0.050672567943111056
1761315479338863400,2.02786328125,-0.0021639000356197357,-0.3252387930765748,0.0433420789245516
1761315479348845600,2.037845458984375,0.04889993224740028,-0.2902101132607087,0.059244946781545876
1761315479358828500,2.04782861328125,0.09036883771121501,-0.2634730956457555,0.07966960291191935
1761315479368810500,2.057810546875,0.12071955231130123,-0.2531819667233154,0.11026654735803604
1761315479378792400,2.06779248046875,0.07860065850615501,-0.2808754082802683,0.14995251492783426
1761315479388774400,2.0777744140625,0.013308978906273842,-0.30481154313031583,0.16524777228049933
1761315479398756600,2.087756591796875,-0.0475789127767086,-0.28820385147221383,0.15226817145906388
1761315479408739600,2.097739501953125,-0.08526070091724396,-0.27901381565947087,0.14849486346542834
1761315479418721500,2.107721435546875,-0.06279460208714008,-0.2567769224753603,0.1344682378090918
1761315479428703500,2.117703369140625,0.05227496163845062,-0.21256142171714454,0.1508648805323988
1761315479438685400,2.127685546875,0.11695932299494742,-0.21071436907835303,0.1932996353536844
1761315479448667600,2.137667724609375,0.09270984787940978,-0.274741691298224,0.15801628665700554
1761315479458650600,2.147650634765625,-0.0033405425995588303,-0.31780517247710377,0.10393164524808525
1761315479468632600,2.157632568359375,-0.10202771132290363,-0.33041020436510443,0.045738691737502814
1761315479478614500,2.167614501953125,-0.15499240879118442,-0.3235818196497857,0.016482055984437465
1761315479488596500,2.177596435546875,-0.17852818267941473,-0.2952791236206889,0.0494894225731492
1761315479498578400,2.187578369140625,-0.23812311194241045,-0.24954744614586233,0.1063460859786719
1761315479508560400,2.197560302734375,-0.2639285843282938,-0.18990202880464493,0.1575515917547047
1761315479518543400,2.20754345703125,-0.1919751087516546,-0.15091759710032493,0.20779051752090452
1761315479528525600,2.217525634765625,-0.0663315440416336,-0.1604279874412343,0.24521679653041065
1761315479538507500,2.227507568359375,0.06739245127141476,-0.19494941185470668,0.24719094614759085
1761315479548489500,2.237489501953125,0.18610007923841476,-0.24692403883971273,0.23949067396856843
1761315479558471400,2.247471435546875,0.22605858013927935,-0.2655460659949109,0.17140417601838706
1761315479568454400,2.257454345703125,0.2128022082030773,-0.28566596702504904,0.08157784768603742
1761315479578436400,2.267436279296875,0.12204641700088976,-0.32975882778428495,0.010907762983441352
1761315479588418600,2.27741845703125,0.012311200040578842,-0.3602815379504114,-0.01565700333714485
1761315479598400500,2.287400390625,-0.0673468585640192,-0.3601987915704027,-0.045438832008093594
1761315479608382500,2.297382568359375,-0.07649462613761425,-0.3319773440839723,-0.04617043421827256
1761315479618364700,2.30736474609375,-0.02008767926096916,-0.3137017192136496,0.0009942717343568801
1761315479628347400,2.317347412109375,0.03302840937674045,-0.3032870735093951,0.03652874564789235
1761315479638329600,2.32732958984375,0.01331774673461914,-0.3138222768533975,0.08832396094538271
1761315479648311300,2.337311279296875,-0.06762742907106876,-0.342039267360419,0.11277392706908285
1761315479658293500,2.34729345703125,-0.10991115804910659,-0.32277101472355424,0.14431005206145345
1761315479668275700,2.357275634765625,-0.11707622737288474,-0.27992055524084714,0.1649924092799425
1761315479678258400,2.367258544921875,-0.1186906768321991,-0.26540468476284296,0.18566059184260666
1761315479688240600,2.37724072265625,-0.10884148299098015,-0.24371322356704622,0.20539609666503963
1761315479698222300,2.387222412109375,-0.12202128255963325,-0.2367193095590919,0.187388365483284
1761315479708204500,2.39720458984375,-0.19831775577664373,-0.25341734638176855,0.19320128954574464
1761315479718186500,2.4071865234375,-0.29885785889029504,-0.2549331943048164,0.1768346766345203
1761315479728168400,2.41716845703125,-0.32008360227048394,-0.23470530285555868,0.12957483974434433
1761315479738151400,2.4271513671875,-0.24529987170398235,-0.22822445293627677,0.10038198994249105
1761315479748133400,2.43713330078125,-0.15887188057303428,-0.2397408493373543,0.11848039508238434
1761315479758115600,2.447115478515625,-0.0769938078314066,-0.2477940996725112,0.19094072420261798
1761315479768097300,2.45709716796875,-0.0026671733826398847,-0.21304102192763238,0.24187296599522232
1761315479778079500,2.46707958984375,0.1038368065714836,-0.1937789067706093,0.25418957286328075
1761315479788062500,2.4770625,0.16947919930517671,-0.2167022478489205,0.2196658834274858
1761315479798044400,2.48704443359375,0.16244097123146056,-0.28269739954303946,0.19863259387947618
1761315479808026600,2.497026611328125,0.126053899076581,-0.31249102824963626,0.21311704630590975
1761315479818008300,2.50700830078125,0.06675123075842856,-0.29451950089242307,0.22264592215158044
1761315479827990500,2.516990478515625,-0.017028291690349577,-0.22629067186210303,0.17987221769951284
1761315479837972500,2.526972412109375,-0.10182371318340301,-0.16897523183841257,0.17166794152110815
1761315479847955500,2.53695556640625,-0.18340894045829773,-0.1360972272504121,0.18645904874391853
1761315479857937700,2.546937744140625,-0.24245383462309836,-0.12832293998710811,0.17063078049309552
1761315479867919400,2.55691943359375,-0.27082769619226454,-0.1626506319267675,0.16666699142865835
1761315479877901600,2.566901611328125,-0.2800800931841135,-0.20172946391627192,0.18572620442472398
1761315479887883500,2.576883544921875,-0.23366087183654308,-0.20122114906795321,0.21303660148084164
1761315479897866500,2.586866455078125,-0.20171148986816406,-0.18397030066810546,0.18858363968245684
1761315479907848700,2.5968486328125,-0.17339140431284902,-0.1619754360789433,0.144389254777506
1761315479917830400,2.606830322265625,-0.11954349426925182,-0.14414390171431005,0.13348901751339434
1761315479927811800,2.616811767578125,-0.033955461093783376,-0.1401275787450373,0.1089472083877772
1761315479937794000,2.6267939453125,0.025339023917913435,-0.18557196371108292,0.052100554919615384
1761315479947776000,2.63677587890625,0.015881459742784498,-0.24346235407851635,-0.006081146544590592
1761315479957759000,2.646759033203125,-0.03309095321893692,-0.27798129427395757,-0.03701952483952045
1761315479967741000,2.656740966796875,-0.08082476429641246,-0.270360334408842,-0.05917093169726431
1761315479977723000,2.666722900390625,-0.12629472209513187,-0.2348404735425487,-0.06800123081952333
1761315479987705000,2.676705078125,-0.15746668995022772,-0.2082264977853745,-0.039824864583835
1761315479997686800,2.686686767578125,-0.15600947687923908,-0.19124821924921123,-0.011938128944486379
1761315480007670000,2.696669921875,-0.11747370225787163,-0.15571878683697432,0.02438596097677946
1761315480017652000,2.70665185546875,-0.045669279763102526,-0.14088566710334272,0.03550999705940485
1761315480027634000,2.716634033203125,0.021801497441530225,-0.15601850043591112,0.0429484764970839
1761315480037616000,2.7266162109375,0.08901859214603901,-0.15225118379164487,0.039552696578949685
1761315480047597800,2.736597900390625,0.10270926384627818,-0.16729137040469794,0.031959099644795055
1761315480057580000,2.746580078125,0.055142626029253,-0.1961706607453525,0.052407867303118104
1761315480067563000,2.75656298828125,0.03252747411727905,-0.15820654853209853,0.09734627550840377
1761315480077545000,2.766544921875,0.04728606730997562,-0.08714841435998678,0.14202676342986523
1761315480087527000,2.77652685546875,0.019729367342591283,-0.06584982493929564,0.16863734165355562
1761315480097508900,2.7865087890625,-0.03830956465005875,-0.0974754548460245,0.1839982846535742
1761315480107491000,2.796490966796875,-0.13341829036474226,-0.15008048868905752,0.17267331917136908
1761315480117474000,2.80647412109375,-0.2039922942817211,-0.17325221503786742,0.12963986780457198
1761315480127456000,2.8164560546875,-0.18919687620997427,-0.18069062141031025,0.097196637904644
1761315480137438000,2.82643798828125,-0.18652736473977566,-0.1859665890518576,0.06713767279274761
1761315480147420000,2.836419921875,-0.15930734938085078,-0.21081114398371428,0.0421464393991977
1761315480157402000,2.846402099609375,-0.11676058555245399,-0.21595256199277937,0.029544220522791147
1761315480167383800,2.8563837890625,-0.03380348540246486,-0.237380951805599,0.005950871228426694
1761315480177367000,2.866366943359375,0.027359131568670272,-0.28197683018352837,0.011767886944115161
1761315480187349000,2.876348876953125,0.03655073828399181,-0.3074581121163443,0.055417059056460855
1761315480197331000,2.8863310546875,0.0193757315993309,-0.27682193163838237,0.06680325320661068
1761315480207313200,2.896313232421875,-0.04601999289691448,-0.2662724075080827,0.06952997475676238
1761315480217294800,2.906294921875,-0.09604980595707893,-0.28639515808243304,0.06724003718867898
1761315480227278000,2.916278076171875,-0.10669336504638194,-0.2894882287269458,0.06226093360185623
1761315480237259800,2.926259765625,-0.08910100973248482,-0.30614355891905726,0.035120705480873586
1761315480247242000,2.936241943359375,-0.013225392276048659,-0.3249122280033305,0.05132416371963918
1761315480257224200,2.94622412109375,0.10653203700482845,-0.33374534013718365,0.09660963179692625
1761315480267206000,2.956205810546875,0.2381213583767414,-0.31043135577347125,0.14027224791273474
1761315480277188000,2.96618798828125,0.32558746038377284,-0.29099954660534855,0.1646305171649903
1761315480287170800,2.9761708984375,0.37196050450205803,-0.2594716414520517,0.1407410344682634
1761315480297153000,2.986153076171875,0.31505145332217216,-0.28319296450763937,0.08465462478287518
1761315480307135000,2.996135009765625,0.14178162956237791,-0.30594365243278443,0.07932670775838196
1761315480317117000,3.006116943359375,0.0027227029621601103,-0.22833964028116313,0.12396795964799821
1761315480327099100,3.01609912109375,-0.10071662872433662,-0.16364183492120354,0.1505191358346492
1761315480337081900,3.026081787109375,-0.17890695286393166,-0.12708247493933886,0.16197656859010456
1761315480347064000,3.03606396484375,-0.2561544431954622,-0.12169270819239318,0.18255225056372582
1761315480357046000,3.0460458984375,-0.2894605004698038,-0.11614446294810622,0.14222783895991742
1761315480367028000,3.056028076171875,-0.27861411228477956,-0.11479319446962326,0.14297237371690572
1761315480377010000,3.066010009765625,-0.2233908222347498,-0.14017404823526738,0.13551884284056723
1761315480386991900,3.075991943359375,-0.09723170921802521,-0.14740597225017846,0.149014941816777
1761315480396975000,3.08597509765625,-0.0017331074029207228,-0.18443842963650822,0.17418350453861056
1761315480406956800,3.095956787109375,0.026633155381679534,-0.2205690793449059,0.18659151601716875
1761315480416939000,3.10593896484375,0.004103343665599822,-0.2420152605427429,0.17301862547770142
1761315480426921000,3.1159208984375,-0.0510556489765644,-0.22012992074266075,0.15210055980719625
1761315480436903000,3.12590283203125,-0.15751929692029953,-0.16402747323792427,0.1332024556569755
1761315480446886100,3.13588623046875,-0.30545360389351844,-0.1279137015990913,0.1008589598044753
1761315480456867800,3.145867919921875,-0.45027650084793563,-0.1215957140913233,0.08591660754270851
1761315480466850000,3.15585009765625,-0.5310860675752163,-0.11787161553427576,0.05874876076243817
1761315480476832000,3.16583203125,-0.4746101471155882,-0.11171112014316022,0.07218480011448264
1761315480486814000,3.17581396484375,-0.37701252719461914,-0.14203786934576929,0.09914251127541064
1761315480496796000,3.1857958984375,-0.30239070919156075,-0.1839629941444844,0.0719698421895504
1761315480506779000,3.19577880859375,-0.22468086204528806,-0.21503493569120763,0.03874532571882009
1761315480516761000,3.205760986328125,-0.14862287375926972,-0.24367438939400016,0.004532528863102197
1761315480526743000,3.215742919921875,-0.07124678861200809,-0.26282391102202235,-0.024351766446232794
1761315480536725000,3.22572509765625,0.012294833427667616,-0.26966438803393394,-0.01620017030313611
1761315480546707000,3.23570703125,0.05308043280243873,-0.29098540848214177,-0.02505165834389627
1761315480556690000,3.24568994140625,0.05316109682321548,-0.3236815171645954,-0.026896920884400606
1761315480566672100,3.255672119140625,0.038676644396781916,-0.3240562687611207,-0.0352571913421154
1761315480576654000,3.265654052734375,0.013403086930513381,-0.2979064764495939,-0.02439947804547846
1761315480586636000,3.275635986328125,-0.01666179646551609,-0.2842845591366291,0.020345307283848525
1761315480596618000,3.285617919921875,-0.08999123657047749,-0.2720090879965573,0.05853270685896277
1761315480606600000,3.295599853515625,-0.14384265374541283,-0.2565472784379497,0.047133360966295
1761315480616583000,3.3055830078125,-0.1266156246125698,-0.2624894549032673,0.031052579259127376
1761315480626564900,3.31556494140625,-0.06429390073418617,-0.26747644953560085,0.03129734780043363
1761315480636547000,3.325547119140625,-0.02569265966117382,-0.2931004644073546,0.01302738548591733
1761315480646529000,3.335529052734375,-0.061223991769552226,-0.32109581152033057,-0.004610270274430513
1761315480656511000,3.345510986328125,-0.1175619650632143,-0.3294819836042821,-0.03765928404778242
1761315480666494000,3.355493896484375,-0.11673778919875621,-0.3271723549550399,-0.06450739735439419
1761315480676476000,3.365475830078125,-0.04696107313930988,-0.3403844493580982,-0.015400398227572441
1761315480686457900,3.375457763671875,-0.04124854071140289,-0.3540115908354521,0.09799056476131081
1761315480696440000,3.385440185546875,-0.043649172112345695,-0.30039599171038717,0.18281287426128984
1761315480706422000,3.395422119140625,-0.07817454204857349,-0.2277074067922309,0.23021686886250972
1761315480716404000,3.405404052734375,-0.12702712802290916,-0.17991170945968477,0.2799262177966535
1761315480726387000,3.415386962890625,-0.09089023123681544,-0.16665804093722253,0.3449938793823123
1761315480736369000,3.425368896484375,-0.04422317260801792,-0.1669718195941299,0.39084684514924883
1761315480746351000,3.43535107421875,0.020071312648057938,-0.1879879753442481,0.37592297839224337
1761315480756332800,3.445332763671875,0.0871580589711666,-0.1941454385280609,0.339938349558413
1761315480766315000,3.45531494140625,0.08107318609952927,-0.2377804725171998,0.2561861535079777
1761315480776298000,3.465298095703125,0.040810733816027636,-0.2894611945895478,0.1771202155776322
1761315480786280000,3.475280029296875,0.03888473418951034,-0.2855091690281406,0.15192279208749532
1761315480796262100,3.48526220703125,0.10123860677182674,-0.23399072484541683,0.17816694815158843
1761315480806243800,3.495243896484375,0.14548340668976306,-0.19665241638030856,0.2693655146852135
1761315480816226000,3.50522607421875,0.108446346193552,-0.19327022659610957,0.31409356807544825
1761315480826208000,3.5152080078125,0.056800914630293846,-0.20421477792598305,0.29755992803424597
1761315480836191000,3.52519091796875,-0.03963409125208855,-0.22695585777256636,0.306548267262429
1761315480846173000,3.5351728515625,-0.1598112072497606,-0.22400836961120366,0.31213322778791186
1761315480856155000,3.54515478515625,-0.27579613225460053,-0.18820454070437698,0.2922663516707718
1761315480866137000,3.55513720703125,-0.323166370716691,-0.14675393808223305,0.29154563618078827
1761315480876118800,3.565118896484375,-0.3222510094374418,-0.14103508551139385,0.2872596294246614
1761315480886101000,3.57510107421875,-0.27053660429120063,-0.1455816794324666,0.27582477382719517
1761315480896084000,3.585083984375,-0.20999884122014045,-0.149039893594943,0.2518468091294169
1761315480906066000,3.59506591796875,-0.21588848378062248,-0.18021584350541234,0.1938287737943232
1761315480916048100,3.605048095703125,-0.2351402967393398,-0.19741123539097605,0.15222908155769108
1761315480926029800,3.61502978515625,-0.1919493897885084,-0.1791875233709812,0.11494856769442557
1761315480936012000,3.625011962890625,-0.13972820416390894,-0.13492467633970082,0.13020415062382817
1761315480945995000,3.6349951171875,-0.06475333493947982,-0.1364645261928439,0.11970116904899478
1761315480955977000,3.64497705078125,-0.013524667483568191,-0.1675995230384171,0.07165244680345058
1761315480965959200,3.654959228515625,0.03282207314968109,-0.21297990285754204,0.04620484794452786
1761315480975940900,3.66494091796875,0.07679214777946472,-0.23124854999780653,0.04263517276421189
1761315480985923000,3.674923095703125,0.1457253987520933,-0.21099333215020596,0.05880231758058071
1761315480995905000,3.684905029296875,0.1747691224068403,-0.20694029389973728,0.06346767904311418
1761315481005888000,3.694887939453125,0.15285948841571806,-0.241446922602877,0.04243804275691509
1761315481015870200,3.7048701171875,0.06384732601046562,-0.2939937965178862,0.028649317509680985
1761315481025852000,3.714851806640625,-0.028432898280024526,-0.3075223729915917,0.038174101702123875
1761315481035834000,3.724834228515625,-0.0858773715108633,-0.2637233075471595,0.07627309234142303
1761315481045816000,3.734816162109375,-0.11460486882328987,-0.21178039087466893,0.1001150095693767
1761315481055799000,3.744799072265625,-0.11922668340504168,-0.17701997007355094,0.11310410887151956
1761315481065781000,3.754781005859375,-0.12411562449038029,-0.1779290842751041,0.12457578934803604
1761315481075763000,3.764762939453125,-0.13917115480303763,-0.1887297336222604,0.1270990242153406
1761315481085745200,3.7747451171875,-0.16268179425001145,-0.23636395678278058,0.14633753930106758
1761315481095726800,3.784726806640625,-0.14470540805459023,-0.26644235724750903,0.11343830926194787
1761315481105709000,3.794708984375,-0.11178688879311084,-0.27075861301142723,0.08481631815060972
1761315481115691800,3.80469189453125,-0.09992986226081847,-0.28164641091907394,0.062775166734308
1761315481125674000,3.814674072265625,-0.11084171689748763,-0.26914146013837303,0.028425007234513758
1761315481135656000,3.824656005859375,-0.08524258073866367,-0.24408348165154456,0.008273322826623917
1761315481145638000,3.834637939453125,-0.056768765926361084,-0.2321434895435348,0.01412730955183506
1761315481155620000,3.8446201171875,-0.059281625530123706,-0.22973600827669724,0.043210196173191065
1761315481165602000,3.85460205078125,-0.060903089252114295,-0.20162529115574432,0.08487155546918511
1761315481175585000,3.8645849609375,-0.08521627725362778,-0.15142865189500151,0.1260923313908279
1761315481185567000,3.87456689453125,-0.1302753161638975,-0.12534089196901768,0.1452891992919147
1761315481195549000,3.884548828125,-0.16907880181074142,-0.1048892382338643,0.13492109614312647
1761315481205531000,3.89453076171875,-0.15768530113697052,-0.11198893243754282,0.095005265340209
1761315481215513000,3.90451318359375,-0.1483615924745798,-0.1258461928763427,0.0493010603941977
1761315481225496000,3.91449609375,-0.12650924162864685,-0.15700022321594878,0.02294949843287468
1761315481235478000,3.92447802734375,-0.06131809979379177,-0.1751478925913572,0.015644874507933854
1761315481245460000,3.9344599609375,0.0213408941924572,-0.17741687870295716,0.0288391409933567
1761315481255442000,3.94444189453125,0.06567512595951557,-0.19021451055360958,0.04972074711099267
1761315481265424100,3.954424072265625,0.05958791500031948,-0.19887025682656093,0.06289177885130047
1761315481275405800,3.96440576171875,0.055609074497222896,-0.19637478674901648,0.051837008612602944
1761315481285389000,3.97438916015625,0.07644318821132183,-0.18299610360739751,0.062189621931314464
1761315481295371000,3.98437109375,0.09429273315668106,-0.16217888622917234,0.09830079975426197
1761315481305353000,3.99435302734375,0.05639467191696167,-0.15918058119602502,0.13221665949001907
1761315481315335000,4.0043349609375,0.04385200120806694,-0.1551041072710417,0.13695903171151877
1761315481325316900,4.01431689453125,-0.004463409149646759,-0.16575234253546223,0.11631693343818188
1761315481335299000,4.024299072265625,-0.08851882593035697,-0.21114123445460573,0.0923791546203196
1761315481345282000,4.034281982421875,-0.14905541995763777,-0.23275630594594401,0.07492167773246765
1761315481355264000,4.044263916015625,-0.15642448742091655,-0.2269088402930647,0.055276189281046384
1761315481365246000,4.054245849609375,-0.1358878953486681,-0.23108601637985557,0.05041355168074369
1761315481375228000,4.064227783203125,-0.1438824012339115,-0.2537556384254247,0.05188830040842295
1761315481385210000,4.074210205078125,-0.16316168672144413,-0.2677621528754942,0.05102729966491461
1761315481395192800,4.08419287109375,-0.18406185140907763,-0.2550159224185161,0.04456920956671238
1761315481405175000,4.094175048828125,-0.19741466945707797,-0.24935395113406703,0.0513161996088922
1761315481415157000,4.104156982421875,-0.16703882041573523,-0.23775864427788182,0.10678981115818023
1761315481425139000,4.114138916015625,-0.1173527062267065,-0.21525435059554873,0.16032777846977114
1761315481435121200,4.12412109375,-0.10891454822719096,-0.21187272706693036,0.15106018390879034
1761315481445102800,4.134102783203125,-0.1364402685344219,-0.24594660864230244,0.08262465332522988
1761315481455086000,4.144086181640625,-0.18466624704301357,-0.2731016142073087,0.022510522493720053
1761315481465067800,4.15406787109375,-0.2160749462634325,-0.2689142272537574,-0.030030542735010383
1761315481475050000,4.164050048828125,-0.17382570407688616,-0.23387635948443783,-0.04157791879624128
1761315481485032200,4.1740322265625,-0.10578560255169868,-0.20665833515319973,-0.002424304537475109
1761315481495014000,4.184013916015625,-0.005660509979724884,-0.1877509517179802,0.07261573887765407
1761315481504996000,4.19399609375,0.053098552981019016,-0.1823246523529291,0.12219415490850806
1761315481514978800,4.203978759765625,0.07008592813909054,-0.17648617372410372,0.12053338208943605
1761315481524961000,4.2139609375,0.028412440013885498,-0.15809819278679788,0.08986161884143948
1761315481534943000,4.22394287109375,-0.007267360654473304,-0.1412752874754369,0.07712883238792419
1761315481544925000,4.233925048828125,-0.028385552006959913,-0.12337766560465097,0.08865399661734699
1761315481554907100,4.2439072265625,-0.02148994727432728,-0.10360712600145489,0.10226122781783342
1761315481564888800,4.253888916015625,0.02311024195253849,-0.09251704698735848,0.10491393428370356
1761315481574872000,4.2638720703125,0.0980553005605936,-0.11400401685331016,0.09547551320046185
1761315481584853800,4.273853759765625,0.15488310319781304,-0.14575025919871404,0.06603826018348335
1761315481594836000,4.2838359375,0.20999416504502294,-0.19212677391571922,0.019246113870292902
1761315481604818000,4.29381787109375,0.21095161190032957,-0.2449768502946943,0.005164250895380974
1761315481614800000,4.3037998046875,0.1621387734144926,-0.29385382179161534,-0.027141835556179283
1761315481624783000,4.313783203125,0.09419277991354465,-0.313275931549631,-0.054514118867367505
1761315481634764800,4.323764892578125,-0.008006780844926833,-0.29582777047939596,-0.04766790623441338
1761315481644747000,4.3337470703125,-0.11172960564792156,-0.23721354108313097,0.013925211108475923
1761315481654729000,4.34372900390625,-0.265793209156394,-0.18064561322480438,0.06931172889620066
1761315481664711000,4.3537109375,-0.3862771991461515,-0.12065814098026603,0.11238529307767749
1761315481674692900,4.36369287109375,-0.45738370250463484,-0.0804141559352167,0.15683613696172832
1761315481684675800,4.37367578125,-0.4748527236998081,-0.10616987089524045,0.1970604491919279
1761315481694658000,4.383657958984375,-0.3823468739598989,-0.12563866933919488,0.21174656167030334
1761315481704640000,4.393639892578125,-0.2595879247754812,-0.13346295149037612,0.20486089380979536
1761315481714622000,4.4036220703125,-0.1242582478314638,-0.1467581393333152,0.15773761584609747
1761315481724604000,4.41360400390625,-0.0016097732841968534,-0.18954360728841274,0.10637553126886487
1761315481734586000,4.423586181640625,0.08896890778541565,-0.22219423286132514,0.04890606972724199
1761315481744569000,4.433569091796875,0.11811609181463718,-0.2417735607413575,-0.013704554095119238
1761315481754551000,4.443551025390625,0.11840543015003203,-0.22995772473597897,-0.027619389940053224
1761315481764533000,4.453532958984375,0.12336743647158145,-0.20250488700186833,0.03719824240729212
1761315481774515000,4.463514892578125,0.13404139069914817,-0.15853742445427924,0.12845789147838949
1761315481784497000,4.473496826171875,0.15095511609911919,-0.10790054887905716,0.20012232098057864
1761315481794480000,4.483480224609375,0.13764204553961754,-0.10208042789082973,0.23523104376271364
1761315481804462000,4.493462158203125,0.15160685800611973,-0.1188669467145577,0.24490283521041273
1761315481814444000,4.503444091796875,0.14137012615203856,-0.15940933018429204,0.26136443292871114
1761315481824426000,4.513426025390625,0.08064122442305087,-0.1897411391545087,0.2597268948547542
1761315481834408000,4.523407958984375,-0.02365560087561607,-0.17883538546506314,0.22247662999927997
1761315481844390000,4.533389892578125,-0.12750760501623154,-0.18489466723771764,0.13892302526086567
1761315481854372900,4.543372802734375,-0.23058161052167414,-0.2260122933121398,0.058129971276968714
1761315481864355000,4.55335498046875,-0.28060850097239015,-0.2694321867132559,-0.008420914603769779
1761315481874337000,4.5633369140625,-0.3372381506890058,-0.29922201602756976,-0.04030234590247273
1761315481884319000,4.573319091796875,-0.3636439270555973,-0.30814196619465944,-0.047707069201022384
1761315481894301000,4.583301025390625,-0.34012627334594725,-0.28818770405501126,-0.03798442434892058
1761315481904283100,4.593283203125,-0.3188099290728569,-0.3009668869335204,-0.011078297244757413
1761315481914265900,4.603265869140625,-0.2943827593028545,-0.31941257114112376,-0.006796528272330761
1761315481924248000,4.613248046875,-0.2089946326136589,-0.32386074618902055,-0.022337211753427982
1761315481934230000,4.62322998046875,-0.1192915653347969,-0.35301636925302443,-0.054374125874787564
1761315481944212200,4.633212158203125,-0.08121288683116436,-0.4004304468568414,-0.0579367867924273
1761315481954194200,4.643194091796875,-0.08931202213466168,-0.398793785565719,-0.06293035729601978
1761315481964176100,4.653176025390625,-0.13526070336103438,-0.3752488054577261,-0.08310498418807982
1761315481974159400,4.663159423828125,-0.19780922173261642,-0.3754328567877412,-0.09272606836184859
1761315481984141000,4.67314111328125,-0.20956278789043425,-0.3570158872179687,-0.06958864614143967
1761315481994123300,4.683123291015625,-0.18723054457306862,-0.33506478870529677,-0.040739276015013454
1761315482004105200,4.693105224609375,-0.1934615479171276,-0.3190537842987105,-0.013556231665611266
1761315482014087200,4.703087158203125,-0.22457740167081355,-0.27341851640306414,0.03654328562989831
1761315482024070100,4.713070068359375,-0.2587333537727594,-0.20441967111462725,0.10254925097897648
1761315482034052000,4.723052001953125,-0.22628888176381587,-0.14800512545341624,0.14163286874145267
1761315482044034300,4.733034423828125,-0.15450842466652392,-0.14080125848921016,0.171257899415493
1761315482054016000,4.74301611328125,-0.04873568159639835,-0.15022935910783708,0.1646121777907014
1761315482063998200,4.752998291015625,0.05415653760135174,-0.18430523171089588,0.11631517987251282
1761315482073980200,4.762980224609375,0.09566811316311359,-0.21679016359439118,0.06560834433361888
1761315482083963100,4.772963134765625,0.08884089749157428,-0.20810055158445612,0.08108984497338532
1761315482093945300,4.7829453125,0.04015314669013023,-0.20848945957049725,0.05218655270263552
1761315482103927000,4.792927001953125,-0.0620183570176363,-0.19912998547498137,0.021055647510290144
1761315482113909200,4.8029091796875,-0.12113690094053745,-0.20122323142718523,0.023559300894290206
1761315482123891200,4.81289111328125,-0.1049567505121231,-0.17606873376332222,0.06838657687529921
1761315482133873200,4.822873046875,-0.0517225884526968,-0.18466723342370242,0.0799561647683382
1761315482143856000,4.832856201171875,-0.004871405428647994,-0.19763233079575002,0.11416983840689063
1761315482153838000,4.842838134765625,0.06437222666740416,-0.17559415678782386,0.17078560572862625
1761315482163820000,4.852820068359375,0.09733926124572753,-0.18274603783646598,0.15440671785771845
1761315482173802200,4.86280224609375,0.12044658058881759,-0.20576620861906558,0.13368001004084945
1761315482183784200,4.8727841796875,0.12015315060019492,-0.22801442691478876,0.13819763359576462
1761315482193766100,4.88276611328125,0.08913608104586601,-0.2638851470453665,0.13329130298420785
1761315482203749000,4.8927490234375,0.0011129296779632568,-0.30569081018287686,0.12808715846985577
1761315482213731000,4.90273095703125,-0.12085340782403946,-0.3044726848310791,0.10747720890045165
1761315482223713300,4.91271337890625,-0.20134148751199243,-0.2709496968704276,0.09668255090266466
1761315482233695000,4.922695068359375,-0.2458323711454868,-0.22916540531450882,0.09289718714505434
1761315482243677200,4.93267724609375,-0.20600772575736045,-0.18327893913676963,0.10580138464272022
1761315482253660200,4.94266015625,-0.15845570098757744,-0.1742376824112609,0.16058642940595744
1761315482263642000,4.95264208984375,-0.11037409938573836,-0.17807088563228024,0.22612390046045183
1761315482273624000,4.9626240234375,-0.09361351872086525,-0.16878096964163705,0.24496377161741256
1761315482283606000,4.97260595703125,-0.06453998444974422,-0.1751044187758118,0.20394012570306658
1761315482293588200,4.982588134765625,-0.009841010534763335,-0.19321551900049672,0.14626505858674643
1761315482303570000,4.99256982421875,0.06409340972602368,-0.2332107534488663,0.1279666008301079
1761315482313553200,5.00255322265625,0.046325697845220566,-0.2556485029673204,0.11101049759313464
1761315482323535000,5.01253515625,0.001295300507545471,-0.2572718846517615,0.08486395668461919
1761315482333517000,5.02251708984375,-0.10640636479854583,-0.24579748249519615,0.07036342990621924
1761315482343499300,5.032499267578125,-0.21653028881549835,-0.20957466099131852,0.05988119885846972
1761315482353481000,5.04248095703125,-0.2686240486681461,-0.19353238466363398,0.03313011618554592
1761315482363463200,5.052463134765625,-0.30075989311933515,-0.17507773169828578,0.018643617932498455
1761315482373446100,5.062446044921875,-0.24299685545861718,-0.15320105012869462,0.02805778135731816
1761315482383428000,5.072427978515625,-0.10775661036372185,-0.1143553145090118,0.039786651465296745
1761315482393410300,5.082410400390625,0.04081716355681419,-0.12218151462264358,0.0873861686386168
1761315482403392000,5.09239208984375,0.16554770507514477,-0.1462600170854479,0.14647007963955402
1761315482413374200,5.102374267578125,0.23542262081205845,-0.15487435363577678,0.16342705965936183
1761315482423356200,5.112356201171875,0.21220307326614857,-0.15442407085131854,0.12771174928620457
1761315482433339100,5.122339111328125,0.12350421459376812,-0.16536443919641897,0.08416764498353003
1761315482443321300,5.1323212890625,-0.03558452360033989,-0.17652235928233712,0.07025266300812363
1761315482453303000,5.142302978515625,-0.12422434556186199,-0.16084897106597199,0.03652677288651466
1761315482463285200,5.15228515625,-0.13085282379090785,-0.1333090943692252,0.03136339877396822
1761315482473267200,5.16226708984375,-0.10178981091380118,-0.13655202181320636,0.039730537363886834
1761315482483249200,5.172249267578125,-0.05688157865107059,-0.14923285888377577,0.05726137174889445
1761315482493232000,5.182232177734375,-0.007402969732880592,-0.1713800279578194,0.06893295871168374
1761315482503214000,5.192214111328125,0.04273790248632431,-0.19311673480113967,0.061345133931189774
1761315482513196300,5.2021962890625,0.043263972187042234,-0.21809817745303733,0.05952434824481606
1761315482523178000,5.212177978515625,0.03225800952613354,-0.2347120613899082,0.07659618681594729
1761315482533160200,5.22216015625,0.030066052439808845,-0.23351596520682796,0.10964943837299942
1761315482543142100,5.23214208984375,-0.03493102812767029,-0.24998751806356012,0.1137483981244266
1761315482553125000,5.242125,-0.11139467460513114,-0.23559806871050967,0.0854271435253322
1761315482563107300,5.252107421875,-0.15615093117654322,-0.20771180799519642,0.04921294371932745
1761315482573089000,5.262089111328125,-0.16900222944319246,-0.20688673708159475,0.028486235902458426
1761315482583071200,5.2720712890625,-0.16072013878822325,-0.23763618694199248,0.03493088199719786
1761315482593053200,5.28205322265625,-0.13219371700584887,-0.2451187429834157,0.05895999236032366
1761315482603036200,5.2920361328125,-0.09676467622816562,-0.217200790221896,0.07351327223926782
1761315482613018000,5.30201806640625,-0.05759703344404697,-0.20149114338206126,0.08052680426314472
1761315482623000000,5.312,-0.019109189617633818,-0.216718358733505,0.12291019422337413
1761315482632982300,5.321982177734375,-0.02777881828546524,-0.2201826555768959,0.17473448948487638
1761315482642964200,5.331964111328125,-0.011773439902067183,-0.19014509857920928,0.191282450312376
1761315482652946200,5.3419462890625,0.03683832305371761,-0.14573071424802764,0.17868425002396104
1761315482662929200,5.35192919921875,0.019094576570391653,-0.13111905524535103,0.12737974085286258
1761315482672911000,5.3619111328125,-0.0881172593921423,-0.18799981191251425,0.017828940548747778
1761315482682893000,5.37189306640625,-0.21746727740466593,-0.2175651665548794,0.013694617222994565
1761315482692875300,5.381875244140625,-0.2791787604302168,-0.17547864064937457,0.027596447455883025
1761315482702857200,5.391857177734375,-0.26484043847620486,-0.14308540563732386,0.017403408613055945
1761315482712839200,5.401839111328125,-0.1744295151889324,-0.11344693095982074,0.03367167571634054
1761315482722822100,5.411822265625,-0.06484919652938842,-0.12606164399161934,0.07604995111003518
1761315482732804000,5.42180419921875,0.057336336681246755,-0.14060637523792682,0.09514481994137168
1761315482742786000,5.4317861328125,0.19822890844941138,-0.145834813943319,0.10042685199752449
1761315482752768000,5.44176806640625,0.34060908842682835,-0.17144859968200324,0.09113529203906655
1761315482762750200,5.451750244140625,0.41168636569082734,-0.21524114405410363,0.14638722366169094
1761315482772732200,5.461732177734375,0.3889502177476883,-0.2290302346275188,0.208088039162755
1761315482782715100,5.471715087890625,0.23766075512766838,-0.23993481927318497,0.20239611113145947
1761315482792697000,5.481697021484375,0.01889525460600853,-0.23093075275290756,0.16190920244231818
1761315482802679000,5.491678955078125,-0.18501228400170802,-0.2198166352760978,0.10373889915496111
1761315482812661200,5.5016611328125,-0.3405465445846319,-0.21970144793121144,0.0787457660652697
1761315482822643000,5.511642822265625,-0.3812555715918541,-0.23686388739524408,0.11955796118602156
1761315482832625200,5.521625244140625,-0.41148938181400296,-0.23321278100917114,0.18996435345113277
1761315482842608000,5.531608154296875,-0.4158914161652326,-0.19252613023053852,0.21944603013172745
1761315482852590000,5.541590087890625,-0.39479835925400253,-0.16832005586531013,0.19319719789251685
1761315482862572300,5.551572265625,-0.34342122323811053,-0.17585112722357735,0.18899141676574943
1761315482872554000,5.561553955078125,-0.2861801636248827,-0.19706715292735025,0.17175576593503356
1761315482882536200,5.5715361328125,-0.20551555832624435,-0.23903332212250678,0.13937866007387636
1761315482892519200,5.581519287109375,-0.13828151248693465,-0.270074740666803,0.07834025400429964
1761315482902501000,5.591501220703125,-0.12120879713296889,-0.2792144710644148,0.03471110176667571
1761315482912483300,5.6014833984375,-0.09749942024350165,-0.26397549220994115,0.019371786076575515
1761315482922465000,5.611465087890625,-0.02450140404999256,-0.23660755628030747,0.013147066342830657
1761315482932447000,5.621447021484375,0.0519710102558136,-0.1847293023418635,0.05491787736266851
1761315482942429200,5.63142919921875,0.04880991587638855,-0.16831788217453286,0.04540229938998818
1761315482952412200,5.641412109375,0.049022097322344776,-0.1541410161262378,0.0026883623011410233
1761315482962394000,5.65139404296875,0.0418406613856554,-0.19050697242785244,-0.055588470100611444
1761315482972376000,5.6613759765625,0.06363631360828877,-0.23456552905868738,-0.10289996411278843
1761315482982358000,5.67135791015625,0.10340367585122584,-0.23713030151277778,-0.09256839358210563
1761315482992340000,5.681340087890625,0.13072364445328713,-0.20279607023447752,-0.03898015738800168
1761315483002322000,5.691322021484375,0.13147533960342406,-0.17907922242460772,-0.013642887035757303
1761315483012305000,5.701304931640625,0.08077215732634067,-0.20378157414048909,-0.03223375186771154
1761315483022287000,5.711287109375,0.010395137286186218,-0.19890341017749158,-0.007044950075447559
1761315483032269000,5.72126904296875,-0.055365913391113276,-0.15685752680962906,0.03165200645700097
1761315483042251000,5.7312509765625,-0.16894786890745161,-0.10257444021916017,0.04391322987601161
1761315483052233000,5.74123291015625,-0.2517716980665922,-0.06731377827832474,0.07112111640572548
1761315483062215200,5.751215087890625,-0.24821955854296682,-0.013763992664776742,0.11959361702129244
1761315483072198000,5.761197998046875,-0.19524433968067167,0.02128965719556436,0.16945377260297537
1761315483082180000,5.77118017578125,-0.12170038004219531,0.006400514692068099,0.18525559123829005
1761315483092162000,5.781162109375,-0.09339724562168121,-0.05216620403435081,0.16380451466962695
1761315483102144000,5.79114404296875,-0.08308920209705829,-0.11112756636785343,0.13405790344253182
1761315483112126200,5.801126220703125,-0.05842471643984318,-0.14603587120706216,0.07414893979430198
1761315483122108000,5.81110791015625,-0.009886018720269202,-0.153891206083633,0.004163987811654806
1761315483132091100,5.821091064453125,0.04453238468766212,-0.18293977031027897,-0.0096780750580132
1761315483142072800,5.83107275390625,0.049309682092070574,-0.22836013507992028,0.02361117721199989
1761315483152055000,5.841054931640625,0.02793430110812187,-0.23315177153693512,0.056510845642536875
1761315483162037200,5.851037353515625,-0.04175006049275398,-0.2020002984805964,0.10705547635704278
1761315483172019000,5.86101904296875,-0.12897124782800673,-0.16097977610509842,0.13812559127286075
1761315483182001200,5.871001220703125,-0.15862345876991749,-0.13769309987341985,0.15894333837404845
1761315483191983900,5.88098388671875,-0.1367196699976921,-0.13025012692371382,0.1791867927186191
1761315483201966000,5.890966064453125,-0.13093699494302272,-0.1320750955948606,0.18253098857998848
1761315483211948000,5.900947998046875,-0.17527181123197078,-0.18833446896066888,0.13804858051389454
1761315483221930000,5.910929931640625,-0.23001520881056783,-0.22607854521507395,0.0919558146417141
1761315483231912200,5.920912109375,-0.25660510957241056,-0.23462038278477265,0.06773468883782625
1761315483241894000,5.930893798828125,-0.2369143206745386,-0.2427357568370178,0.02671352714151144
1761315483251877000,5.940877197265625,-0.16095570110976695,-0.266194885292463,0.016247662706673143
1761315483261858800,5.95085888671875,-0.05902852755188941,-0.29231419113418083,0.027591771280765533
1761315483271841000,5.960841064453125,0.03491992221176624,-0.27135084328353404,0.09487038691416383
1761315483281823000,5.970822998046875,0.05210837289988994,-0.24852656039921564,0.1349387779302895
1761315483291805000,5.980804931640625,0.03842588450610637,-0.1996600189647637,0.15979674033299088
1761315483301787100,5.990787109375,-0.03012099749743938,-0.16796934273149816,0.16770868250131607
1761315483311769900,6.000769775390625,-0.0975806687861681,-0.1689854609714821,0.13112798747047782
1761315483321752000,6.010751953125,-0.08389408873915671,-0.19064090100582687,0.10005451155379413
1761315483331734000,6.020734130859375,-0.05100538009405136,-0.23430085024051367,0.053699295353144404
1761315483341716000,6.030716064453125,-0.04129296437501907,-0.26807516434742135,0.05436301995888352
1761315483351698000,6.040697998046875,-0.06520809296965599,-0.21942378176730123,0.07582403339967131
1761315483361680100,6.05068017578125,-0.051608606684207914,-0.16301827792907134,0.09088876993209123
1761315483371663000,6.0606630859375,-0.006520926201343536,-0.16134798836298286,0.11887538574934005
1761315483381645000,6.07064501953125,0.02686170344054699,-0.19262129770070313,0.19585911057814956
1761315483391627000,6.080626953125,0.031105916881561276,-0.1848643634309992,0.2615973649017513
1761315483401609000,6.09060888671875,-0.050015200012922284,-0.1840252091931179,0.24049933955445885
1761315483411591200,6.100591064453125,-0.14327040681540965,-0.188775691655837,0.17613164293169975
1761315483421572900,6.11057275390625,-0.2018143657207489,-0.1685827436557971,0.1502538359619677
1761315483431556000,6.12055615234375,-0.2308656881600618,-0.16168496523238718,0.15515578265935182
1761315483441538000,6.1305380859375,-0.2621791103124618,-0.16924831315875052,0.1772521713942289
1761315483451520000,6.14052001953125,-0.293428819578886,-0.17277340027866883,0.12826646055951713
1761315483461502000,6.150501953125,-0.2848947999894619,-0.19371365951467304,0.07436682032868265
1761315483471484000,6.16048388671875,-0.19810674337446688,-0.2023203607478179,0.052683688569813966
1761315483481466000,6.170466064453125,-0.0745446611136198,-0.20778403298119083,0.07215557401999831
1761315483491449000,6.180448974609375,0.0451432100623846,-0.19284708754690363,0.07189809212759136
1761315483501431000,6.19043115234375,0.11520634184777737,-0.18249476648913696,0.06000950141325593
1761315483511413000,6.2004130859375,0.13243103289306163,-0.21936806952469048,0.03603241349831223
1761315483521395000,6.21039501953125,0.11659165872633456,-0.20356689021019264,0.08071662774682045
1761315483531377200,6.220377197265625,0.054959670677781104,-0.1659802695398219,0.13483677886053919
1761315483541358800,6.23035888671875,-0.020320903494954107,-0.14936538095595314,0.09661284666731954
1761315483551342000,6.240342041015625,-0.07271160046756267,-0.15309386342717335,0.0322280527792871
1761315483561324000,6.250323974609375,-0.10045417839586734,-0.1615838794780895,0.0024397943675518036
1761315483571306000,6.260305908203125,-0.17496669080555438,-0.18806717806030063,-0.03281052884235978
1761315483581288200,6.2702880859375,-0.22412731981575487,-0.20756945864874868,-0.022403847248852252
1761315483591270000,6.280269775390625,-0.2039922942817211,-0.20167632722323758,0.012197802793979645
1761315483601252000,6.290252197265625,-0.1639811864107847,-0.1888210286349058,0.06719254478514194
1761315483611234800,6.30023486328125,-0.12158522922992705,-0.20113889587828887,0.09427315167337655
1761315483621217000,6.310217041015625,-0.06312544147670268,-0.2223008898398839,0.08440700669735669
1761315483631199200,6.32019921875,0.004423661661148071,-0.2699706409715116,0.058887511646002526
1761315483641181000,6.330180908203125,0.09700900637805461,-0.2895790670818649,0.012334873177111148
1761315483651163100,6.3401630859375,0.16790508185625075,-0.2939259554460645,0.008498656015098095
1761315483661145000,6.35014501953125,0.2001496473789215,-0.2968454596219584,0.023272446776926515
1761315483671128000,6.360128173828125,0.20063246245980262,-0.27624893578970805,0.04624181895405054
1761315483681110000,6.370110107421875,0.1464583892017603,-0.219658321175538,0.09040478580743073
1761315483691092000,6.380092041015625,0.06460252829194069,-0.1735573354642838,0.1426638192243874
1761315483701074200,6.39007421875,-0.09972001890242099,-0.17776392030864954,0.21326105788648128
1761315483711056000,6.400055908203125,-0.23693244085311888,-0.1427903864798136,0.26833997102975843
1761315483721038000,6.4100380859375,-0.2177390800833702,-0.10661281062345951,0.19245324765741825
1761315483731020800,6.420020751953125,-0.12463701801598072,-0.1882012162361294,0.12540873304083944
1761315483741003000,6.4300029296875,-0.06126315473616123,-0.2802844749161042,0.15705036423429847
1761315483750985000,6.43998486328125,0.003200841867923736,-0.2679403407203033,0.19202113985046743
1761315483760967000,6.449966796875,0.019254735568165777,-0.22479997664662077,0.17814897410348057
1761315483770949000,6.45994921875,-0.010287585258483885,-0.2372230395638384,0.12213453367576002
1761315483780931000,6.46993115234375,-0.07129764201641083,-0.2521133145784959,0.11068448050916194
1761315483790914000,6.4799140625,-0.13290624918937682,-0.1929831715493463,0.1370867497444153
1761315483800896000,6.48989599609375,-0.16339549547731874,-0.1365374818312004,0.13744783814176917
1761315483810878000,6.4998779296875,-0.12382803972065448,-0.14401541649643332,0.13002309496849773
1761315483820860000,6.50985986328125,-0.06963350819647311,-0.18649559962833298,0.1362301329150796
1761315483830842000,6.519842041015625,-0.08746610200703143,-0.20179432757971807,0.1300795013308525
1761315483840824000,6.529823974609375,-0.10595628294348716,-0.14586966606099158,0.0814994486875832
1761315483850807000,6.53980712890625,-0.0978068787574768,-0.09671775008020922,0.05407879619002342
1761315483860789000,6.5497890625,-0.08892857577502727,-0.10020935505563393,0.04199132190272212
1761315483870771000,6.55977099609375,-0.024718261671066284,-0.12460521637191996,0.010718816282600165
1761315483880753200,6.569753173828125,0.023462124130129814,-0.1670263627929613,-0.0236260825201869
1761315483890734800,6.57973486328125,0.02352934414744377,-0.19567343354662878,-0.064173927616328
1761315483900717000,6.589717041015625,-0.021520926934480666,-0.14580346895698457,-0.08254135895594954
1761315483910700000,6.599699951171875,-0.10136720158755778,-0.06737151808124035,-0.07630728687196969
1761315483920682000,6.609681884765625,-0.14379296938478947,-0.04583332948470488,-0.05912921144738793
1761315483930664000,6.619663818359375,-0.10974164670109748,-0.09446626309268176,-0.03639247898235917
1761315483940646000,6.62964599609375,-0.050769817772507664,-0.15022899378165602,-0.01952317724600434
1761315483950627800,6.6396279296875,0.022268530431389807,-0.1766619504161179,0.003328267639875412
1761315483960609800,6.64960986328125,0.021724340552091596,-0.19097276330869645,0.010615648169070482
1761315483970592800,6.6595927734375,-0.047314708882570264,-0.18974698437340556,0.009598726211488247
1761315483980574700,6.66957470703125,-0.038977088648080825,-0.19613843897618352,0.04761559152528643
1761315483990557000,6.679556884765625,-0.00020750527083873748,-0.18096607735082507,0.08492854635342956
1761315484000539000,6.689538818359375,0.05281330629885196,-0.15880268779434262,0.11536197080090642
1761315484010520800,6.699520751953125,0.040482817035913464,-0.15300476037161423,0.1297176822811365
1761315484020502800,6.709502685546875,-0.061465983831882474,-0.17660338862929492,0.11645239638611674
1761315484030485800,6.71948583984375,-0.1911129389643669,-0.20293599016182123,0.05747326093390584
1761315484040467700,6.7294677734375,-0.3343605494260788,-0.22237432040227575,0.017435703447461127
1761315484050450000,6.739449951171875,-0.43768940647542476,-0.210450274782069,0.004852846858650446
1761315484060432000,6.749431884765625,-0.42158465937078,-0.16481151802139354,0.01258271045833826
1761315484070413800,6.759413818359375,-0.31938509861230846,-0.12906865292103029,0.018081161744147537
1761315484080396000,6.76939599609375,-0.16157295622527598,-0.1325075869943015,0.0309285144880414
1761315484090377700,6.779377685546875,-0.014124386942386626,-0.1575206486271694,0.05762874375656247
1761315484100361000,6.78936083984375,0.08135083399713039,-0.1807418584072031,0.07241451721712946
1761315484110342700,6.7993427734375,0.1403530580639839,-0.19173678821744397,0.06451806487888097
1761315484120324900,6.809324951171875,0.13609072444438933,-0.18464549651592968,0.06268588101565838
1761315484130307000,6.81930712890625,0.10403612853586673,-0.15218253900222478,0.042917350706458086
1761315484140288800,6.829288818359375,0.04506313056349754,-0.1301491325009614,0.003550824349373579
1761315484150271000,6.83927099609375,-0.028891747963428496,-0.12708485869267022,-0.015469225680083035
1761315484160253700,6.849253662109375,-0.12065583942532539,-0.13756359174223615,-0.040998657603561875
1761315484170236000,6.85923583984375,-0.16236907503902911,-0.15030627853525802,-0.022015432453155515
1761315484180217900,6.8692177734375,-0.16984920166134834,-0.15549210194163024,-0.023741671723872423
1761315484190199800,6.87919970703125,-0.08820610671937465,-0.1549220469687134,-0.04994008895009756
1761315484200182000,6.88918212890625,-0.004435936620831489,-0.18355043128822,-0.036790099997818466
1761315484210163700,6.899163818359375,0.028924481189250943,-0.1940438230508007,0.010040478629618883
1761315484220147000,6.90914697265625,0.02742985871732235,-0.18010235492726787,0.03192819304987788
1761315484230128600,6.919128662109375,-0.02048164701461792,-0.15899974473640321,0.02994242606014013
1761315484240110800,6.92911083984375,-0.01674538309574127,-0.14774819155028088,0.010522563058137892
1761315484250092800,6.9390927734375,0.040972061857581135,-0.16673651300091297,-0.01294058398529887
1761315484260074800,6.94907470703125,0.08152735960781574,-0.23457889999691395,-0.030920915703475473
1761315484270057000,6.959056884765625,0.07012626014947891,-0.2515653253069147,0.012729863844066857
1761315484280039000,6.969038818359375,0.050102878296375275,-0.2251390724078752,0.025335516786575314
1761315484290022000,6.97902197265625,0.054769701063632964,-0.19080405567828565,0.04984861127436161
1761315484300003800,6.98900390625,0.04377309075295925,-0.2044136614989489,0.08440583765357733
1761315484309985800,6.99898583984375,-0.013534604355692863,-0.21323267204221336,0.12589417847022413
1761315484319967700,7.0089677734375,-0.1165332065373659,-0.21988380049448458,0.09700491472482681
1761315484329950000,7.018949951171875,-0.19978899737298486,-0.2400750497277826,0.09407032257765531
1761315484339933000,7.028932861328125,-0.2238338898271322,-0.25269456679886204,0.10645298041924833
1761315484349915000,7.038914794921875,-0.2281225269317627,-0.24138313665166497,0.13508826940357685
1761315484359896800,7.048896728515625,-0.22799802376925943,-0.23729345618523656,0.13834639441668986
1761315484369878800,7.058878662109375,-0.2277683066666126,-0.21782504133377223,0.14481822077929973
1761315484379861000,7.068861083984375,-0.17604513369202612,-0.18817604526225476,0.18149141639918087
1761315484389842700,7.0788427734375,-0.07043196509778499,-0.19517960388138889,0.20891221502721308
1761315484399825000,7.088824951171875,0.03511924417614937,-0.2089117035705596,0.2224856900885701
1761315484409808000,7.098807861328125,0.07160685409605502,-0.23531400933843105,0.21131956842988728
1761315484419789800,7.108789794921875,0.056817281243205064,-0.2645659689163789,0.1591894220896065
1761315484429771800,7.118771728515625,0.0703098000228405,-0.27965278941644356,0.09379472050666808
1761315484439753700,7.128753662109375,0.0695166038185358,-0.26008648541476576,0.08104483678787947
1761315484449736000,7.13873583984375,0.05778817210197448,-0.2320391341199167,0.10087459576502442
1761315484459717600,7.148717529296875,-0.008844985234737396,-0.20156214452534912,0.08197393433153628
1761315484469700900,7.158700927734375,-0.1068733977884054,-0.1927101084953174,0.025832214262336492
1761315484479682800,7.168682861328125,-0.21389526413679122,-0.18852918781517072,-0.01789046147763729
1761315484489664800,7.178664794921875,-0.2824643579721451,-0.1918119358128868,-0.04029913103207946
1761315484499647000,7.18864697265625,-0.2717132468551397,-0.16393378533879294,-0.03400938323810696
1761315484509628700,7.198628662109375,-0.19771978988349437,-0.15206836543749086,-0.021995120317488907
1761315484519611000,7.20861083984375,-0.0965086556404829,-0.13840395155651494,-0.020209698205441235
1761315484529592800,7.2185927734375,-0.008668459624052048,-0.17090850145593284,0.019973405231535433
1761315484539575800,7.228575927734375,0.05054068519175052,-0.1715722808605991,0.07000014955177902
1761315484549558000,7.23855810546875,0.0321592253267765,-0.1780864302612841,0.0836846837721765
1761315484559539700,7.248539794921875,-0.061255555951595306,-0.18223810658063738,0.08694763109087944
1761315484569522000,7.25852197265625,-0.14457213706374167,-0.1661442096635699,0.09463467846214771
1761315484579503900,7.26850390625,-0.18105039463341235,-0.15496800500229,0.09598375498354435
1761315484589485800,7.27848583984375,-0.1795230389356613,-0.13397421634760684,0.08699746158197522
1761315484599469000,7.288468994140625,-0.16883388713896275,-0.14369173750001937,0.07805515345260501
1761315484609450800,7.29845068359375,-0.1287158117622137,-0.16243061423422767,0.09519318912774324
1761315484619433000,7.308432861328125,-0.11425181760191917,-0.188357374912221,0.08016863847523928
1761315484629415000,7.318414794921875,-0.12721475954949854,-0.16449436009731142,0.08562135092318057
1761315484639396900,7.32839697265625,-0.10819032560586929,-0.11733358140112832,0.05524053344577551
1761315484649378800,7.33837890625,-0.02903320226073265,-0.11083316826485097,0.05329495233595371
1761315484659361800,7.34836181640625,0.03368658102452755,-0.15642938279174268,0.0664820584282279
1761315484669344000,7.358343994140625,0.06423369497954845,-0.2039589582676999,0.06503390544652939
1761315484679325700,7.36832568359375,0.021947043392062184,-0.2104761581419967,0.048200697936862706
1761315484689308000,7.378307861328125,-0.03798983117640018,-0.19651825034031642,0.005878828905522823
1761315484699289900,7.388289794921875,-0.057040568605065345,-0.2068793026938103,-0.025035657057166098
1761315484709271800,7.398271728515625,-0.06363865169584751,-0.2609478697507642,-0.03552987080365419
1761315484719255000,7.408255126953125,-0.09536416178047656,-0.29162187975477427,-0.031898820824921126
1761315484729236700,7.41823681640625,-0.08287292899787425,-0.27063721512146294,0.021030074677616358
1761315484739219000,7.428218994140625,-0.05726502501070499,-0.22999573692511766,0.09317001273706554
1761315484749201000,7.438200927734375,-0.01101589953303337,-0.19994424273362382,0.16522548738345502
1761315484759182800,7.448182861328125,0.013693594309687614,-0.19983555819476023,0.22241730102747678
1761315484769164800,7.458164794921875,-0.003016132950782776,-0.20270746036926282,0.23526479990184307
1761315484779147000,7.46814697265625,-0.09396014020144938,-0.2109161387281492,0.1700954315073788
1761315484789130000,7.4781298828125,-0.23757366136610505,-0.21897910673972218,0.1131252977900207
1761315484799112000,7.48811181640625,-0.31855858466029163,-0.20173666084203867,0.095391342048347
1761315484809094000,7.498093994140625,-0.34097090747654435,-0.19991183830136433,0.0541603369936347
1761315484819075800,7.508075927734375,-0.2802811687141657,-0.2411187500944361,0.014203005136549473
1761315484829058000,7.51805810546875,-0.1944242554694414,-0.2856059439335018,0.044067251393944025
1761315484839039700,7.528039794921875,-0.10317162066102027,-0.29727924792934207,0.10482757117450237
1761315484849023000,7.53802294921875,-0.03660626786351204,-0.2654140371130779,0.11677446794733404
1761315484859004700,7.548004638671875,0.02546995682120323,-0.22884289536187424,0.11315262418836354
1761315484868987000,7.55798681640625,0.04037175787687301,-0.23314621857898307,0.1298451080530882
1761315484878968800,7.56796875,0.008974164572358131,-0.23597914044996723,0.15100816146060825
1761315484888950800,7.57795068359375,0.004629997888207435,-0.20986169777177274,0.13872633364498616
1761315484898933000,7.58793310546875,0.008528758892416954,-0.18390949212526903,0.11993410102203488
1761315484908914700,7.597914794921875,0.0752116005897522,-0.1904432230092585,0.112681791806221
1761315484918898000,7.60789794921875,0.1407107854604721,-0.20757762368889524,0.11585282305777073
1761315484928880400,7.61788037109375,0.1578425375252962,-0.2381723031126894,0.06962474036812782
1761315484938862600,7.627862548828125,0.065394555452466,-0.2623943604983389,0.005307897149771452
1761315484948844500,7.637844482421875,-0.06198679283559322,-0.2283918453924358,-0.01007306572496891
1761315484958826500,7.647826416015625,-0.14430033438503742,-0.19581711633363738,-0.0015652034901082515
1761315484968808400,7.657808349609375,-0.1562310106754303,-0.2034100922132842,0.046656683365255594
1761315484978791400,7.66779150390625,-0.09645371058285236,-0.1998834524570964,0.12487944846972822
1761315484988773600,7.677773681640625,-0.07183657119870185,-0.18733192258831113,0.20379954818859694
1761315484998755300,7.68775537109375,-0.08451952716112136,-0.15597924613775685,0.14023469238132238
1761315485008737500,7.697737548828125,-0.17945523439645766,-0.14547346068448386,0.07618877505883574
1761315485018719500,7.707719482421875,-0.24970599770843982,-0.1404376858738251,0.07998466021046043
1761315485028701400,7.717701416015625,-0.18162439512908457,-0.04487495561421383,0.0678781889617443
1761315485038684700,7.7276845703125,0.029285715717077252,-0.1719205097763799,0.12231135154739022
1761315485048666400,7.737666259765625,-0.06408464189767837,-0.29020404884610324,0.103894820369035
1761315485058648600,7.747648681640625,-0.12541384760737417,-0.31137492023389785,-0.052033115706592796
1761315485068630500,7.757630615234375,-0.1448416016548872,-0.2547387311786413,-0.053568946971744295
1761315485078612500,7.767612548828125,-0.14009996008574963,-0.23090852265479042,-0.0454820866279304
1761315485088594400,7.777594482421875,-0.13384089969098567,-0.20804611798347905,-0.09633943655341863
1761315485098576600,7.78757666015625,-0.053095630371570585,-0.20110035396618767,-0.13917597710862756
1761315485108559600,7.7975595703125,0.022321721923351287,-0.19661124411970377,-0.10266337887793779
1761315485118541600,7.80754150390625,0.07092004087567329,-0.20987143371449782,0.00009235445857048034
1761315485128523500,7.8175234375,0.11878770746588706,-0.2300852053068578,0.02088189837858081
1761315485138505500,7.82750537109375,0.14937866056263446,-0.21492948428904637,0.012211100666970015
