time,seconds_elapsed,z,y,x
1761315150490781200,0.08978125,-0.03702269122004509,-0.06118397414684296,0.23315511643886566
1761315150500762000,0.09976220703125,-0.08167217671871185,-0.08783795684576035,0.20342092216014862
1761315150510743000,0.109742919921875,-0.0948331281542778,-0.09565741568803787,0.13358217477798462
1761315150520725000,0.11972509765625,-0.09152095764875412,-0.07873355597257614,0.033498190343379974
1761315150530706200,0.1297060546875,-0.07393521815538406,-0.04137236624956131,-0.07547719031572342
1761315150540688100,0.139688232421875,-0.03930480778217316,0.022984784096479416,-0.16091299057006836
1761315150550669300,0.14966943359375,-0.00021924206521362066,0.07360919564962387,-0.22198235988616943
1761315150560650000,0.15964990234375,0.02836713008582592,0.10170474648475647,-0.25986823439598083
1761315150570632200,0.169632080078125,0.04033507779240608,0.11280045658349991,-0.2639433443546295
1761315150580613000,0.179613037109375,0.04152684286236763,0.12055184692144394,-0.2501990497112274
1761315150590595000,0.189594970703125,0.0365842841565609,0.11932839453220367,-0.23860949277877808
1761315150600576300,0.199576171875,0.033440154045820236,0.0915369763970375,-0.22490140795707703
1761315150610558000,0.209557861328125,0.039165742695331573,0.061111342161893845,-0.21098169684410095
1761315150620539100,0.2195390625,0.05239792540669441,0.03346346691250801,-0.18087705969810486
1761315150630521000,0.22952099609375,0.06473403424024582,0.008286701515316963,-0.14499005675315857
1761315150640502000,0.239501953125,0.071603924036026,-0.000935558695346117,-0.10811832547187805
1761315150650483000,0.24948291015625,0.08757290244102478,0.004927272442728281,-0.07546184211969376
1761315150660465000,0.25946484375,0.09872356057167053,0.023959819227457047,-0.050776466727256775
1761315150670445800,0.26944580078125,0.11577468365430832,0.03845025226473808,-0.042290255427360535
1761315150680428000,0.279427978515625,0.12324458360671997,0.042186133563518524,-0.05849399417638779
1761315150690409000,0.289408935546875,0.12028264254331589,0.03380816429853439,-0.08277914673089981
1761315150700390100,0.29939013671875,0.11960060894489288,0.048498425632715225,-0.09531091898679733
1761315150710372000,0.3093720703125,0.10896839201450348,0.08015892654657364,-0.09273014962673187
1761315150720352800,0.319352783203125,0.10660777240991592,0.11373712867498398,-0.09337862581014633
1761315150730335000,0.3293349609375,0.09682358056306839,0.13654763996601105,-0.09937340766191483
1761315150740316000,0.33931591796875,0.07596783339977264,0.13995541632175446,-0.12290482223033905
1761315150750298000,0.349298095703125,0.04492802172899246,0.12109342962503433,-0.15842954814434052
1761315150760279000,0.359279052734375,0.014014049433171749,0.10819361358880997,-0.1898479163646698
1761315150770260000,0.369260009765625,-0.003960156813263893,0.10001398622989655,-0.20852839946746826
1761315150780242000,0.379241943359375,0.0009459183784201741,0.10333787649869919,-0.20743437111377716
1761315150790222800,0.389222900390625,0.014492112211883068,0.1250448375940323,-0.19912083446979523
1761315150800205000,0.399205078125,0.037789709866046906,0.14795280992984772,-0.18646176159381866
1761315150810186000,0.40918603515625,0.0641435831785202,0.16628238558769226,-0.17161734402179718
1761315150820168000,0.41916796875,0.08678924292325974,0.17491582036018372,-0.16271759569644928
1761315150830148900,0.42914892578125,0.11130499094724655,0.15762530267238617,-0.14577330648899078
1761315150840130000,0.439130126953125,0.13000011444091797,0.10140757262706757,-0.12654368579387665
1761315150850112000,0.449112060546875,0.14490343630313873,0.04226250946521759,-0.0941830724477768
1761315150860093000,0.459093017578125,0.16368457674980164,0.003929504193365574,-0.05572036653757095
1761315150870075000,0.469074951171875,0.1784619241952896,-0.032419733703136444,-0.03808305412530899
1761315150880055800,0.479055908203125,0.1933428794145584,-0.07604790478944778,-0.04262161627411842
1761315150890038000,0.4890380859375,0.20161180198192596,-0.10137616097927094,-0.0665995329618454
1761315150900019000,0.49901904296875,0.19816380739212036,-0.09555982053279877,-0.09478243440389633
1761315150910000000,0.509000244140625,0.18686695396900177,-0.0796462818980217,-0.1309783160686493
1761315150919982000,0.518982177734375,0.16868555545806885,-0.060441162437200546,-0.16024325788021088
1761315150929963000,0.528962890625,0.15658633410930634,-0.053399909287691116,-0.17836378514766693
1761315150939945000,0.538945068359375,0.14923042058944702,-0.05662472918629646,-0.1785920113325119
1761315150949926000,0.54892578125,0.1534607857465744,-0.05410159006714821,-0.16374127566814423
1761315150959908000,0.558908203125,0.16223563253879547,-0.0417594350874424,-0.14065726101398468
1761315150969889000,0.568888916015625,0.1649114191532135,-0.03607754036784172,-0.11631856858730316
1761315150979870200,0.5788701171875,0.15762953460216522,-0.043266475200653076,-0.08526904135942459
1761315150989852000,0.588851806640625,0.136891707777977,-0.05610334873199463,-0.05505857244133949
1761315150999833000,0.5988330078125,0.105181984603405,-0.08805648237466812,-0.02651561237871647
1761315151009815000,0.60881494140625,0.07660946249961853,-0.1055462509393692,-0.01100855227559805
1761315151019796000,0.6187958984375,0.0575348436832428,-0.09943589568138123,-0.012639205902814865
1761315151029778000,0.62877783203125,0.05353304371237755,-0.07798480242490768,-0.030931662768125534
1761315151039758800,0.6387587890625,0.060011181980371475,-0.04927965626120567,-0.056272171437740326
1761315151049741000,0.648740966796875,0.060538966208696365,-0.015866192057728767,-0.07202652841806412
1761315151059722000,0.658721923828125,0.0557418167591095,0.009577915072441101,-0.08501529693603516
1761315151069703200,0.668703125,0.04896076023578644,0.0008909082971513271,-0.07909167557954788
1761315151079684900,0.678684814453125,0.04415668547153473,-0.026904769241809845,-0.052319981157779694
1761315151089665800,0.688665771484375,0.04482530802488327,-0.047429025173187256,-0.004021485336124897
1761315151099648000,0.69864794921875,0.0493987537920475,-0.042955182492733,0.045842744410037994
1761315151109629000,0.70862890625,0.0632222518324852,-0.03613075986504555,0.05651036277413368
1761315151119611100,0.718611083984375,0.07805686444044113,-0.04715784639120102,0.008784385398030281
1761315151129592000,0.728592041015625,0.0969381183385849,-0.08228689432144165,-0.06298402696847916
1761315151139573000,0.738572998046875,0.1017102375626564,-0.0576971210539341,-0.10562975704669952
1761315151149555000,0.748554931640625,0.1098785251379013,0.006836916320025921,-0.1195087730884552
1761315151159535900,0.758535888671875,0.11707492172718048,0.01781206950545311,-0.13238036632537842
1761315151169518000,0.76851806640625,0.12775297462940216,-0.0032827744726091623,-0.14210456609725952
1761315151179499000,0.7784990234375,0.13703729212284088,-0.029250459745526314,-0.13794976472854614
1761315151189481000,0.78848095703125,0.1384265124797821,-0.02395171858370304,-0.10891520231962204
1761315151199462000,0.7984619140625,0.1343976855278015,-0.011100634932518005,-0.06498635560274124
1761315151209443000,0.808443115234375,0.1151033267378807,0.012370533309876919,0.00207582488656044
1761315151219425000,0.818425048828125,0.0822303295135498,0.012521001510322094,0.06555866450071335
1761315151229406000,0.828406005859375,0.05108841881155968,-0.024299239739775658,0.12515296041965485
1761315151239388000,0.838387939453125,0.035671379417181015,-0.048234667629003525,0.1534131020307541
1761315151249368800,0.848368896484375,0.04392768815159798,-0.03965777903795242,0.14908817410469055
1761315151259351000,0.85835107421875,0.07279875129461288,-0.0026808546390384436,0.11641918122768402
1761315151269332000,0.86833203125,0.09781360626220703,0.0464937798678875,0.06716417521238327
1761315151279313200,0.878313232421875,0.10667767375707626,0.09498488903045654,0.016090072691440582
1761315151289294800,0.888294921875,0.10423563420772552,0.12018289417028427,-0.03419775888323784
1761315151299276000,0.898276123046875,0.09547010809183121,0.1178068146109581,-0.06387176364660263
1761315151309258000,0.908258056640625,0.0844036266207695,0.09049378335475922,-0.07840920984745026
1761315151319239000,0.918239013671875,0.05947856605052948,0.07703416794538498,-0.059633392840623856
1761315151329221000,0.92822119140625,0.03310702368617058,0.052423760294914246,-0.03746231645345688
1761315151339202000,0.9382021484375,0.008284765295684338,0.023422203958034515,-0.018548546358942986
1761315151349184000,0.94818408203125,-0.013470517471432686,-0.0029955843929201365,-0.004528494086116552
1761315151359165000,0.9581650390625,-0.01849563792347908,0.0013887775130569935,0.004409340675920248
1761315151369146000,0.96814599609375,-0.005739389453083277,0.02680910937488079,-0.002765691839158535
1761315151379128000,0.978128173828125,0.010511218570172787,0.03996938467025757,-0.025059813633561134
1761315151389109000,0.98810888671875,0.02171902544796467,0.06381527334451675,-0.05030130594968796
1761315151399091000,0.998091064453125,0.02432546205818653,0.08589421212673187,-0.0771544948220253
1761315151409071900,1.00807177734375,0.01781194470822811,0.0759621188044548,-0.10760970413684845
1761315151419054000,1.01805419921875,0.013541033491492271,0.06457044184207916,-0.12144109606742859
1761315151429035000,1.028034912109375,0.021256331354379654,0.05319826304912567,-0.11693098396062851
1761315151439016200,1.03801611328125,0.035272810608148575,0.03073716163635254,-0.0975722000002861
1761315151448998000,1.047997802734375,0.05591590702533722,-0.0006017247214913368,-0.05996491014957428
1761315151458978800,1.057978759765625,0.07694928348064423,-0.017453409731388092,-0.011112947948276997
1761315151468961000,1.0679609375,0.08447066694498062,-0.013955365866422653,0.031209051609039307
1761315151478942000,1.07794189453125,0.09737474471330643,-0.00713554210960865,0.05126452073454857
1761315151488924000,1.087923828125,0.10344470292329788,-0.0021860951092094183,0.04706615209579468
1761315151498904800,1.09790478515625,0.11227654665708542,-0.0012459992431104183,0.020984480157494545
1761315151508886000,1.107885986328125,0.12108414620161057,0.002826250158250332,-0.02326313778758049
1761315151518868000,1.117867919921875,0.12598995864391327,0.0012861443683505058,-0.0751766711473465
1761315151528849000,1.127848876953125,0.1268579363822937,-0.011095000430941582,-0.11377476900815964
1761315151538831000,1.1378310546875,0.12037713080644608,-0.018026143312454224,-0.1225043460726738
1761315151548812000,1.14781201171875,0.1145479828119278,-0.01970588229596615,-0.09413470327854156
1761315151558794000,1.1577939453125,0.1035320833325386,-0.03266562521457672,-0.05534549802541733
1761315151568775000,1.16777490234375,0.09027893841266632,-0.051463305950164795,-0.005029755644500256
1761315151578756000,1.177756103515625,0.07087115198373795,-0.07556305080652237,0.0357578881084919
1761315151588738000,1.187738037109375,0.05189887061715126,-0.09393328428268433,0.06492733955383301
1761315151598719000,1.197718994140625,0.0451754555106163,-0.10178561508655548,0.07544203102588654
1761315151608701000,1.207700927734375,0.04702094942331314,-0.11547638475894928,0.07044929265975952
1761315151618681900,1.217681884765625,0.04712321609258652,-0.12096355855464935,0.04797966778278351
1761315151628664000,1.2276640625,0.040370289236307144,-0.11469991505146027,0.024709124118089676
1761315151638644700,1.237644775390625,0.024565761908888817,-0.11087028682231903,0.0022687953896820545
1761315151648626700,1.247626708984375,0.007168807089328766,-0.08492554724216461,-0.01169633399695158
1761315151658607600,1.257607666015625,-0.005152840167284012,-0.03439978510141373,-0.009259807877242565
1761315151668588500,1.267588623046875,-0.01640510745346546,0.01468257699161768,-0.005680473987013102
1761315151678570800,1.27757080078125,-0.02788279950618744,0.047355037182569504,-0.0019576414488255978
1761315151688551700,1.2875517578125,-0.034178052097558975,0.07250824570655823,0.002909341361373663
1761315151698534000,1.297533935546875,-0.03246830403804779,0.06786422431468964,0.009214108809828758
1761315151708514800,1.307514892578125,-0.029185140505433083,0.04857248812913895,0.014020904898643494
1761315151718496800,1.317496826171875,-0.01379952672868967,0.020579468458890915,0.017811115831136703
1761315151728477700,1.327477783203125,-0.00379237812012434,-0.004202951677143574,0.026895849034190178
1761315151738458600,1.337458740234375,0.0051380000077188015,-0.007831241935491562,0.02063928358256817
1761315151748440800,1.34744091796875,0.00295173074118793,-0.023790474981069565,0.009236588142812252
1761315151758421800,1.357421875,-0.01019336562603712,-0.020735828205943108,-0.00010018819011747837
1761315151768403700,1.36740380859375,-0.022715948522090912,0.01716720685362816,-0.018568679690361023
1761315151778384600,1.377384521484375,-0.02511678822338581,0.05613245069980621,-0.05157456547021866
1761315151788366800,1.387366943359375,-0.011830045841634274,0.07872770726680756,-0.08145144581794739
1761315151798347800,1.39734765625,-0.0001518181525170803,0.07609410583972931,-0.09643279016017914
1761315151808328700,1.40732861328125,0.007232199888676405,0.05555300414562225,-0.08139019459486008
1761315151818310700,1.417310546875,0.01563154347240925,0.03211958706378937,-0.04814888536930084
1761315151828291600,1.42729150390625,0.025151941925287247,0.002414821647107601,-0.012988767586648464
1761315151838273800,1.437273681640625,0.03876016288995743,-0.03626013547182083,0.015413845889270306
1761315151848254700,1.447254638671875,0.05695544183254242,-0.07325722277164459,0.03616860508918762
1761315151858236700,1.457236572265625,0.06780009716749191,-0.08353382349014282,0.04151596873998642
1761315151868217600,1.467217529296875,0.07665321230888367,-0.07804140448570251,0.04155224189162254
1761315151878198500,1.477198486328125,0.08087725192308426,-0.06741752475500107,0.030650056898593903
1761315151888180700,1.4871806640625,0.07768546789884567,-0.05547191575169563,0.005718340165913105
1761315151898161700,1.49716162109375,0.06941395252943039,-0.029596908017992973,-0.024460334330797195
1761315151908143900,1.507143798828125,0.06491880118846893,-0.0020731394179165363,-0.052918609231710434
1761315151918124800,1.517124755859375,0.057288311421871185,0.02529483661055565,-0.07472296804189682
1761315151928106800,1.527106689453125,0.059194620698690414,0.045999396592378616,-0.08733256161212921
1761315151938087700,1.537087646484375,0.05699671432375908,0.045156240463256836,-0.08414528518915176
1761315151948068600,1.547068603515625,0.04743894934654236,0.05742957442998886,-0.06338126212358475
1761315151958050800,1.55705078125,0.034065086394548416,0.07355208694934845,-0.033874236047267914
1761315151968031700,1.56703173828125,0.016728688031435013,0.04854731634259224,-0.009470040909945965
1761315151978013700,1.577013671875,0.005617449060082436,-0.0018735115882009268,0.008114011958241463
1761315151987994600,1.58699462890625,0.001550611574202776,-0.043122969567775726,0.02395380474627018
1761315151997976800,1.596976806640625,-0.0011748673859983683,-0.06773404031991959,0.03314250707626343
1761315152007957800,1.606957763671875,-0.0062440563924610615,-0.09449708461761475,0.03860198333859444
1761315152017938700,1.616938720703125,-0.00953146256506443,-0.101865254342556,0.04176981374621391
1761315152027920600,1.626920654296875,-0.007734846323728561,-0.10310585796833038,0.03855128213763237
1761315152037901600,1.636901611328125,0.0010703630978241563,-0.0807424932718277,0.022050602361559868
1761315152047883800,1.6468837890625,0.008762036450207233,-0.05332593992352486,-0.00613405741751194
1761315152057864700,1.65686474609375,0.01755099929869175,-0.02085375413298607,-0.03286287188529968
1761315152067846700,1.6668466796875,0.024339204654097557,0.010028409771621227,-0.06010259687900543
1761315152077827600,1.67682763671875,0.018785981461405754,0.028630856424570084,-0.07983129471540451
1761315152087809800,1.686809814453125,0.015500144101679325,0.03200714662671089,-0.09139334410429001
1761315152097790700,1.696790771484375,0.009690457955002785,0.017953112721443176,-0.0839114636182785
1761315152107771600,1.706771728515625,0.00604235427454114,0.0012009539641439915,-0.06080541014671326
1761315152117753900,1.71675390625,0.002714201807975769,-0.038617830723524094,-0.0353889986872673
1761315152127734800,1.72673486328125,-0.0017512808553874493,-0.068931445479393,-0.012554991990327835
1761315152137716700,1.736716796875,0.006502920296043158,-0.09728186577558517,0.01368087250739336
1761315152147697700,1.74669775390625,0.01442020945250988,-0.10461382567882538,0.036303095519542694
1761315152157679900,1.756679931640625,0.015073483809828758,-0.0909198448061943,0.04440150409936905
1761315152167660800,1.766660888671875,0.010559157468378544,-0.06392932683229446,0.03308364748954773
1761315152177641700,1.776641845703125,0.00854687299579382,-0.039145417511463165,0.004440551623702049
1761315152187623700,1.786623779296875,0.003865116275846958,-0.02756388857960701,-0.04071696847677231
1761315152197604600,1.7966044921875,-0.0039616478607058525,-0.012441928498446941,-0.07690373808145523
1761315152207586800,1.8065869140625,-0.006594691425561905,0.011434201151132584,-0.0983361005783081
1761315152217567700,1.816567626953125,-0.009320436976850033,0.02598438411951065,-0.10431516915559769
1761315152227549700,1.8265498046875,-0.016559552401304245,0.018344786018133163,-0.09238611906766891
1761315152237530600,1.836530517578125,-0.013773354701697826,0.0069981226697564125,-0.0674072653055191
1761315152247511600,1.846511474609375,-0.011115520261228085,-0.005397028289735317,-0.02773841843008995
1761315152257493800,1.85649365234375,-0.006001717410981655,-0.005680388770997524,0.015060178004205227
1761315152267474700,1.866474609375,-0.0029030160512775183,-0.0037635876797139645,0.044554952532052994
1761315152277456600,1.87645654296875,0.010123836807906628,0.0029907217249274254,0.05792881175875664
1761315152287437600,1.8864375,0.016752175986766815,0.005905212368816137,0.05343025550246239
1761315152297419800,1.896419677734375,0.031316738575696945,0.012939153239130974,0.03444031998515129
1761315152307400700,1.906400634765625,0.04345973581075668,0.025925155729055405,0.014171694405376911
1761315152317383000,1.9163828125,0.05114348977804184,0.030183549970388412,-0.003929012455046177
1761315152327363800,1.92636376953125,0.058245234191417694,0.022855274379253387,-0.011968882754445076
1761315152337344800,1.9363447265625,0.061383236199617386,0.011487306095659733,-0.010505741462111473
1761315152347326700,1.94632666015625,0.060573723167181015,-0.0017385168466717005,0.0024434493388980627
1761315152357307600,1.9563076171875,0.056725189089775085,-0.01150832325220108,0.012341087684035301
1761315152367289900,1.966289794921875,0.04864872619509697,-0.011136757209897041,0.012966185808181763
1761315152377270800,1.976270751953125,0.048211969435214996,-0.004213337786495686,0.013017584569752216
1761315152387252700,1.986252685546875,0.0541733093559742,0.0027078227140009403,0.00264963461086154
1761315152397233700,1.996233642578125,0.054763466119766235,0.008442940190434456,-0.019397078081965446
1761315152407214600,2.006214599609375,0.0627678707242012,0.018553096801042557,-0.04379136860370636
1761315152417196800,2.01619677734375,0.06477722525596619,0.016901405528187752,-0.05927605181932449
1761315152427177700,2.026177734375,0.06553560495376587,0.015722183510661125,-0.06593166291713715
1761315152437159700,2.03615966796875,0.062089212238788605,0.0004090080037713051,-0.0683644637465477
1761315152447140600,2.046140625,0.059356603771448135,-0.0049760122783482075,-0.06305848807096481
1761315152457122800,2.056122802734375,0.06560597568750381,-0.005790939554572105,-0.04587363824248314
1761315152467103700,2.066103759765625,0.07123556733131409,0.011283492669463158,-0.014625865034759045
1761315152477084700,2.076084716796875,0.07905274629592896,0.010169759392738342,0.015564527362585068
1761315152487066600,2.086066650390625,0.08226213604211807,0.006850122474133968,0.03231287747621536
1761315152497047600,2.096047607421875,0.08720362931489944,0.0014052893966436386,0.030749866738915443
1761315152507029800,2.10602978515625,0.0923481285572052,-0.009389853104948997,0.01916256546974182
1761315152517010700,2.1160107421875,0.0880654975771904,-0.018833423033356667,0.010483589954674244
1761315152526993000,2.125992919921875,0.08213837444782257,-0.02119937539100647,0.011759242042899132
1761315152536973800,2.135973876953125,0.06596127152442932,-0.020558884367346764,0.01316485833376646
1761315152546954800,2.145954833984375,0.04773826524615288,0.00040509365499019623,0.007916408590972424
1761315152556936700,2.155936767578125,0.028476420789957047,0.030651681125164032,-0.002528775716200471
1761315152566917600,2.165917724609375,0.018880920484662056,0.04933148995041847,-0.019666485488414764
1761315152576899800,2.17589990234375,0.009138279594480991,0.04592717066407204,-0.03324807062745094
1761315152586880800,2.185880859375,-0.0013170085148885846,0.029455333948135376,-0.04082215577363968
1761315152596862700,2.19586279296875,-0.017134586349129677,0.01103504654020071,-0.039787519723176956
1761315152606843600,2.20584375,-0.030990134924650192,0.00010966835543513298,-0.028088675811886787
1761315152616824600,2.215824462890625,-0.029635384678840637,-0.012761388905346394,-0.01549911592155695
1761315152626806800,2.225806884765625,-0.033063460141420364,-0.02369169518351555,0.002616344951093197
1761315152636787700,2.23578759765625,-0.027546459808945656,-0.02730986662209034,0.016059981659054756
1761315152646769400,2.245769287109375,-0.01994815282523632,-0.03276580572128296,0.031324103474617004
1761315152656750600,2.25575048828125,-0.013519282452762127,-0.038823164999485016,0.04584525153040886
1761315152666732500,2.265732666015625,-0.010519249364733696,-0.04705100134015083,0.05620814859867096
1761315152676713700,2.275713623046875,-0.0012272143503651023,-0.04448584467172623,0.06553054600954056
1761315152686695700,2.28569580078125,0.005062391981482506,-0.03838534280657768,0.0678488239645958
1761315152696676600,2.295676513671875,0.01167608518153429,-0.02621176466345787,0.06015388295054436
1761315152706657500,2.305657470703125,0.01324511505663395,-0.004599468782544136,0.04820742458105087
1761315152716639500,2.315639404296875,0.012827797792851925,0.016376918181777,0.02856954000890255
1761315152726620700,2.32562060546875,0.013673275709152222,0.024543074890971184,0.0013225803850218654
1761315152736602600,2.3356025390625,0.014709778130054474,0.015688329935073853,-0.022516174241900444
1761315152746583800,2.345583740234375,0.011192803271114826,0.001495202537626028,-0.0359504371881485
1761315152756565500,2.3555654296875,0.011713184416294098,-0.010899681597948074,-0.03799867257475853
1761315152766546700,2.365546630859375,0.017851609736680984,-0.021890759468078613,-0.02433314174413681
1761315152776527600,2.375527587890625,0.020488938316702843,-0.028566505759954453,0.00024597044102847576
1761315152786509600,2.385509521484375,0.030464762821793556,-0.0464819073677063,0.024445796385407448
1761315152796490800,2.39549072265625,0.04243753105401993,-0.04662492126226425,0.04832396283745766
1761315152806472400,2.405472412109375,0.062459688633680344,-0.03792472183704376,0.06967484951019287
1761315152816453600,2.41545361328125,0.07834838330745697,-0.0403740331530571,0.06642872095108032
1761315152826435600,2.425435546875,0.08026318997144699,-0.04730517417192459,0.050916336476802826
1761315152836416800,2.435416748046875,0.07976997643709183,-0.042926937341690063,0.023756621405482292
1761315152846398500,2.4453984375,0.06673339754343033,-0.03496208414435387,-0.00012048054486513138
1761315152856379400,2.45537939453125,0.05609806627035141,-0.021429765969514847,-0.009853801690042019
1761315152866360600,2.465360595703125,0.04756385087966919,-0.007727587129920721,-0.010975843295454979
1761315152876342500,2.475342529296875,0.038383401930332184,-0.009498322382569313,-0.011928189545869827
1761315152886323700,2.48532373046875,0.03310833126306534,-0.015507703647017479,-0.005395674146711826
1761315152896305700,2.4953056640625,0.03503672406077385,-0.017108796164393425,-0.0071890465915203094
1761315152906286600,2.50528662109375,0.03697490319609642,-0.007711183279752731,0.005038436967879534
1761315152916268500,2.5152685546875,0.037185560911893845,-0.006686132866889238,0.008419852703809738
1761315152926249500,2.52524951171875,0.030104998499155045,-0.014058109372854233,0.008973043411970139
1761315152936230700,2.535230712890625,0.015146024525165558,-0.0349213145673275,0.009200210683047771
1761315152946212600,2.545212646484375,0.011061165481805801,-0.026009555906057358,0.009108757600188255
1761315152956193800,2.55519384765625,0.011746397241950035,-0.0020901085808873177,0.011498678475618362
1761315152966175500,2.565175537109375,0.01220805011689663,0.010354902595281601,0.01053706556558609
1761315152976156700,2.57515673828125,0.006724068429321051,0.012412460520863533,0.009427858516573906
1761315152986138600,2.585138671875,0.007417580112814903,0.0124519569799304,0.003043143078684807
1761315152996119800,2.595119873046875,0.00917606521397829,0.006826828233897686,-0.004147924482822418
1761315153006101500,2.6051015625,0.00466032512485981,-0.008414948359131813,-0.014125017449259758
1761315153016082400,2.61508251953125,-0.0021302029490470886,-0.026902345940470695,-0.021486792713403702
1761315153026063600,2.625063720703125,-0.007200413383543491,-0.04710319638252258,-0.028361037373542786
1761315153036045600,2.635045654296875,-0.010553865693509579,-0.05251900106668472,-0.015947511419653893
1761315153046026800,2.64502685546875,-0.007205739617347717,-0.03324410319328308,0.0031215213239192963
1761315153056008700,2.6550087890625,-0.0006285304552875459,-0.02102152816951275,0.013649795204401016
1761315153065989600,2.66498974609375,0.004560478962957859,-0.015899844467639923,0.01568334735929966
1761315153075971600,2.6749716796875,0.011012785136699677,-0.017720116302371025,0.010068338364362717
1761315153085952500,2.684952392578125,0.018077300861477852,-0.021576184779405594,0.0014126856112852693
1761315153095933700,2.69493359375,0.026824718341231346,-0.016606992110610008,-0.004825768992304802
1761315153105915600,2.70491552734375,0.03770401328802109,-0.01605776697397232,-0.0034854114055633545
1761315153115896600,2.714896484375,0.04343460500240326,-0.012398583814501762,0.0047829048708081245
1761315153125878500,2.72487841796875,0.051899559795856476,-0.015298447571694851,0.01599729061126709
1761315153135859700,2.734859619140625,0.05390092357993126,-0.02224849909543991,0.02562595158815384
1761315153145841700,2.744841552734375,0.058725886046886444,-0.021767666563391685,0.041347190737724304
1761315153155822600,2.754822509765625,0.0555010624229908,-0.014775805175304413,0.05186188220977783
1761315153165804500,2.764804443359375,0.049401286989450455,-0.0027837229426950216,0.050762854516506195
1761315153175785500,2.774785400390625,0.04549895599484444,0.005676074419170618,0.043962471187114716
1761315153185766700,2.7847666015625,0.040202971547842026,0.012627005577087402,0.02567281201481819
1761315153195748600,2.79474853515625,0.03752143681049347,0.017919771373271942,0.008114056661725044
1761315153205729800,2.804729736328125,0.03535238653421402,0.02376013621687889,-0.005496213212609291
1761315153215711500,2.81471142578125,0.03199334070086479,0.023885037750005722,-0.01673395372927189
1761315153225692400,2.8246923828125,0.024792756885290146,0.007040972821414471,-0.017345044761896133
1761315153235674600,2.834674560546875,0.016249069944024086,0.0033104168251156807,-0.013368412852287292
1761315153245655600,2.844655517578125,0.014051107689738274,0.009067287668585777,-0.002936128294095397
1761315153255636700,2.85463671875,0.017623471096158028,0.014239412732422352,0.002006166148930788
1761315153265618700,2.86461865234375,0.021192651242017746,0.014779612421989441,0.008230920881032944
1761315153275599600,2.874599609375,0.02699647843837738,0.004007125739008188,0.01160487998276949
1761315153285581600,2.88458154296875,0.02683408558368683,-0.010140066035091877,0.006818602792918682
1761315153295562500,2.8945625,0.028486043214797974,-0.017572948709130287,0.005862793885171413
1761315153305544700,2.904544677734375,0.02684534341096878,-0.01670563407242298,-0.003798962803557515
1761315153315525600,2.914525634765625,0.02232542634010315,-0.005116356071084738,-0.01813742145895958
1761315153325507600,2.924507568359375,0.015322960913181305,0.012912728823721409,-0.027518009766936302
1761315153335488500,2.934488525390625,0.006961167324334383,0.008391479961574078,-0.036920566111803055
1761315153345469700,2.9444697265625,0.004011424258351326,0.0006468533538281918,-0.036867011338472366
1761315153355451600,2.95445166015625,0.010317257605493069,-0.0004117530770599842,-0.029760101810097694
1761315153365432800,2.964432861328125,0.021501604467630386,0.003285260871052742,-0.014814662747085094
1761315153375414500,2.97441455078125,0.03463711217045784,0.006876000203192234,-0.004620615392923355
1761315153385395500,2.9843955078125,0.039744190871715546,0.020101141184568405,0.00877408031374216
1761315153395377700,2.994377685546875,0.047691330313682556,0.03250587731599808,0.015796303749084473
1761315153405358600,3.004358642578125,0.040979184210300446,0.03096095286309719,0.01853892020881176
1761315153415339800,3.01433984375,0.03188449144363403,0.0387301966547966,0.018798578530550003
1761315153425321500,3.024321533203125,0.02670120634138584,0.044476915150880814,0.016632605344057083
1761315153435302700,3.034302734375,0.026582961902022362,0.044795431196689606,0.004344780929386616
1761315153445284600,3.04428466796875,0.031641747802495956,0.039598967880010605,0.0022416457068175077
1761315153455265500,3.054265625,0.03887569159269333,0.039307884871959686,0.011943008750677109
1761315153465247700,3.064247802734375,0.04616616293787956,0.04457015171647072,0.026816440746188164
1761315153475228700,3.074228759765625,0.051963601261377335,0.04146650433540344,0.043254535645246506
1761315153485210600,3.084210693359375,0.05538814514875412,0.03543836250901222,0.05960662662982941
1761315153495191600,3.094191650390625,0.0491478256881237,0.04621005058288574,0.07218659669160843
1761315153505172700,3.1041728515625,0.04551941156387329,0.05119634419679642,0.07396020740270615
1761315153515154700,3.11415478515625,0.03745988756418228,0.03632977977395058,0.0664876401424408
1761315153525135600,3.124135498046875,0.02426224760711193,0.020115448161959648,0.053944412618875504
1761315153535117600,3.13411767578125,0.014131315983831882,0.0023369835689663887,0.04664122685790062
1761315153545098500,3.144098388671875,0.008546515367925167,-0.006795590743422508,0.028690850362181664
1761315153555080700,3.154080810546875,0.0011338730109855533,-0.0042807674035429955,0.006967712193727493
1761315153565061600,3.1640615234375,-0.003194234101101756,0.005779380910098553,-0.019679388031363487
1761315153575042800,3.174042724609375,-0.0020466779824346304,0.022545043379068375,-0.04934513568878174
1761315153585024500,3.1840244140625,-0.0007249096524901688,0.035469066351652145,-0.056565798819065094
1761315153595005400,3.19400537109375,0.002612830139696598,0.05359826982021332,-0.055130090564489365
1761315153604987600,3.203987548828125,0.0040277400985360146,0.05799579620361328,-0.042557284235954285
1761315153614968600,3.213968505859375,0.0033411772456020117,0.0580943301320076,-0.010477111674845219
1761315153624950500,3.223950439453125,0.002777119865640998,0.04485469311475754,0.02300494723021984
1761315153634931500,3.233931396484375,0.0021360970567911863,0.020697688683867455,0.0488719642162323
1761315153644913700,3.24391357421875,0.012231845408678055,-0.001618427922949195,0.06557613611221313
1761315153654894600,3.25389453125,0.02430315688252449,-0.02136070653796196,0.06619212031364441
1761315153664875500,3.26387548828125,0.03873489424586296,-0.017549864947795868,0.05241366848349571
1761315153674857700,3.273857666015625,0.04331552982330322,-0.006600811146199703,0.024160724133253098
1761315153684838700,3.283838623046875,0.04082365706562996,0.008684409782290459,-0.021739793941378593
1761315153694820600,3.293820556640625,0.03114466182887554,0.007268673740327358,-0.07419900596141815
1761315153704801500,3.303801513671875,0.02268117666244507,-0.008883165195584297,-0.11132830381393433
1761315153714783700,3.31378369140625,0.012442921288311481,-0.016699276864528656,-0.1272878348827362
1761315153724764700,3.3237646484375,0.0037217289209365845,-0.019259659573435783,-0.11130597442388535
1761315153734746600,3.33374658203125,-0.0014104488072916865,-0.011411324143409729,-0.07418310642242432
1761315153744727600,3.3437275390625,0.00045351183507591486,0.002254233695566654,-0.02399664930999279
1761315153754708500,3.35370849609375,0.009968719445168972,0.014882676303386688,0.023621469736099243
1761315153764690700,3.363690673828125,0.03091166540980339,0.014181597158312798,0.049254730343818665
1761315153774671600,3.373671630859375,0.05058816447854042,0.0011267811059951782,0.06354418396949768
1761315153784653600,3.383653564453125,0.06223951652646065,-0.020609216764569283,0.058990053832530975
1761315153794634500,3.393634521484375,0.06424780935049057,-0.03629683330655098,0.04174076020717621
1761315153804616700,3.40361669921875,0.06303024291992188,-0.04687022417783737,0.021031729876995087
1761315153814597600,3.41359765625,0.04483579099178314,-0.04745771735906601,0.0005735938902944326
1761315153824578600,3.42357861328125,0.02100980654358864,-0.034198980778455734,-0.015437585301697254
1761315153834560500,3.433560546875,-0.006396783981472254,-0.006665358319878578,-0.016673292964696884
1761315153844541400,3.44354150390625,-0.02974090725183487,0.011971376836299896,-0.017518915235996246
1761315153854523600,3.453523681640625,-0.0479915514588356,0.019897475838661194,-0.018130378797650337
1761315153864504600,3.463504638671875,-0.053740471601486206,0.019079098477959633,-0.018213871866464615
1761315153874486800,3.47348681640625,-0.058959200978279114,0.01195753924548626,-0.02185601182281971
1761315153884467700,3.4834677734375,-0.05464417114853859,0.013980528339743614,-0.02199203334748745
1761315153894449700,3.49344970703125,-0.05282869562506676,0.006735397968441248,-0.0180891714990139
1761315153904430600,3.5034306640625,-0.044308267533779144,-0.004279513843357563,-0.010246401652693748
1761315153914411500,3.51341162109375,-0.03684103116393089,-0.010528088547289371,0.0056721121072769165
1761315153924393700,3.523393798828125,-0.031481895595788956,-0.017280451953411102,0.011235304176807404
1761315153934374700,3.533374755859375,-0.02657528966665268,-0.0208181943744421,0.005529481451958418
1761315153944356600,3.543356689453125,-0.02874748967587948,-0.017170973122119904,-0.002703367965295911
1761315153954337500,3.553337646484375,-0.03275128826498985,-0.013838028535246849,-0.010170872323215008
1761315153964319700,3.56331982421875,-0.0395330972969532,-0.005931000225245953,-0.02348385378718376
1761315153974300700,3.57330078125,-0.04102899506688118,0.012847746722400188,-0.028081800788640976
1761315153984282600,3.58328271484375,-0.03340616077184677,0.0453888401389122,-0.029900474473834038
1761315153994263600,3.593263671875,-0.03135339543223381,0.08043444156646729,-0.023045232519507408
1761315154004244500,3.603244384765625,-0.03185904026031494,0.10245420038700104,-0.01841113343834877
1761315154014226700,3.613226806640625,-0.026064271107316017,0.10874006152153015,-0.016574084758758545
1761315154024207600,3.62320751953125,-0.025040747597813606,0.10553459823131561,-0.021093545481562614
1761315154034189800,3.63318994140625,-0.01855595037341118,0.09072502702474594,-0.02192019112408161
1761315154044170500,3.64317041015625,-0.012740980833768845,0.06009361892938614,-0.02275487594306469
1761315154054152700,3.653152587890625,-0.00017299165483564138,0.033941108733415604,-0.008336521685123444
1761315154064133600,3.663133544921875,0.012337421998381615,0.008916663005948067,0.008066657930612564
1761315154074115600,3.673115478515625,0.021479252725839615,-0.015959125012159348,0.021257296204566956
1761315154084096800,3.6830966796875,0.03112059086561203,-0.026463022455573082,0.03481085225939751
1761315154094077700,3.69307763671875,0.04361321032047272,-0.01893400028347969,0.04579585790634155
1761315154104059600,3.7030595703125,0.044238775968551636,-0.007657985202968121,0.03932465612888336
1761315154114040600,3.71304052734375,0.042131148278713226,0.015392472967505455,0.026532696560025215
1761315154124022800,3.723022705078125,0.039040543138980865,0.042226407676935196,0.009364374913275242
1761315154134003700,3.733003662109375,0.03725649043917656,0.06949051469564438,-0.009360043331980705
1761315154143985400,3.7429853515625,0.0414462685585022,0.08608446270227432,-0.018847210332751274
1761315154153966600,3.752966552734375,0.04108594357967377,0.08397816866636276,-0.026148265227675438
1761315154163947500,3.762947509765625,0.03967651352286339,0.06274294853210449,-0.022152550518512726
1761315154173929700,3.7729296875,0.04072233662009239,0.03568895533680916,-0.007961364462971687
1761315154183910700,3.78291064453125,0.04797174781560898,0.006659821607172489,0.013709194958209991
1761315154193892600,3.792892578125,0.05074436590075493,-0.024744708091020584,0.036481622606515884
1761315154203873500,3.80287353515625,0.054052844643592834,-0.04773552715778351,0.056935012340545654
1761315154213855500,3.81285546875,0.050390198826789856,-0.053326565772295,0.06270421296358109
1761315154223836700,3.822836669921875,0.04364211857318878,-0.04146081581711769,0.049048855900764465
1761315154233818600,3.832818603515625,0.035478200763463974,-0.014210285618901253,0.02481861785054207
1761315154243799800,3.8427998046875,0.037560973316431046,0.0220918208360672,-0.004242953844368458
1761315154253780500,3.852780517578125,0.0419626459479332,0.04495612531900406,-0.03126898035407066
1761315154263762700,3.8627626953125,0.03779201954603195,0.05905957892537117,-0.04836752265691757
1761315154273743600,3.87274365234375,0.02917962335050106,0.06576541811227798,-0.046705443412065506
1761315154283725800,3.882725830078125,0.020240159705281258,0.057472385466098785,-0.032816752791404724
1761315154293706800,3.892706787109375,0.007956862449645996,0.03752743825316429,-0.0025161050725728273
1761315154303688400,3.9026884765625,-0.003993350546807051,0.010946499183773994,0.03525185212492943
1761315154313669600,3.912669677734375,-0.01664203405380249,-0.009854387491941452,0.06562254577875137
1761315154323651600,3.922651611328125,-0.02564719319343567,-0.022618837654590607,0.08377449959516525
1761315154333632800,3.9326328125,-0.029009966179728508,-0.03215401992201805,0.07791873812675476
1761315154343613700,3.94261376953125,-0.024830538779497147,-0.03191731870174408,0.05355087295174599
1761315154353595600,3.952595703125,-0.019595829769968987,-0.02043536677956581,0.017602726817131042
1761315154363576600,3.96257666015625,-0.013050396926701069,-0.0008954615332186222,-0.022498179227113724
1761315154373558500,3.97255859375,-0.0039549027569592,0.026558535173535347,-0.04915322735905647
1761315154383539700,3.982539794921875,-0.0012761270627379417,0.057347021996974945,-0.057484474033117294
1761315154393521700,3.992521728515625,-0.003796808887273073,0.07645945996046066,-0.043828584253787994
1761315154403502600,4.002502685546875,-0.004054154269397259,0.08029976487159729,-0.01406119391322136
1761315154413484500,4.012484619140625,-0.0015467883786186576,0.060614213347435,0.02630859985947609
1761315154423465700,4.0224658203125,0.00843941979110241,0.02925455942749977,0.05897592753171921
1761315154433446700,4.03244677734375,0.01859857887029648,-0.002070872811600566,0.0881657749414444
1761315154443428600,4.0424287109375,0.028881127014756203,-0.03331541270017624,0.09983673691749573
1761315154453409800,4.052409912109375,0.03368093818426132,-0.05407208949327469,0.09388457238674164
1761315154463391500,4.0623916015625,0.029437150806188583,-0.05973657965660095,0.07669664919376373
1761315154473372700,4.07237255859375,0.024445587769150734,-0.05087278038263321,0.04483592510223389
1761315154483354600,4.082354736328125,0.022851644083857536,-0.029329434037208557,0.01609141379594803
1761315154493335800,4.092335693359375,0.021046020090579987,-0.02043980173766613,-0.014128007926046848
1761315154503317500,4.1023173828125,0.01330482866615057,-0.030742531642317772,-0.04179735854268074
1761315154513298400,4.11229833984375,0.0026971925981342793,-0.032206207513809204,-0.05570119246840477
1761315154523279600,4.122279541015625,0.003023151308298111,-0.00895102508366108,-0.0580330416560173
1761315154533261600,4.132261474609375,0.009757752530276775,0.017371658235788345,-0.04976392537355423
1761315154543242800,4.14224267578125,0.01895024999976158,0.03084743022918701,-0.031750649213790894
1761315154553224400,4.152224365234375,0.027883557602763176,0.023656629025936127,-0.011862962506711483
1761315154563205600,4.16220556640625,0.033253226429224014,-0.004916069563478231,0.012016883119940758
1761315154573187600,4.1721875,0.04418337345123291,-0.028661612421274185,0.03544710949063301
1761315154583168500,4.18216845703125,0.04743679612874985,-0.04733850061893463,0.055375609546899796
1761315154593150700,4.192150634765625,0.04738646373152733,-0.06480617821216583,0.05249406769871712
1761315154603131600,4.202131591796875,0.04402368143200874,-0.065100759267807,0.035169050097465515
1761315154613112600,4.212112548828125,0.03792477771639824,-0.05946843698620796,0.015591088682413101
1761315154623094500,4.222094482421875,0.02830982580780983,-0.04474039375782013,-0.0072632161900401115
1761315154633075700,4.23207568359375,0.01572505757212639,-0.011261527426540852,-0.028725098818540573
1761315154643058200,4.24205810546875,0.015524766407907009,0.03319500759243965,-0.05182879418134689
1761315154653039000,4.2520390625,0.013590513728559017,0.052707456052303314,-0.06441701948642731
1761315154663021000,4.26202099609375,0.010594699531793594,0.033672891557216644,-0.06994970887899399
1761315154673002000,4.272001953125,0.00733632268384099,0.00573340430855751,-0.06394321471452713
1761315154682984200,4.281984130859375,0.004367333371192217,-0.02298670820891857,-0.05680922418832779
1761315154692965000,4.291965087890625,0.0007688702316954732,-0.052789609879255295,-0.04810148850083351
1761315154702946300,4.3019462890625,-0.0012986664660274982,-0.06672532111406326,-0.03175843879580498
1761315154712928000,4.311927978515625,-0.00456024007871747,-0.06139633432030678,-0.009629434905946255
1761315154722909000,4.321908935546875,-0.0015504189068451524,-0.05773208290338516,0.0031682078260928392
1761315154732891100,4.33189111328125,0.003871777094900608,-0.034593746066093445,0.01219259575009346
1761315154742872000,4.3418720703125,0.014054009690880775,-0.0035032310988754034,0.006902230903506279
1761315154752854000,4.35185400390625,0.018156344071030617,0.016799908131361008,-0.008540907874703407
1761315154762835000,4.3618349609375,0.010842152871191502,0.015561543405056,-0.02500128746032715
1761315154772817200,4.371817138671875,0.003269720822572708,0.007044487167149782,-0.03692292794585228
1761315154782798000,4.381798095703125,-0.0005346720572561026,-0.001218578778207302,-0.04114540293812752
1761315154792779000,4.391779052734375,0.002880565822124481,-0.003699313383549452,-0.044000044465065
1761315154802761000,4.401760986328125,0.016423717141151428,-0.004814439453184605,-0.0322953462600708
1761315154812742000,4.411741943359375,0.02137746289372444,-0.0077921198680996895,-0.013460141606628895
1761315154822724000,4.42172412109375,0.02499852143228054,-0.013506432995200157,0.0010035206796601415
1761315154832705000,4.431705078125,0.024234460666775703,-0.017172008752822876,0.011428996920585632
1761315154842687200,4.441687255859375,0.02079821191728115,-0.011648987419903278,0.0158197283744812
1761315154852668200,4.451668212890625,0.0214669331908226,-0.00978823658078909,0.018682627007365227
1761315154862650000,4.461650146484375,0.01779099740087986,-0.0046348655596375465,0.014917158521711826
1761315154872631000,4.471631103515625,0.014774699695408344,-0.0007288074120879173,0.010448373854160309
1761315154882613200,4.48161328125,0.010660087689757347,-0.0019630519673228264,-0.003209006739780307
1761315154892594200,4.49159423828125,0.007433401420712471,-0.00962416734546423,-0.01178145594894886
1761315154902575000,4.5015751953125,0.0037546814419329166,-0.018671773374080658,-0.024395598098635674
1761315154912557000,4.51155712890625,-0.004186864476650953,-0.023950690403580666,-0.03062499687075615
1761315154922538000,4.5215380859375,-0.0066823880188167095,-0.02509033866226673,-0.0257013738155365
1761315154932520200,4.531520263671875,-0.003849317319691181,-0.015243833884596825,-0.015388282015919685
1761315154942501000,4.541501220703125,0.0050119152292609215,0.004312607459723949,-0.008111114613711834
1761315154952483000,4.551483154296875,0.010084705427289009,0.006081745028495789,-0.00928503554314375
1761315154962464000,4.561464111328125,0.007683034520596266,-0.0002503250725567341,-0.01778094470500946
1761315154972446000,4.571446044921875,-0.0001112386817112565,-0.013947495259344578,-0.02697604149580002
1761315154982427100,4.58142724609375,-0.013572728261351585,-0.04003695771098137,-0.03369651362299919
1761315154992408000,4.591407958984375,-0.021438641473650932,-0.07651640474796295,-0.03984841704368591
1761315155002390300,4.601390380859375,-0.023470761254429817,-0.09228898584842682,-0.03614799678325653
1761315155012371000,4.611370849609375,-0.020217442885041237,-0.08403424918651581,-0.02036610245704651
1761315155022353200,4.621353271484375,-0.01915217936038971,-0.06981191039085388,-0.0030382450204342604
1761315155032334000,4.631333984375,-0.01685973070561886,-0.041466016322374344,0.009928686544299126
1761315155042316000,4.64131591796875,-0.010223327204585075,-0.006096408236771822,0.013890243135392666
1761315155052297200,4.651297119140625,0.0012897845590487123,0.02817394956946373,0.008435823954641819
1761315155062279000,4.66127880859375,0.020233767107129097,0.05743003636598587,0.0040621692314744
1761315155072260000,4.671260009765625,0.03156178817152977,0.06547331809997559,0.0039002487901598215
1761315155082241000,4.681240966796875,0.03388608992099762,0.05061328411102295,0.011469684541225433
1761315155092223200,4.69122314453125,0.03251935541629791,0.018987184390425682,0.026293104514479637
1761315155102204200,4.7012041015625,0.03420540317893028,-0.03334233537316322,0.03990638628602028
1761315155112186000,4.71118603515625,0.02870197966694832,-0.06715302914381027,0.052324436604976654
1761315155122167000,4.7211669921875,0.028745485469698906,-0.07991617918014526,0.061864759773015976
1761315155132149000,4.73114892578125,0.027304450049996376,-0.08513703942298889,0.06748536229133606
1761315155142130200,4.741130126953125,0.015295560471713543,-0.0773961991071701,0.06531140208244324
1761315155152112000,4.751112060546875,0.007185169495642185,-0.057246990501880646,0.057967737317085266
1761315155162093000,4.761093017578125,-0.0024463289882987738,-0.017738191410899162,0.04437034949660301
1761315155172074000,4.771073974609375,0.00037422485183924437,0.02131946198642254,0.018688157200813293
1761315155182056200,4.78105615234375,0.005448237992823124,0.05229110270738602,-0.0014462072867900133
1761315155192037000,4.791037109375,0.01547210942953825,0.07053828239440918,-0.017398541793227196
1761315155202019000,4.80101904296875,0.017953194677829742,0.06025046855211258,-0.018689017742872238
1761315155212000300,4.811000244140625,0.026088353246450424,0.04401450604200363,-0.009076337330043316
1761315155221982000,4.82098193359375,0.03181406483054161,0.019650068134069443,0.009273015893995762
1761315155231963100,4.830963134765625,0.030933091416954994,-0.013254085555672646,0.027679720893502235
1761315155241945000,4.840945068359375,0.029230423271656036,-0.04398709163069725,0.0464959517121315
1761315155251926300,4.85092626953125,0.030381973832845688,-0.057439517229795456,0.06256440281867981
1761315155261907200,4.8609072265625,0.023784838616847992,-0.06937097758054733,0.061918262392282486
1761315155271889000,4.870888916015625,0.013324740342795849,-0.07209432125091553,0.05717756971716881
1761315155281870000,4.8808701171875,0.0034692760091274977,-0.0614088736474514,0.047318361699581146
1761315155291852000,4.89085205078125,-0.0005046928417868912,-0.04198643937706947,0.02809380181133747
1761315155301833200,4.900833251953125,-0.0023269793018698692,-0.02548343874514103,0.007117465138435364
1761315155311815000,4.91081494140625,-0.0021498792339116335,-0.011498913168907166,-0.017556721344590187
1761315155321796000,4.920796142578125,0.003732833545655012,0.006937643513083458,-0.03313794359564781
1761315155331778000,4.930778076171875,0.007307061459869146,0.018612142652273178,-0.039052024483680725
1761315155341759000,4.940759033203125,0.00821615755558014,0.009172444231808186,-0.033436283469200134
1761315155351740200,4.950740234375,-0.003684976603835821,-0.01911884918808937,-0.025199392810463905
1761315155361722000,4.96072216796875,-0.010359135456383228,-0.04994647204875946,-0.008917832747101784
1761315155371703000,4.970703125,-0.010475249029695988,-0.075216144323349,0.005788941867649555
1761315155381685000,4.98068505859375,-0.014273523353040218,-0.0995153933763504,0.008645562455058098
1761315155391666200,4.990666259765625,-0.01331904623657465,-0.10956483334302902,0.007210917770862579
1761315155401648000,5.000648193359375,-0.006006794050335884,-0.11231926083564758,0.0014635362895205617
1761315155411629000,5.010629150390625,0.006503138691186905,-0.11419147253036499,-0.000552742974832654
1761315155421611000,5.020611083984375,0.006373005919158459,-0.09838423132896423,0.0074586584232747555
1761315155431592000,5.030592041015625,0.0062004332430660725,-0.0639900341629982,0.008426184765994549
1761315155441573000,5.040572998046875,0.008541826158761978,-0.02058514580130577,0.0049225939437747
1761315155451555000,5.05055517578125,0.003412044607102871,0.013943002559244633,-0.010360222309827805
1761315155461536300,5.060536376953125,-0.0028929305262863636,0.022202905267477036,-0.028316915035247803
1761315155471518000,5.07051806640625,-0.009907430037856102,0.0108932601287961,-0.050408635288476944
1761315155481499100,5.0804990234375,-0.01277817040681839,-0.015193399041891098,-0.06226774677634239
1761315155491481000,5.090481201171875,-0.020987896248698235,-0.04612202197313309,-0.061745498329401016
1761315155501462000,5.1004619140625,-0.033335134387016296,-0.055753760039806366,-0.046206995844841
1761315155511444000,5.11044384765625,-0.04568580910563469,-0.06156238168478012,-0.03139502555131912
1761315155521425000,5.1204248046875,-0.0531158484518528,-0.0510103777050972,-0.020891346037387848
1761315155531406000,5.130406005859375,-0.05462399497628212,-0.03786288574337959,-0.017635099589824677
1761315155541388000,5.140387939453125,-0.04305758699774742,-0.01423456147313118,-0.022991817444562912
1761315155551369200,5.150369140625,-0.031345270574092865,0.002967861946672201,-0.03623652085661888
1761315155561351200,5.16035107421875,-0.0237016249448061,0.011781449429690838,-0.04527601972222328
1761315155571332000,5.17033203125,-0.019509809091687202,0.0033496152609586716,-0.043616604059934616
1761315155581314000,5.18031396484375,-0.02969146892428398,-0.002623595530167222,-0.034745920449495316
1761315155591295000,5.190294921875,-0.03413309156894684,-0.004126683808863163,-0.011407042853534222
1761315155601277200,5.200277099609375,-0.04589002579450607,-0.0013248389586806297,0.010151300579309464
1761315155611258000,5.210258056640625,-0.05218813568353653,-0.010072790086269379,0.021970141679048538
1761315155621239300,5.2202392578125,-0.04675794392824173,-0.030875224620103836,0.017779560759663582
1761315155631221000,5.230220947265625,-0.03598519042134285,-0.04520116746425629,-0.0037465046625584364
1761315155641202200,5.2402021484375,-0.022255251184105873,-0.04809645935893059,-0.035817284137010574
1761315155651184400,5.250184326171875,-0.009582865983247757,-0.05057746171951294,-0.06342573463916779
1761315155661165300,5.260165283203125,-0.003534018760547042,-0.038616329431533813,-0.0727500170469284
1761315155671147000,5.27014697265625,0.006579868029803038,-0.009068826213479042,-0.06171280890703201
1761315155681128200,5.280128173828125,0.013416021130979061,0.015896953642368317,-0.03232180327177048
1761315155691110100,5.290110107421875,0.016369467601180077,0.034779563546180725,-0.0014323329087346792
1761315155701091300,5.30009130859375,0.01892242766916752,0.04385723918676376,0.02931159920990467
1761315155711072300,5.310072265625,0.02242927812039852,0.045067645609378815,0.0481414794921875
1761315155721054200,5.32005419921875,0.031943514943122864,0.03282327577471733,0.053291577845811844
1761315155731035100,5.33003515625,0.04571685194969177,0.017753247171640396,0.055287353694438934
1761315155741017000,5.34001708984375,0.056538138538599014,0.010389700531959534,0.05567709356546402
1761315155750998300,5.349998291015625,0.0621078722178936,0.007507361005991697,0.05379423871636391
1761315155760980200,5.359980224609375,0.06098364293575287,0.00774824945256114,0.048310454934835434
1761315155770961400,5.36996142578125,0.04974617063999176,0.0053330291993916035,0.04005385562777519
1761315155780943000,5.379943115234375,0.04177945479750633,0.0005492032505571842,0.02456016093492508
1761315155790924300,5.38992431640625,0.02594509907066822,0.0015883687883615494,0.002575233345851302
1761315155800906200,5.39990625,0.01606087200343609,0.007735526189208031,-0.016300372779369354
1761315155810887200,5.40988720703125,0.008369396440684795,0.02200501039624214,-0.02639135718345642
1761315155820868400,5.419868408203125,0.0031615630723536015,0.024131927639245987,-0.028712010011076927
1761315155830850000,5.42985009765625,0.000803333823569119,0.008305028080940247,-0.023226430639624596
1761315155840831200,5.439831298828125,-0.004941795952618122,-0.012078151106834412,-0.014125010930001736
1761315155850813200,5.449813232421875,-0.008790063671767712,-0.035629816353321075,-0.005956030450761318
1761315155860794400,5.45979443359375,-0.012872518971562386,-0.056391600519418716,-0.005692457780241966
1761315155870776000,5.469776123046875,-0.014753243885934353,-0.0638900026679039,-0.009278936311602592
1761315155880757000,5.479757080078125,-0.013143055140972137,-0.06013225391507149,-0.018333472311496735
1761315155890739200,5.4897392578125,-0.011811209842562675,-0.03723625838756561,-0.017910562455654144
1761315155900720000,5.49972021484375,-0.013299116864800453,0.004293075297027826,-0.020305810496211052
1761315155910701300,5.509701416015625,-0.011096149682998657,0.03908408060669899,-0.027201266959309578
1761315155920683300,5.519683349609375,-0.00898752361536026,0.05491773039102554,-0.03566098213195801
1761315155930664200,5.529664306640625,-0.009339859709143639,0.05990822613239288,-0.03225080668926239
1761315155940646100,5.539646240234375,-0.003326919861137867,0.05009937658905983,-0.018910830840468407
1761315155950627000,5.549626953125,0.0003309317398816347,0.02253645658493042,0.006845664232969284
1761315155960609300,5.559609375,0.006280785426497459,-0.001296196598559618,0.03802711144089699
1761315155970590200,5.569590087890625,0.02013375051319599,-0.026717400178313255,0.07441096007823944
1761315155980572200,5.579572265625,0.03207988291978836,-0.03576023876667023,0.10448551177978516
1761315155990553000,5.589552978515625,0.04611527547240257,-0.040442340075969696,0.11094527691602707
1761315156000534300,5.5995341796875,0.0467744916677475,-0.03474559634923935,0.1004975214600563
1761315156010516200,5.60951611328125,0.04250544309616089,-0.00953717902302742,0.07385792583227158
1761315156020497400,5.619497314453125,0.041925229132175446,0.021770652383565903,0.04487057030200958
1761315156030479000,5.62947900390625,0.03711635619401932,0.04773061349987984,0.02795310877263546
1761315156040460000,5.6394599609375,0.030518820509314537,0.061616621911525726,0.019015178084373474
1761315156050442200,5.649442138671875,0.023542404174804688,0.06592881679534912,0.028955962508916855
1761315156060423200,5.659423095703125,0.01796034350991249,0.0664474293589592,0.047268547117710114
1761315156070405000,5.669405029296875,0.015647388994693756,0.049279093742370605,0.0649665892124176
1761315156080386000,5.679385986328125,0.015704967081546783,0.026586053892970085,0.07459618151187897
1761315156090368300,5.6893681640625,0.020767636597156525,0.00018933555111289024,0.07360254973173141
1761315156100349200,5.69934912109375,0.02423940598964691,-0.027038391679525375,0.06614607572555542
1761315156110330000,5.709330078125,0.033051539212465286,-0.041004009544849396,0.05477703735232353
1761315156120312300,5.719312255859375,0.032697953283786774,-0.0359191820025444,0.04101530835032463
1761315156130293200,5.729293212890625,0.03224095329642296,-0.02862824685871601,0.030862007290124893
1761315156140275200,5.739275146484375,0.030410123988986015,-0.01623678021132946,0.02899867296218872
1761315156150256000,5.749256103515625,0.0258790235966444,-0.0011084266006946564,0.03066927380859852
1761315156160238300,5.75923828125,0.015567702241241932,0.010690929368138313,0.02999221906065941
1761315156170219300,5.76921923828125,0.013338369317352772,0.010199841111898422,0.03711244836449623
1761315156180201200,5.779201171875,0.011725978925824165,0.006401452235877514,0.03424603492021561
1761315156190182100,5.78918212890625,0.009879076853394508,-0.008596671745181084,0.03750521317124367
1761315156200163000,5.7991630859375,0.006026272661983967,-0.013198420405387878,0.035116638988256454
1761315156210145300,5.809145263671875,0.000519920838996768,-0.014699910767376423,0.04364354535937309
1761315156220126200,5.819126220703125,-0.006444245111197233,-0.014748913235962391,0.045045968145132065
1761315156230108200,5.829108154296875,-0.0026274030096828938,-0.0014834413304924965,0.05235900729894638
1761315156240089000,5.839089111328125,0.008023100905120373,0.013212607242166996,0.05706455931067467
1761315156250071300,5.8490712890625,0.01687411591410637,0.017619874328374863,0.06456802040338516
1761315156260052200,5.85905224609375,0.021832739934325218,0.012722562067210674,0.056257981806993484
1761315156270034400,5.869034423828125,0.01547151431441307,-0.012211816385388374,0.04417681694030762
1761315156280015000,5.87901513671875,0.010598251596093178,-0.02970569208264351,0.029575154185295105
1761315156289996000,5.88899609375,0.00038449594285339117,-0.03646133467555046,0.01371469721198082
1761315156299978200,5.898978271484375,-0.0029938179068267345,-0.03326744958758354,0.008725984953343868
1761315156309959200,5.908959228515625,-0.006918785162270069,-0.009348535910248756,0.011747341603040695
1761315156319941400,5.91894140625,-0.007176465354859829,0.018596597015857697,0.018856655806303024
1761315156329922300,5.92892236328125,-0.0024964925833046436,0.039097875356674194,0.032040100544691086
1761315156339904300,5.938904296875,0.005702554248273373,0.04543346166610718,0.04288085550069809
1761315156349885200,5.94888525390625,0.009616335853934288,0.03561918064951897,0.048445794731378555
1761315156359867100,5.9588671875,0.013639440760016441,0.028150543570518494,0.0558144710958004
1761315156369848300,5.968848388671875,0.013943840749561787,0.015950337052345276,0.05881106108427048
1761315156379830000,5.978830078125,0.017468655481934547,0.0023335102014243603,0.04923643544316292
1761315156389811200,5.988811279296875,0.01681804656982422,-0.0023182330187410116,0.03829830139875412
1761315156399792000,5.998792236328125,0.016661586239933968,-0.000035626813769340515,0.022308191284537315
1761315156409774300,6.0087744140625,0.011552576906979084,-0.0033446045126765966,0.005197647958993912
1761315156419755300,6.01875537109375,0.004982377402484417,-0.002806670730933547,-0.00782005675137043
1761315156429737200,6.0287373046875,-0.00540927704423666,-0.004040246829390526,-0.02309621497988701
1761315156439718100,6.03871826171875,-0.013529794290661812,-0.0013982625678181648,-0.03219246491789818
1761315156449700000,6.0487001953125,-0.022952057421207428,0.009379018098115921,-0.03386466205120087
1761315156459681300,6.058681396484375,-0.02908061258494854,0.01771746389567852,-0.03093823976814747
1761315156469663200,6.068663330078125,-0.0320923812687397,0.012326693162322044,-0.018892494961619377
1761315156479644400,6.07864453125,-0.02862868644297123,0.008194329217076302,-0.0035190721973776817
1761315156489625000,6.088625,-0.01347157172858715,0.003364687319844961,0.011738710105419159
1761315156499607000,6.09860693359375,-0.0004059649654664099,-0.008957553654909134,0.01928449049592018
1761315156509588200,6.108588134765625,0.012073873542249203,-0.01964428648352623,0.020877860486507416
1761315156519570200,6.118570068359375,0.02016245387494564,-0.0200137197971344,0.011758886277675629
1761315156529551400,6.12855126953125,0.022042380645871162,-0.021261410787701607,-0.00011961045674979687
1761315156539533000,6.138532958984375,0.022192534059286118,-0.014420375227928162,-0.01675071381032467
1761315156549514200,6.14851416015625,0.013735399581491947,-0.0004973695613443851,-0.027441173791885376
1761315156559496200,6.15849609375,0.005995940417051315,0.01483129896223545,-0.029746558517217636
1761315156569477400,6.168477294921875,0.000675477203913033,0.03096073307096958,-0.028833627700805664
1761315156579459000,6.178458984375,-0.002725363476201892,0.031565409153699875,-0.03292427211999893
1761315156589440000,6.18843994140625,0.008653257973492146,0.02744203805923462,-0.043356940150260925
1761315156599421200,6.198421142578125,0.013685314916074276,0.013455623760819435,-0.04972764849662781
1761315156609403100,6.208403076171875,0.018000967800617218,-0.0026983136776834726,-0.05523320287466049
1761315156619384300,6.21838427734375,0.017760273069143295,-0.019265709444880486,-0.050620321184396744
1761315156629366300,6.2283662109375,0.015395386144518852,-0.03366249054670334,-0.04012000933289528
1761315156639347000,6.238346923828125,0.007369581144303083,-0.03862035274505615,-0.02860642783343792
1761315156649328600,6.24832861328125,0.004045423120260239,-0.039537809789180756,-0.017574284225702286
1761315156659309800,6.258309814453125,-0.0007555338670499623,-0.027724463492631912,-0.012881370261311531
1761315156669291800,6.268291748046875,-0.006750576198101044,-0.020222606137394905,-0.015284072607755661
1761315156679272700,6.278272705078125,-0.014368163421750069,-0.014883512631058693,-0.02217417024075985
1761315156689254000,6.28825390625,-0.016436375677585602,-0.00016289018094539642,-0.029422497376799583
1761315156699235600,6.298235595703125,-0.014978241175413132,0.02037004567682743,-0.030240999534726143
1761315156709216800,6.308216796875,-0.011494027450680733,0.041940584778785706,-0.03523389250040054
1761315156719198700,6.31819873046875,-0.005282936617732048,0.06382706761360168,-0.03282041475176811
1761315156729180000,6.328179931640625,-0.00031374418176710606,0.06970173865556717,-0.03003687784075737
1761315156739161900,6.338161865234375,0.002958386205136776,0.07166843861341476,-0.025212375447154045
1761315156749142500,6.348142578125,0.008182709105312824,0.053005803376436234,-0.01873849704861641
1761315156759124700,6.358124755859375,0.010548491030931473,0.024487122893333435,-0.01147331390529871
1761315156769105700,6.368105712890625,0.00643683597445488,-0.0031503622885793447,0.0002320772036910057
1761315156779088000,6.378087890625,0.00027714530006051064,-0.028159139677882195,0.009653687477111816
1761315156789068800,6.38806884765625,-0.005808976944535971,-0.04762950912117958,0.013022586703300476
1761315156799049700,6.3980498046875,-0.014469929039478302,-0.05784643441438675,0.004543520510196686
1761315156809031700,6.40803173828125,-0.012049381621181965,-0.05498460680246353,-0.0115315867587924
1761315156819012600,6.4180126953125,-0.00569765642285347,-0.03595314547419548,-0.027008719742298126
1761315156828994800,6.427994873046875,-0.0010094278259202838,-0.018183205276727676,-0.03816176950931549
1761315156838975700,6.437975830078125,-0.00028220436070114374,-0.006583250127732754,-0.045817386358976364
1761315156848957700,6.447957763671875,-0.00607804162427783,0.0042374394834041595,-0.04567224532365799
1761315156858938600,6.457938720703125,-0.008416812866926193,0.011874460615217686,-0.03948202356696129
1761315156868920800,6.4679208984375,-0.00477121165022254,0.013937079347670078,-0.027948671951889992
1761315156878901800,6.47790185546875,-0.001001362456008792,0.01688227429986,-0.012723416090011597
1761315156888882700,6.487882568359375,0.003189920447766781,0.016774417832493782,0.003886186983436346
1761315156898864600,6.49786474609375,0.00778733566403389,0.009193729609251022,0.01626962050795555
1761315156908845600,6.507845458984375,0.009682174772024155,-0.013459919020533562,0.024715302512049675
1761315156918827800,6.517827880859375,0.014103883877396584,-0.036767616868019104,0.017858605831861496
1761315156928808700,6.52780859375,0.01912820339202881,-0.04859311878681183,0.008347393944859505
1761315156938791000,6.537791015625,0.02123517543077469,-0.05490805581212044,-0.010272912681102753
1761315156948771800,6.547771728515625,0.024582503363490105,-0.03676580265164375,-0.026752818375825882
1761315156958753800,6.55775390625,0.01957317255437374,-0.013503717258572578,-0.04061473160982132
1761315156968734700,6.567734619140625,0.021214213222265244,0.013425367884337902,-0.044988974928855896
1761315156978717000,6.577717041015625,0.025111397728323936,0.0352633111178875,-0.03884728625416756
1761315156988697900,6.58769775390625,0.030170604586601257,0.04484882950782776,-0.025692865252494812
1761315156998678800,6.5976787109375,0.038552042096853256,0.04652205854654312,-0.009073548950254917
1761315157008660700,6.60766064453125,0.043354254215955734,0.03442784398794174,0.008733144961297512
1761315157018641700,6.6176416015625,0.049262501299381256,0.011907101608812809,0.014087359420955181
1761315157028624000,6.627623779296875,0.05188465118408203,-0.006864455062896013,0.012782410718500614
1761315157038604800,6.637604736328125,0.05062069371342659,-0.021556731313467026,0.004955939017236233
1761315157048586800,6.647586669921875,0.04286423698067665,-0.0368584543466568,-0.005195498466491699
1761315157058567700,6.657567626953125,0.028998520225286484,-0.05026165768504143,-0.01519730594009161
1761315157068549600,6.667549560546875,0.007961677387356758,-0.049223292618989944,-0.016640473157167435
1761315157078530800,6.67753076171875,-0.0033175498247146606,-0.03613389655947685,-0.012617604807019234
1761315157088512800,6.6875126953125,-0.0059884339570999146,-0.023264434188604355,-0.01712101139128208
1761315157098493700,6.69749365234375,-0.0030108981300145388,-0.016710065305233,-0.01738598570227623
1761315157108474600,6.707474609375,0.00770086795091629,-0.0007207118906080723,-0.016562270000576973
1761315157118456800,6.717456787109375,0.008588104508817196,0.011999743059277534,-0.017509549856185913
1761315157128437800,6.727437744140625,0.014630816876888275,0.0022887936793267727,-0.019610252231359482
1761315157138419700,6.737419677734375,0.008853293024003506,-0.017133336514234543,-0.017623165622353554
1761315157148401000,6.74740087890625,0.004740040749311447,-0.030104797333478928,-0.006674910895526409
1761315157158382600,6.757382568359375,0.005781109444797039,-0.04314121603965759,0.004987548105418682
1761315157168363800,6.76736376953125,0.009168650023639202,-0.04234839230775833,0.014641506597399712
1761315157178345700,6.777345703125,0.00862082839012146,-0.032368797808885574,0.015403185039758682
1761315157188327000,6.787326904296875,0.004444992169737816,-0.016368526965379715,0.004247736185789108
1761315157198307800,6.797307861328125,0.003467198461294174,0.0011886185966432095,-0.00997377559542656
1761315157208289800,6.807289794921875,0.002219507470726967,0.0098100695759058,-0.021192075684666634
1761315157218270700,6.817270751953125,0.002703404054045677,0.017124176025390625,-0.021696478128433228
1761315157228252700,6.827252685546875,0.01298320572823286,0.019217953085899353,-0.01250138133764267
1761315157238233900,6.83723388671875,0.01575474999845028,0.01631051115691662,0.003815022297203541
1761315157248215600,6.847215576171875,0.016048496589064598,0.005408328492194414,0.01845921203494072
1761315157258196700,6.85719677734375,0.014739127829670906,-0.00850197859108448,0.029543334618210793
1761315157268178700,6.8671787109375,0.011169427074491978,-0.025568844750523567,0.020897116512060165
1761315157278160000,6.877159912109375,0.014898955821990967,-0.03908669203519821,0.010824959725141525
1761315157288141800,6.887141845703125,0.012339124456048012,-0.048490315675735474,-0.007708510383963585
1761315157298122800,6.897122802734375,0.007848638109862804,-0.03996753692626953,-0.016982965171337128
1761315157308103700,6.907103759765625,0.00794264767318964,-0.023441556841135025,-0.020937226712703705
1761315157318085600,6.917085693359375,0.0017203293973580003,-0.004621981177479029,-0.02234448865056038
1761315157328066800,6.92706689453125,-0.0015870502684265375,0.009755626320838928,-0.018277840688824654
1761315157338048800,6.937048828125,-0.010641371831297874,0.016455138102173805,-0.00784690398722887
1761315157348030000,6.947030029296875,-0.01897706650197506,0.009248623624444008,0.002854209393262863
1761315157358011600,6.95701171875,-0.023683667182922363,-0.0012073935940861702,0.006789896637201309
1761315157367992600,6.96699267578125,-0.02209802158176899,-0.01290932297706604,0.008923620916903019
1761315157377974800,6.976974853515625,-0.012451919727027416,-0.024434827268123627,0.009672237560153008
1761315157387955700,6.986955810546875,-0.005962328985333443,-0.026126466691493988,0.0044449856504797935
1761315157397937700,6.996937744140625,0.0012996770674362779,-0.026368437334895134,0.007791309151798487
1761315157407918600,7.006918701171875,-0.002927292138338089,-0.018658321350812912,0.0019462029449641705
1761315157417899800,7.016899658203125,-0.005930932238698006,0.003158177249133587,-0.00553514901548624
1761315157427881700,7.0268818359375,-0.010397053323686123,0.019790150225162506,-0.011964019387960434
1761315157437862700,7.036862548828125,-0.016080403700470924,0.02461005561053753,-0.016705714166164398
1761315157447844900,7.046844970703125,-0.024806784465909004,0.01342397928237915,-0.016434071585536003
1761315157457825500,7.056825439453125,-0.02379688061773777,0.005538443103432655,-0.01473692525178194
1761315157467807700,7.066807861328125,-0.012310400605201721,-0.003053713822737336,-0.005221450701355934
1761315157477788700,7.07678857421875,-0.0034709321334958076,-0.007468751631677151,0.007290000095963478
1761315157487771000,7.08677099609375,0.000496911583468318,-0.01234153751283884,0.008874048478901386
1761315157497751800,7.096751708984375,0.00963605847209692,-0.0067025707103312016,0.011955131776630878
1761315157507733800,7.106733642578125,0.015592485666275024,-0.003175480058416724,0.01657491736114025
1761315157517714700,7.116714599609375,0.018265757709741592,0.0021973787806928158,0.01401696540415287
1761315157527695600,7.126695556640625,0.018833277747035027,0.019465580582618713,0.015489693731069565
1761315157537677800,7.136677734375,0.019796723499894142,0.029411710798740387,0.013214727863669395
1761315157547658800,7.14665869140625,0.022329922765493393,0.029940616339445114,0.004376228898763657
1761315157557640700,7.156640625,0.015673566609621048,0.013592690229415894,-0.00605529872700572
1761315157567621600,7.16662158203125,0.01267857477068901,-0.0067048585042357445,-0.018538866192102432
1761315157577603800,7.176603759765625,0.0031793033704161644,-0.025961577892303467,-0.033492669463157654
1761315157587584800,7.186584716796875,0.003020578995347023,-0.039433181285858154,-0.038790229707956314
1761315157597566700,7.196566650390625,0.007693462073802948,-0.03202681243419647,-0.03879575803875923
1761315157607547600,7.206547607421875,0.01895277574658394,-0.00557097140699625,-0.034253206104040146
1761315157617529600,7.216529541015625,0.030173439532518387,0.028154490515589714,-0.019098691642284393
1761315157627510800,7.2265107421875,0.040515024214982986,0.0573725625872612,0.009190736338496208
1761315157637491700,7.23649169921875,0.043817188590765,0.0683782622218132,0.037861309945583344
1761315157647474000,7.246473876953125,0.04014655575156212,0.05808354541659355,0.05944596603512764
1761315157657454800,7.256454833984375,0.03726740926504135,0.031211454421281815,0.06372327357530594
1761315157667436500,7.2664365234375,0.03564607724547386,0.010981549508869648,0.06454645097255707
1761315157677417700,7.276417724609375,0.027439642697572708,-0.00416513392701745,0.05728595703840256
1761315157687399700,7.286399658203125,0.02250666916370392,-0.026571372523903847,0.04341168701648712
1761315157697380900,7.296380859375,0.019218508154153824,-0.024555470794439316,0.035168301314115524
1761315157707362600,7.306362548828125,0.021698443219065666,-0.003919967450201511,0.025900501757860184
1761315157717343700,7.31634375,0.01643136516213417,0.02059895358979702,0.018722521141171455
1761315157727325700,7.32632568359375,0.013730120845139027,0.038385674357414246,0.009713312610983849
1761315157737306600,7.336306640625,0.004878074396401644,0.04011786729097366,0.001606039353646338
1761315157747287800,7.346287841796875,-0.004936739802360535,0.027843091636896133,-0.0005849432200193405
1761315157757269500,7.35626953125,-0.011464872397482395,0.012811520136892796,0.0064842780120670795
1761315157767250700,7.366250732421875,-0.02271725982427597,-0.00007817847654223442,0.01161459181457758
1761315157777232600,7.376232666015625,-0.029411576688289642,-0.012954456731677055,0.009408021345734596
1761315157787213800,7.3862138671875,-0.02740302123129368,-0.015558495186269283,0.00669266190379858
1761315157797195800,7.39619580078125,-0.023634178563952446,-0.015261590480804443,-0.0011848430149257183
1761315157807176700,7.4061767578125,-0.013439066708087921,-0.01596626453101635,-0.008436364121735096
1761315157817158700,7.41615869140625,-0.0024879113771021366,-0.010167238302528858,-0.0031722986605018377
1761315157827139600,7.4261396484375,-0.0038911309093236923,0.0016372227109968662,0.005266459658741951
1761315157837121800,7.436121826171875,-0.012210298329591751,0.017800884321331978,0.01721683330833912
1761315157847102700,7.446102783203125,-0.017724374309182167,0.024568509310483932,0.026414325460791588
1761315157857084700,7.456084716796875,-0.023746071383357048,0.028047189116477966,0.02269926108419895
1761315157867065600,7.466065673828125,-0.02085813879966736,0.02571159601211548,0.01744324527680874
1761315157877046500,7.476046630859375,-0.012973661534488201,0.014569023624062538,0.008526075631380081
1761315157887028700,7.48602880859375,-0.003454192541539669,0.003598930314183235,0.0012662984663620591
1761315157897009700,7.496009765625,0.0034390476066619158,0.005090856924653053,-0.003310970263555646
1761315157906991600,7.50599169921875,0.012324685230851173,0.003601617179811001,-0.0043354881927371025
1761315157916972500,7.51597265625,0.00966934859752655,-0.003464166773483157,-0.0023830614518374205
1761315157926954800,7.525954833984375,0.0054985713213682175,-0.011354047805070877,-0.0018517610151320696
1761315157936935700,7.535935791015625,-0.0003099556779488921,-0.016985522583127022,0.005188650451600552
1761315157946918000,7.54591796875,0.001243732520379126,-0.012841111980378628,0.005062682554125786
1761315157956898800,7.55589892578125,0.0044167800806462765,-0.006636662408709526,-0.0016171059105545282
1761315157966879500,7.56587939453125,0.007872764021158218,-0.0063474434427917,-0.00929420068860054
1761315157976861700,7.57586181640625,0.01670278050005436,-0.009190760552883148,-0.01879885047674179
1761315157986842600,7.585842529296875,0.014565594494342804,-0.0129617964848876,-0.027481021359562874
1761315157996824800,7.595824951171875,0.022200096398591995,-0.012916900217533112,-0.028251510113477707
1761315158006805800,7.6058056640625,0.023088527843356133,-0.006335429847240448,-0.025002187117934227
1761315158016787700,7.61578759765625,0.02310040220618248,-0.006918861996382475,-0.02210897207260132
1761315158026768600,7.6257685546875,0.02454383485019207,-0.006089020986109972,-0.014691002666950226
1761315158036750800,7.635750732421875,0.023992547765374184,-0.003949038218706846,-0.004374682903289795
1761315158046731800,7.645731689453125,0.02842671051621437,-0.007469204254448414,0.004084048792719841
1761315158056713700,7.655713623046875,0.03230713680386543,-0.011739613488316536,0.010947132483124733
1761315158066694700,7.665694580078125,0.030754512175917625,-0.017941316589713097,0.01456929836422205
1761315158076676600,7.675676513671875,0.026982305571436882,-0.017795300111174583,0.01315352227538824
1761315158086657800,7.68565771484375,0.02238915115594864,-0.018239781260490417,0.018512334674596786
1761315158096638700,7.695638671875,0.016261471435427666,-0.01733151264488697,0.0243952888995409
1761315158106620700,7.70562060546875,0.013232124969363213,-0.014636127278208733,0.023571306839585304
1761315158116601600,7.7156015625,0.014145619235932827,-0.010218676179647446,0.013270651921629906
1761315158126583800,7.725583740234375,0.021390482783317566,-0.002558626001700759,-0.0018233463633805513
1761315158136564700,7.735564697265625,0.026704860851168633,-0.0007130168378353119,-0.014748793095350266
1761315158146546700,7.745546630859375,0.033103905618190765,-0.00018198229372501373,-0.0209646113216877
1761315158156527900,7.75552783203125,0.03150719031691551,0.0033743889071047306,-0.015816155821084976
1761315158166509600,7.765509521484375,0.02608446031808853,0.009355049580335617,0.0005348541308194399
1761315158176490800,7.77549072265625,0.018801569938659668,0.019561581313610077,0.016169361770153046
1761315158186472700,7.78547265625,0.00981313455849886,0.026842929422855377,0.03238961100578308
1761315158196454000,7.795453857421875,0.005143776070326567,0.015942055732011795,0.03897539898753166
1761315158206434800,7.805434814453125,0.004438038449734449,0.0062675923109054565,0.042130712419748306
1761315158216416500,7.81541650390625,0.014626829884946346,-0.005169054493308067,0.03762638941407204
1761315158226397700,7.825397705078125,0.01877789944410324,-0.026952380314469337,0.024490881711244583
1761315158236379600,7.835379638671875,0.017223123461008072,-0.048994503915309906,-0.0023148541804403067
1761315158246360800,7.84536083984375,0.018818356096744537,-0.05214769020676613,-0.022614533081650734
1761315158256342500,7.855342529296875,0.01569867692887783,-0.04210294783115387,-0.04600924253463745
1761315158266323700,7.86532373046875,0.01325442735105753,-0.024343127384781837,-0.05509781464934349
1761315158276305700,7.8753056640625,0.011376620270311832,-0.002148208674043417,-0.04953709989786148
1761315158286286600,7.88528662109375,0.009611743502318859,0.012155629694461823,-0.027675479650497437
1761315158296268800,7.895268798828125,0.02037779986858368,0.020204687491059303,0.00860324315726757
1761315158306249700,7.905249755859375,0.03201474994421005,0.01897590607404709,0.0418834388256073
1761315158316231700,7.915231689453125,0.045624855905771255,0.01722322404384613,0.07210547477006912
1761315158326212600,7.925212646484375,0.05359969288110733,0.01296962145715952,0.08433950692415237
1761315158336193800,7.93519384765625,0.0589749850332737,0.014523561112582684,0.07626219093799591
1761315158346175700,7.94517578125,0.060286592692136765,0.017223738133907318,0.05917801707983017
1761315158356156700,7.95515673828125,0.051025595515966415,0.008602551184594631,0.03507637977600098
1761315158366138600,7.965138671875,0.03612414374947548,-0.004640017170459032,0.01133509911596775
1761315158376119600,7.97511962890625,0.02274254709482193,-0.016952211037278175,-0.0018847999162971973
1761315158386101800,7.985101806640625,0.01428993884474039,-0.035616178065538406,-0.009900648146867752
1761315158396082700,7.995082763671875,0.008983084931969643,-0.05218528211116791,-0.007637563161551952
1761315158406064600,8.005064697265626,0.008595062419772148,-0.048306919634342194,0.00880239624530077
1761315158416045600,8.015045654296875,0.0091323871165514,-0.041120242327451706,0.0326477512717247
1761315158426027800,8.02502783203125,0.007778702303767204,-0.022450949996709824,0.0498427152633667
1761315158436008700,8.0350087890625,0.005348648875951767,-0.013825591653585434,0.05626291036605835
1761315158445989600,8.04498974609375,0.01274184975773096,-0.0063783288933336735,0.050635118037462234
1761315158455971800,8.054971923828125,0.017486777156591415,0.0022750734351575375,0.030709674581885338
1761315158465952500,8.064952392578125,0.02082797884941101,-0.0026347304228693247,0.010633966885507107
1761315158475934700,8.074934814453124,0.015080312266945839,-0.005119310691952705,-0.0007254723459482193
1761315158485915600,8.08491552734375,0.006219709292054176,-0.006868208758533001,-0.0029050034936517477
1761315158495897900,8.09489794921875,-0.0056746345944702625,0.0004631737247109413,0.006224635057151318
1761315158505878800,8.104878662109375,-0.006288759410381317,0.007441187743097544,0.022484032437205315
1761315158515860700,8.11486083984375,0.0017272760160267353,0.023353934288024902,0.03766021132469177
1761315158525841700,8.124841552734376,0.013831342570483685,0.02731991373002529,0.05437474325299263
1761315158535824000,8.134823974609375,0.02412705309689045,0.029803797602653503,0.06448662281036377
1761315158545804800,8.1448046875,0.03701169416308403,0.033240076154470444,0.07454538345336914
1761315158555786500,8.154786376953124,0.04297855496406555,0.029602300375699997,0.07325660437345505
1761315158565767700,8.164767578125,0.042759109288454056,0.006092715077102184,0.06767115741968155
1761315158575748600,8.17474853515625,0.040878523141145706,-0.022970113903284073,0.05392574891448021
1761315158585730800,8.184730712890625,0.039179958403110504,-0.03582439571619034,0.04422491788864136
1761315158595711700,8.194711669921874,0.03255718946456909,-0.03283419460058212,0.03189454600214958
1761315158605693700,8.204693603515626,0.02911212295293808,-0.024736851453781128,0.026873422786593437
1761315158615674600,8.214674560546875,0.02737259306013584,-0.006722267251461744,0.028445657342672348
1761315158625656600,8.224656494140625,0.03191807493567467,0.031149746850132942,0.025611788034439087
1761315158635637800,8.2346376953125,0.035806164145469666,0.05701615288853645,0.015091754496097565
1761315158645620200,8.2446201171875,0.042660340666770935,0.05495939776301384,0.00513526052236557
1761315158655601200,8.25460107421875,0.047035831958055496,0.049919720739126205,0.006729317829012871
1761315158665583000,8.2645830078125,0.046187348663806915,0.03784281760454178,0.01898864656686783
1761315158675564300,8.274564208984375,0.038758907467126846,0.013158796355128288,0.03273126110434532
1761315158685545200,8.284545166015626,0.03565472736954689,-0.006532084196805954,0.044864360243082047
1761315158695527400,8.29452734375,0.03369845822453499,-0.023480132222175598,0.05516687408089638
1761315158705508400,8.30450830078125,0.03370911255478859,-0.0348033607006073,0.05681643635034561
1761315158715490300,8.314490234375,0.032201360911130905,-0.0351993553340435,0.05031835660338402
1761315158725471200,8.32447119140625,0.03381603583693504,-0.01693965680897236,0.035437677055597305
1761315158735453200,8.334453125,0.035104427486658096,0.015279162675142288,0.025039177387952805
1761315158745434400,8.344434326171875,0.028789803385734558,0.03826623782515526,0.005476128775626421
1761315158755416000,8.354416015625,0.020744023844599724,0.03314479812979698,-0.008163029327988625
1761315158765397200,8.364397216796876,0.015591606497764587,0.018839897587895393,-0.003724605543538928
1761315158775379200,8.374379150390626,0.013532113283872604,0.00823860615491867,0.011305599473416805
1761315158785360400,8.3843603515625,0.015077545307576656,-0.0005032201297581196,0.02303282916545868
1761315158795342000,8.394342041015625,0.011448792181909084,-0.007272929418832064,0.0377352200448513
1761315158805323300,8.4043232421875,0.01427999883890152,-0.011170199140906334,0.04871783033013344
1761315158815304200,8.41430419921875,0.008681860752403736,-0.01729143038392067,0.051226869225502014
1761315158825286100,8.4242861328125,0.0014588360209017992,-0.029967544600367546,0.0559004507958889
1761315158835267300,8.434267333984375,-0.0005726121598854661,-0.04398362711071968,0.06699462234973907
1761315158845249300,8.444249267578124,-0.0022312288638204336,-0.03141883388161659,0.06978774070739746
1761315158855230200,8.454230224609375,0.006208507809787989,-0.006039420608431101,0.06387196481227875
1761315158865212200,8.464212158203125,0.02117840200662613,0.02225986123085022,0.05179319903254509
1761315158875193300,8.474193359375,0.02272474206984043,0.0363459438085556,0.036751653999090195
1761315158885175300,8.48417529296875,0.017194421961903572,0.028123700991272926,0.01975109800696373
1761315158895156200,8.49415625,0.009295626543462276,0.002184221986681223,-0.009165976196527481
1761315158905138200,8.50413818359375,-0.0038057942874729633,-0.03454370051622391,-0.030854495242238045
1761315158915119000,8.514119140625,-0.015913020819425583,-0.06210849806666374,-0.04221727326512337
1761315158925101300,8.524101318359374,-0.020420420914888382,-0.06345818936824799,-0.03496282175183296
1761315158935082200,8.534082275390626,-0.020184502005577087,-0.04684244468808174,-0.02686321549117565
1761315158945063400,8.5440634765625,-0.0016481010243296623,-0.022288097068667412,-0.019226068630814552
1761315158955045000,8.554045166015625,0.012409512884914875,0.012961871922016144,-0.004368564113974571
1761315158965026000,8.564026123046874,0.028880629688501358,0.03891730681061745,0.01123063638806343
1761315158975008300,8.57400830078125,0.03573087602853775,0.04673812910914421,0.017419733107089996
1761315158984989200,8.5839892578125,0.030516941100358963,0.034665752202272415,0.02315538376569748
1761315158994971400,8.593971435546875,0.02050263248383999,0.020129218697547913,0.024398062378168106
1761315159004952300,8.603952392578124,0.009669693186879158,0.005577705334872007,0.02459087409079075
1761315159014934300,8.613934326171876,-0.002697727642953396,-0.0017198172863572836,0.024244584143161774
1761315159024915200,8.623915283203125,-0.005598442628979683,-0.000980523880571127,0.01833263412117958
1761315159034897400,8.6338974609375,-0.007449710741639137,-0.004274232313036919,0.015833478420972824
1761315159044878300,8.64387841796875,-0.011087855324149132,-0.01667763851583004,0.009601414203643799
1761315159054860300,8.6538603515625,-0.011873910203576088,-0.01656341180205345,0.009657901711761951
1761315159064841200,8.66384130859375,-0.015146669000387192,-0.0016627602744847536,0.005749712698161602
1761315159074822100,8.673822265625,-0.01303517259657383,0.006441392004489899,-0.0006677040364593267
1761315159084804400,8.683804443359374,-0.01394064724445343,0.011952537111938,-0.001928976969793439
1761315159094785300,8.693785400390626,-0.009616886265575886,0.022856365889310837,0.008397444151341915
1761315159104767200,8.703767333984375,-0.008784116245806217,0.026996515691280365,0.015304884873330593
1761315159114748200,8.713748046875,-0.011203859001398087,0.023680413141846657,0.025640331208705902
1761315159124730400,8.72373046875,-0.017223933711647987,0.029761740937829018,0.031002070754766464
1761315159134711300,8.733711181640626,-0.01548152044415474,0.03455725312232971,0.03317912667989731
1761315159144693200,8.743693359375,-0.017548400908708572,0.037106964737176895,0.022401848807930946
1761315159154674200,8.753674072265625,-0.019710365682840347,0.03233284503221512,0.012407571077346802
1761315159164656000,8.76365625,-0.026429520919919014,0.02704833634197712,-0.009444731287658215
1761315159174637300,8.77363720703125,-0.03296046704053879,0.023929663002490997,-0.01884102262556553
1761315159184618200,8.7836181640625,-0.03707798197865486,0.01654977723956108,-0.022928176447749138
1761315159194600400,8.793600341796875,-0.036947570741176605,0.007887335494160652,-0.02311442419886589
1761315159204581400,8.803581298828124,-0.03632519021630287,0.0026251953095197678,-0.019818495959043503
1761315159214563000,8.81356298828125,-0.03191471844911575,0.005896547343581915,-0.015942584723234177
1761315159224544300,8.823544189453125,-0.028074173256754875,0.014949431642889977,-0.013246933929622173
1761315159234526200,8.833526123046875,-0.023595547303557396,0.01929711550474167,-0.01424343604594469
1761315159244507400,8.84350732421875,-0.021859697997570038,0.008243666030466557,-0.018008612096309662
1761315159254489000,8.853489013671876,-0.0245674941688776,-0.006297430954873562,-0.023808971047401428
1761315159264470300,8.86347021484375,-0.02335309237241745,-0.011470355093479156,-0.021970059722661972
1761315159274452200,8.8734521484375,-0.02206699177622795,-0.0048022037371993065,-0.02182205393910408
1761315159284433200,8.88343310546875,-0.020589735358953476,0.00041972240433096886,-0.028244799003005028
1761315159294415400,8.893415283203124,-0.01947936974465847,0.003036055713891983,-0.03196515887975693
1761315159304396000,8.90339599609375,-0.026651529595255852,0.0021441630087792873,-0.04267878830432892
1761315159314378200,8.913378173828125,-0.030518364161252975,0.0028659910894930363,-0.05470443144440651
1761315159324359200,8.923359130859374,-0.037073735147714615,0.003561608958989382,-0.06686203181743622
1761315159334340400,8.93334033203125,-0.046428877860307693,0.010851079598069191,-0.07320012152194977
1761315159344322300,8.943322265625,-0.04229618236422539,0.03405680134892464,-0.07280490547418594
1761315159354303200,8.95330322265625,-0.028360506519675255,0.03997276723384857,-0.06253471970558167
1761315159364285200,8.96328515625,-0.018189094960689545,0.02371416799724102,-0.048033010214567184
1761315159374266000,8.97326611328125,-0.014146099798381329,-0.001370235811918974,-0.038041017949581146
1761315159384248300,8.983248291015625,-0.011807844042778015,-0.007116538472473621,-0.036821555346250534
1761315159394229200,8.993229248046875,0.007630630396306515,0.006944489199668169,-0.045684073120355606
1761315159404211200,9.003211181640625,0.018322158604860306,0.007297358009964228,-0.05382562056183815
1761315159414192000,9.013192138671876,0.015799691900610924,0.009942054748535156,-0.05422205850481987
1761315159424174300,9.02317431640625,0.009115690365433693,0.002263628877699375,-0.04881397634744644
1761315159434155300,9.0331552734375,-0.004659417551010847,-0.017402173951268196,-0.036241643130779266
1761315159444137200,9.04313720703125,-0.019276443868875504,-0.07378502190113068,-0.03417956084012985
1761315159454118100,9.0531181640625,-0.034772854298353195,-0.06867881119251251,-0.036632832139730453
1761315159464099000,9.06309912109375,-0.04870491847395897,-0.08202284574508667,-0.03849145397543907
1761315159474081300,9.073081298828125,-0.06399916857481003,-0.07603132724761963,-0.03568772226572037
1761315159484062200,9.083062255859375,-0.07367443293333054,-0.07510694861412048,-0.017636552453041077
1761315159494044400,9.09304443359375,-0.07116512209177017,-0.07432220131158829,0.0005747857503592968
1761315159504025300,9.103025390625,-0.07131878286600113,-0.053314924240112305,0.017831269651651382
1761315159514007300,9.11300732421875,-0.07501398772001266,-0.04687511548399925,0.007859967648983002
1761315159523988200,9.12298828125,-0.07603824138641357,-0.045578692108392715,-0.01056085154414177
1761315159533970400,9.132970458984374,-0.07347219437360764,-0.028653131797909737,-0.0258254986256361
1761315159543951400,9.142951416015626,-0.07977056503295898,-0.027681877836585045,-0.042218588292598724
1761315159553933000,9.15293310546875,-0.09135819971561432,-0.056882116943597794,-0.05444732680916786
1761315159563914200,9.162914306640625,-0.10109978169202805,-0.09773900359869003,-0.052185505628585815
1761315159573896200,9.172896240234374,-0.10895508527755737,-0.115260049700737,-0.03926776722073555
1761315159583877400,9.18287744140625,-0.11651846766471863,-0.109880730509758,-0.021627256646752357
1761315159593859000,9.192859130859375,-0.10881827771663666,-0.07226423919200897,-0.0064010294154286385
1761315159603840300,9.20284033203125,-0.08310386538505554,-0.006364051252603531,-0.0013058697804808617
1761315159613821200,9.2128212890625,-0.04710467904806137,0.0588974729180336,0.007643606048077345
1761315159623803100,9.22280322265625,-0.020956430584192276,0.1264280378818512,0.02050534263253212
1761315159633784300,9.232784423828125,-0.0038303472101688385,0.18330314755439758,0.047461386770009995
1761315159643766000,9.24276611328125,0.007873446680605412,0.2220156490802765,0.07637852430343628
1761315159653747000,9.252746826171874,0.016661323606967926,0.23809197545051575,0.09508945792913437
1761315159663729000,9.26272900390625,0.01939159631729126,0.23897695541381836,0.10218225419521332
1761315159673709800,9.272709716796875,0.018887273967266083,0.2169051170349121,0.09774607419967651
1761315159683692000,9.282692138671875,0.007505455985665321,0.18995524942874908,0.08126191049814224
1761315159693673000,9.2926728515625,0.003947759047150612,0.16325119137763977,0.07343854010105133
1761315159703654700,9.302654541015626,0.008400298655033112,0.1368398219347,0.07963358610868454
1761315159713635800,9.3126357421875,0.017703324556350708,0.12494461238384247,0.08318239450454712
1761315159723617800,9.32261767578125,0.026339955627918243,0.11748003214597702,0.0770757645368576
1761315159733599000,9.332598876953124,0.02497493475675583,0.09396075457334518,0.05770363658666611
1761315159743580000,9.342579833984376,0.021114150062203407,0.08368361741304398,0.035545337945222855
1761315159753561900,9.352561767578125,0.02368178218603134,0.08574895560741425,0.01115172915160656
1761315159763542800,9.362542724609375,0.03313201293349266,0.08744831383228302,-0.0012924238108098507
1761315159773524700,9.372524658203124,0.041984010487794876,0.07486109435558319,-0.011516181752085686
1761315159783506000,9.382505859375,0.046685025095939636,0.06069014593958855,-0.01124240830540657
1761315159793488000,9.39248779296875,0.05295160412788391,0.041299641132354736,0.003835870884358883
1761315159803469000,9.402468994140625,0.059038255363702774,0.02020660787820816,0.022164544090628624
1761315159813450800,9.41245068359375,0.06235097721219063,0.010762758553028107,0.04091019928455353
1761315159823432000,9.422431884765626,0.06824775040149689,0.008611723780632019,0.057618074119091034
1761315159833414000,9.432413818359375,0.06871868669986725,0.01389109157025814,0.05325432866811752
1761315159843394800,9.442394775390625,0.06419903039932251,0.026477456092834473,0.020090783014893532
1761315159853376800,9.452376708984374,0.0666700005531311,0.050359927117824554,-0.028089718893170357
1761315159863357700,9.462357666015626,0.06971000134944916,0.06923508644104004,-0.06399605423212051
1761315159873339000,9.4723388671875,0.0767531469464302,0.0850464403629303,-0.08346269279718399
1761315159883320800,9.48232080078125,0.07683064788579941,0.09014586359262466,-0.07942107319831848
1761315159893302000,9.492302001953124,0.07734634727239609,0.06693451851606369,-0.05720468983054161
1761315159903283700,9.50228369140625,0.06460285186767578,0.03520588204264641,-0.017594696953892708
1761315159913264600,9.5122646484375,0.05610547214746475,0.004467015620321035,0.023342447355389595
1761315159923246800,9.522246826171875,0.04924783110618591,-0.015040639787912369,0.04688958451151848
1761315159933227800,9.532227783203124,0.03973550349473953,-0.04953595995903015,0.05500984936952591
1761315159943210000,9.5422099609375,0.032907161861658096,-0.0714484453201294,0.049090709537267685
1761315159953191000,9.55219091796875,0.028812721371650696,-0.06111954525113106,0.038757067173719406
1761315159963172900,9.5621728515625,0.03187029808759689,-0.024463796988129616,0.019310399889945984
1761315159973153800,9.57215380859375,0.04415429010987282,0.017199058085680008,-0.004932930693030357
1761315159983136000,9.582135986328124,0.051540568470954895,0.05016766116023064,-0.026717588305473328
1761315159993117000,9.592116943359375,0.05947989225387573,0.0864020586013794,-0.03382670879364014
1761315160003099000,9.602098876953125,0.05746814236044884,0.09140187501907349,-0.03726005554199219
1761315160013079800,9.612079833984374,0.055841684341430664,0.08349800854921341,-0.03348229452967644
1761315160023060700,9.622060791015626,0.04605723172426224,0.05301413685083389,-0.02706034854054451
1761315160033043000,9.63204296875,0.03412572294473648,0.016551749780774117,-0.02308976836502552
1761315160043024000,9.64202392578125,0.018399223685264587,-0.019247792661190033,-0.018375441431999207
1761315160053005800,9.652005859375,0.002115868730470538,-0.0312800332903862,-0.003928912337869406
1761315160062986800,9.66198681640625,-0.0018016413087025285,-0.012760943733155727,0.009594352915883064
1761315160072969000,9.671968994140625,0.007243695203214884,0.007865197025239468,0.021087149158120155
1761315160082950000,9.681949951171875,0.025342803448438644,0.022026024758815765,0.02513968013226986
1761315160092932000,9.69193212890625,0.037757743149995804,0.03656141087412834,0.013305255211889744
1761315160102913000,9.7019130859375,0.04947565123438835,0.0448014996945858,-0.002486756769940257
1761315160112894700,9.711894775390626,0.05695177987217903,0.04233063757419586,-0.01429307833313942
1761315160122876000,9.7218759765625,0.05475839972496033,0.02005462907254696,-0.026765992864966393
1761315160132857900,9.73185791015625,0.041821084916591644,-0.008317087776958942,-0.031001515686511993
1761315160142839000,9.741839111328124,0.026370491832494736,-0.04377787932753563,-0.024874115362763405
1761315160152820700,9.75182080078125,0.004220527596771717,-0.05267718806862831,-0.0036816345527768135
1761315160162802000,9.761802001953125,-0.0070526329800486565,-0.03329203650355339,0.01719222217798233
1761315160172783900,9.771783935546875,-0.014547222293913364,-0.0020838736090809107,0.03399288281798363
1761315160182764800,9.781764892578124,-0.013333885930478573,0.04271901771426201,0.04736301675438881
1761315160192746000,9.79174609375,-0.010632508434355259,0.07474009692668915,0.06179915741086006
1761315160202727700,9.801727783203125,-0.006353606935590506,0.07841898500919342,0.05852426588535309
1761315160212708900,9.811708984375,-0.007279522251337767,0.061671096831560135,0.033209770917892456
1761315160222690800,9.82169091796875,-0.002463994547724724,0.026566103100776672,-0.006896901875734329
1761315160232672000,9.831672119140626,-0.004942392930388451,-0.003511969931423664,-0.05634509399533272
1761315160242654000,9.841654052734375,-0.006931507494300604,-0.031779028475284576,-0.09137178957462311
1761315160252635000,9.851634765625,-0.012745998799800873,-0.041782110929489136,-0.10630858689546585
1761315160262616800,9.861616943359374,-0.02218184620141983,-0.03372950851917267,-0.0950000062584877
1761315160272597800,9.87159765625,-0.024021996185183525,-0.012227840721607208,-0.06620292365550995
1761315160282580000,9.881580078125,-0.02236630767583847,0.005222789011895657,-0.037110015749931335
1761315160292561000,9.891560791015625,-0.017890429124236107,0.01866259053349495,-0.006350832059979439
1761315160302542800,9.90154296875,-0.013112982735037804,0.02552315965294838,0.017519081011414528
1761315160312523800,9.911523681640626,-0.01133294589817524,0.024426478892564774,0.031015781685709953
1761315160322506000,9.921506103515625,-0.01596604660153389,0.027034776285290718,0.035527441650629044
1761315160332487000,9.93148681640625,-0.02024618722498417,0.03125619888305664,0.030077096074819565
1761315160342467800,9.9414677734375,-0.02091890200972557,0.03371056541800499,0.01469840481877327
1761315160352449800,9.95144970703125,-0.01787063665688038,0.02681577391922474,-0.0045610759407281876
1761315160362430700,9.9614306640625,-0.016174471005797386,0.015152992680668831,-0.013082658872008324
1761315160372413000,9.971412841796875,-0.013373601250350475,-0.006425725761801004,-0.013237041421234608
1761315160382393900,9.981393798828124,-0.01799791492521763,-0.02082836627960205,-0.009872403927147388
1761315160392376000,9.9913759765625,-0.020479736849665642,-0.016885899007320404,-0.008222123607993126
1761315160402356700,10.001356689453125,-0.02016202174127102,0.005170399788767099,-0.009728939272463322
1761315160412339000,10.0113388671875,-0.014351187273859978,0.026434853672981262,-0.018280506134033203
1761315160422319900,10.02131982421875,-0.006758249364793301,0.037354350090026855,-0.027337118983268738
1761315160432301800,10.0313017578125,-0.0007709075580351055,0.04607604816555977,-0.028379051014780998
1761315160442283000,10.041282958984375,-0.0023682715836912394,0.04451623558998108,-0.014139128848910332
1761315160452264700,10.0512646484375,-0.006216989830136299,0.03460806608200073,0.0024077545385807753
1761315160462246000,10.061245849609374,-0.013847745023667812,0.018697276711463928,0.019982220605015755
1761315160472227800,10.071227783203126,-0.014543973840773106,0.006133813876658678,0.033104781061410904
1761315160482209000,10.081208984375,-0.009099673479795456,-0.01643754169344902,0.0392279215157032
1761315160492190000,10.09118994140625,-0.0017901872051879764,-0.027989637106657028,0.033626433461904526
1761315160502171600,10.101171630859374,0.00030918268021196127,-0.029883943498134613,0.013421829789876938
1761315160512152800,10.11115283203125,0.006221754476428032,-0.016767362132668495,-0.011518844403326511
1761315160522134800,10.121134765625,0.014778492040932178,0.010093813762068748,-0.02917000837624073
1761315160532116000,10.131115966796875,0.0196489579975605,0.04320495203137398,-0.03663363680243492
1761315160542098000,10.141097900390625,0.017095519229769707,0.05956688150763512,-0.03758971020579338
1761315160552078800,10.151078857421876,0.0029580327682197094,0.05512329190969467,-0.03368797153234482
1761315160562060800,10.161060791015625,-0.006378743797540665,0.043705254793167114,-0.02391231060028076
1761315160572042000,10.1710419921875,-0.016980867832899094,0.034149184823036194,-0.01933925785124302
1761315160582024000,10.18102392578125,-0.01568843424320221,0.026402579620480537,-0.014992181211709976
1761315160592004900,10.1910048828125,-0.012258004397153854,0.00465663755312562,-0.010308589786291122
1761315160601986800,10.20098681640625,-0.011494741775095463,-0.009511912241578102,0.001004518591798842
1761315160611967700,10.2109677734375,-0.007527528330683708,0.0011697444133460522,0.014657745137810707
1761315160621950000,10.220949951171875,0.0006560994079336524,0.012754494324326515,0.027022801339626312
1761315160631931000,10.230930908203124,0.004387723747640848,0.02112913317978382,0.037474893033504486
1761315160641912800,10.240912841796876,0.00886502955108881,0.02689913846552372,0.04039664566516876
1761315160651893800,10.250893798828125,0.006282562855631113,0.01967211812734604,0.03827810287475586
1761315160661874700,10.260874755859374,0.003371194936335087,0.0169112179428339,0.03220662474632263
1761315160671857000,10.27085693359375,-0.0008043942507356405,0.025308649986982346,0.024669967591762543
1761315160681837800,10.280837890625,-0.005202338565140963,0.033493608236312866,0.017780637368559837
1761315160691820000,10.290820068359375,-0.0028493539430201054,0.044569604098796844,0.011127105914056301
1761315160701800700,10.30080078125,-0.005077354609966278,0.05289731174707413,0.009423215873539448
1761315160711783000,10.310782958984374,-0.00572402635589242,0.054851233959198,0.005638284143060446
1761315160721763800,10.320763916015625,-0.010993623174726963,0.06787435710430145,-0.0007541012018918991
1761315160731745800,10.330745849609375,-0.013085450045764446,0.08577346801757812,-0.011166887357831001
1761315160741727000,10.34072705078125,-0.010690735653042793,0.09722746163606644,-0.024384690448641777
1761315160751708700,10.350708740234374,-0.010055127553641796,0.09400452673435211,-0.02348143979907036
1761315160761689900,10.36068994140625,-0.004852642305195332,0.07582632452249527,-0.011970991268754005
1761315160771671800,10.370671875,0.0007597894873470068,0.05826961621642113,0.006476039998233318
1761315160781653000,10.380653076171875,0.0044751656241714954,0.044957809150218964,0.015044759958982468
1761315160791634700,10.390634765625,0.008896082639694214,0.029938576743006706,0.032090771943330765
1761315160801615600,10.40061572265625,0.0037468611262738705,0.016449663788080215,0.03683812543749809
1761315160811597800,10.410597900390625,-0.009188191033899784,0.012980246916413307,0.03867078199982643
1761315160821578800,10.420578857421875,-0.02471335604786873,0.02267894707620144,0.033692535012960434
1761315160831561000,10.43056103515625,-0.03482167050242424,0.04884045198559761,0.016151709482073784
1761315160841542000,10.4405419921875,-0.03174678608775139,0.08730262517929077,-0.0011532455682754517
1761315160851522800,10.450522705078125,-0.01590246520936489,0.12293656170368195,-0.01760038547217846
1761315160861504800,10.4605048828125,-0.004457796923816204,0.13198624551296234,-0.021196184679865837
1761315160871485700,10.470485595703124,0.0066301096230745316,0.1133798211812973,-0.025252709165215492
1761315160881468000,10.480468017578126,0.006602412089705467,0.073931485414505,-0.040919817984104156
1761315160891448800,10.49044873046875,0.004090679809451103,0.03510144352912903,-0.049230463802814484
1761315160901430800,10.5004306640625,-0.0021363236010074615,-0.001515955664217472,-0.03956238925457001
1761315160911411700,10.51041162109375,-0.012629959732294083,-0.01679014414548874,-0.021817859262228012
1761315160921394000,10.520393798828126,-0.012258714996278286,0.0020205616019666195,0.004835057538002729
1761315160931374800,10.530374755859375,-0.005895284004509449,0.03690338134765625,0.018049849197268486
1761315160941356800,10.540356689453125,0.0049033015966415405,0.07436686754226685,0.006533541716635227
1761315160951337700,10.550337646484374,0.009806373156607151,0.08650082349777222,-0.008526287972927094
1761315160961320000,10.56031982421875,0.011790961027145386,0.09514971077442169,-0.020380018278956413
1761315160971300900,10.57030078125,0.011178434826433659,0.08657491952180862,-0.02472844533622265
1761315160981282800,10.58028271484375,0.013736400753259659,0.084772489964962,-0.01643882505595684
1761315160991263700,10.590263671875,0.02488713711500168,0.09439103305339813,-0.0069412896409630775
1761315161001244700,10.60024462890625,0.037390679121017456,0.09413909912109375,0.003961957525461912
1761315161011227000,10.610226806640625,0.040108710527420044,0.07690800726413727,0.006368543021380901
1761315161021207800,10.620207763671875,0.032337870448827744,0.06328487396240234,0.0057464283891022205
1761315161031190000,10.63018994140625,0.018806254491209984,0.04660867899656296,0.006158952135592699
1761315161041171000,10.6401708984375,0.0026555154472589493,0.04829126596450806,-0.0016968401614576578
1761315161051153000,10.65015283203125,-0.012683495879173279,0.04756869003176689,-0.020545078441500664
1761315161061133800,10.6601337890625,-0.019220225512981415,0.08335810899734497,-0.046540990471839905
1761315161071115800,10.67011572265625,-0.014586234465241432,0.14091679453849792,-0.08262382447719574
1761315161081097000,10.680096923828126,-0.026073511689901352,0.18172334134578705,-0.11701321601867676
1761315161091078700,10.69007861328125,-0.03289831057190895,0.24170376360416412,-0.12505638599395752
1761315161101059800,10.700059814453125,-0.037804652005434036,0.279533714056015,-0.11600323766469955
1761315161111041800,10.710041748046875,-0.057657625526189804,0.32562193274497986,0.05683731287717819
1761315161121023000,10.72002294921875,-0.10846514999866486,0.09361694008111954,0.10068465769290924
1761315161131005000,10.7300048828125,-0.09320738166570663,-0.13969679176807404,0.07404301315546036
1761315161140985600,10.739985595703125,-0.058844614773988724,-0.19738033413887024,0.0453791469335556
1761315161150967800,10.7499677734375,-0.019667308777570724,-0.22547470033168793,0.007728302851319313
1761315161160948700,10.75994873046875,0.010278073139488697,-0.19881193339824677,-0.01954459771513939
1761315161170931000,10.769930908203126,0.03072478249669075,-0.10366911441087723,-0.0557950958609581
1761315161180911900,10.779911865234375,0.02199041284620762,-0.0025185300037264824,-0.054447803646326065
1761315161190893000,10.78989306640625,0.012141254730522633,0.039029158651828766,-0.011542223393917084
