time,seconds_elapsed,z,y,x
1761315754125414700,0.07341455078125,0.12136514484882355,-0.4511595368385315,-0.05594445392489433
1761315754135396600,0.083396728515625,0.016150793060660362,-0.5902788639068604,-0.09472779929637909
1761315754145378600,0.093378662109375,-0.08063353598117828,-0.6523499488830566,-0.16742384433746338
1761315754155360500,0.103360595703125,-0.16799627244472504,-0.5714607834815979,-0.2710219621658325
1761315754165343500,0.113343505859375,-0.20795220136642456,-0.39430832862854004,-0.36619269847869873
1761315754175325700,0.12332568359375,-0.20329147577285767,-0.1732708066701889,-0.43458545207977295
1761315754185307400,0.133307373046875,-0.16231074929237366,0.012644210830330849,-0.45231226086616516
1761315754195289000,0.1432890625,-0.09582336246967316,0.13233689963817596,-0.41646721959114075
1761315754205272300,0.153272216796875,-0.018989035859704018,0.20412081480026245,-0.32140064239501953
1761315754215254000,0.16325390625,0.05676821991801262,0.21949905157089233,-0.17275552451610565
1761315754225236200,0.173236328125,0.11324161291122437,0.2096136510372162,-0.007784943096339703
1761315754235218200,0.18321826171875,0.1480177342891693,0.18106605112552643,0.15835003554821014
1761315754245201200,0.193201171875,0.16478686034679413,0.1441357284784317,0.3060486912727356
1761315754255183000,0.20318310546875,0.1757659763097763,0.1021023690700531,0.43055325746536255
1761315754265165000,0.2131650390625,0.19784624874591827,0.08428236097097397,0.5343456864356995
1761315754275147300,0.223147216796875,0.23846086859703064,0.08590617775917053,0.6241156458854675
1761315754285129000,0.23312890625,0.29782140254974365,0.10069364309310913,0.6917298436164856
1761315754295112200,0.2431123046875,0.34951770305633545,0.10003131628036499,0.732571005821228
1761315754305094100,0.25309423828125,0.38977324962615967,0.08725319802761078,0.7558488845825195
1761315754315076000,0.263076171875,0.4131980538368225,0.05198025703430176,0.7719829678535461
1761315754325058300,0.273058349609375,0.42032545804977417,0.0021868660114705563,0.7790752053260803
1761315754335041000,0.283041015625,0.40798938274383545,-0.049442317336797714,0.7858227491378784
1761315754345023200,0.293023193359375,0.37651509046554565,-0.11428709328174591,0.7781174182891846
1761315754355005000,0.3030048828125,0.32650917768478394,-0.18301816284656525,0.7583953738212585
1761315754364987100,0.312987060546875,0.2582414448261261,-0.24161942303180695,0.7164921164512634
1761315754374969300,0.32296923828125,0.1743622124195099,-0.2962970435619354,0.644868016242981
1761315754384952000,0.3329521484375,0.08882974088191986,-0.33958113193511963,0.5556797981262207
1761315754394934300,0.342934326171875,0.003631998784840107,-0.36988475918769836,0.4603084325790405
1761315754404916000,0.352916015625,-0.08278331905603409,-0.3739023804664612,0.36230382323265076
1761315754414898200,0.362898193359375,-0.1595015823841095,-0.3388821482658386,0.26314666867256165
1761315754424881200,0.372881103515625,-0.2113722264766693,-0.25020715594291687,0.18051621317863464
1761315754434863000,0.382863037109375,-0.23736174404621124,-0.13307610154151917,0.11577869206666946
1761315754444845300,0.39284521484375,-0.24354293942451477,0.009387045167386532,0.06377274543046951
1761315754454827000,0.402826904296875,-0.23313821852207184,0.15378127992153168,0.01952177844941616
1761315754464809200,0.412809326171875,-0.21183346211910248,0.2784222960472107,-0.014740853570401669
1761315754474792200,0.422792236328125,-0.17355671525001526,0.34452399611473083,-0.04990972578525543
1761315754484774100,0.432774169921875,-0.13350224494934082,0.3614768981933594,-0.0848970040678978
1761315754494756000,0.442756103515625,-0.09519710391759872,0.33517202734947205,-0.1240016520023346
1761315754504738000,0.452738037109375,-0.07460181415081024,0.270660400390625,-0.15679341554641724
1761315754514721300,0.46272119140625,-0.07233547419309616,0.19215324521064758,-0.17967458069324493
1761315754524703000,0.472702880859375,-0.08104481548070908,0.10390274971723557,-0.19325563311576843
1761315754534685200,0.482685302734375,-0.09794729202985764,0.034021757543087006,-0.2130630761384964
1761315754544667100,0.492667236328125,-0.11192595958709717,-0.018142642453312874,-0.24102146923542023
1761315754554649000,0.502649169921875,-0.1084817498922348,-0.03826016187667847,-0.2825012803077698
1761315754564632000,0.512632080078125,-0.09212594479322433,-0.016031021252274513,-0.3263172209262848
1761315754574614000,0.522614013671875,-0.06745275110006332,0.03352511301636696,-0.36220452189445496
1761315754584596200,0.53259619140625,-0.04510750621557236,0.08707915246486664,-0.3950066864490509
1761315754594578000,0.542577880859375,-0.03445693850517273,0.1307014524936676,-0.42340824007987976
1761315754604561200,0.55256103515625,-0.024630142375826836,0.1555332988500595,-0.4551240801811218
1761315754614543000,0.562543212890625,-0.019595446065068245,0.16808100044727325,-0.475481778383255
1761315754624525000,0.572525146484375,-0.017985299229621887,0.17009779810905457,-0.4791526794433594
1761315754634507300,0.58250732421875,-0.021821388974785805,0.15108060836791992,-0.4627780616283417
1761315754644489000,0.592489013671875,-0.022421132773160934,0.12227880209684372,-0.4323418438434601
1761315754654472200,0.60247216796875,-0.017354080453515053,0.08985649794340134,-0.3915730118751526
1761315754664454100,0.6124541015625,-0.009476449340581894,0.06085627153515816,-0.34040117263793945
1761315754674436000,0.62243603515625,-0.005408777855336666,0.0506305918097496,-0.2784680724143982
1761315754684418300,0.632418212890625,-0.005679355002939701,0.062131453305482864,-0.2121063619852066
1761315754694401000,0.642401123046875,-0.0002313147997483611,0.09954573214054108,-0.1550111472606659
1761315754704383200,0.65238330078125,0.00461404025554657,0.13699136674404144,-0.11984729021787643
1761315754714365200,0.662365234375,0.007409531623125076,0.14823001623153687,-0.11056262999773026
1761315754724347100,0.67234716796875,0.001547914114780724,0.13537706434726715,-0.1278180480003357
1761315754734330000,0.682330078125,0.000348741072230041,0.10744556039571762,-0.1573232114315033
1761315754744312000,0.69231201171875,-0.004662529099732637,0.08045095950365067,-0.18020614981651306
1761315754754294300,0.702294189453125,-0.008683666586875916,0.053041018545627594,-0.18722523748874664
1761315754764276000,0.71227587890625,-0.017288073897361755,0.03516508266329765,-0.1913028061389923
1761315754774258200,0.722258056640625,-0.03437938168644905,0.019513987004756927,-0.20406775176525116
1761315754784241200,0.7322412109375,-0.05813531205058098,-0.001956684747710824,-0.22502177953720093
1761315754794223000,0.74222314453125,-0.08265536278486252,-0.017827028408646584,-0.24911470711231232
1761315754804205000,0.752205078125,-0.10539716482162476,-0.017360441386699677,-0.26725858449935913
1761315754814187000,0.76218701171875,-0.1305917501449585,0.001481273677200079,-0.27328479290008545
1761315754824170200,0.772170166015625,-0.15133512020111084,0.027176516130566597,-0.2735234200954437
1761315754834152200,0.782152099609375,-0.17512643337249756,0.06876326352357864,-0.2684814929962158
1761315754844134100,0.792134033203125,-0.18331405520439148,0.13398300111293793,-0.24790509045124054
1761315754854116000,0.8021162109375,-0.18440501391887665,0.2014607936143875,-0.22297096252441406
1761315754864098000,0.81209814453125,-0.16745078563690186,0.2735309898853302,-0.18632666766643524
1761315754874081000,0.8220810546875,-0.1364806741476059,0.38137614727020264,-0.13011328876018524
1761315754884063200,0.832063232421875,-0.09164397418498993,0.5509470701217651,-0.05849581956863403
1761315754894045200,0.842045166015625,-0.032289598137140274,0.7035205364227295,-0.003891519969329238
1761315754904027100,0.852027099609375,0.03639385849237442,0.7418413162231445,-0.014193692244589329
1761315754914010000,0.862010009765625,0.08490803837776184,0.681421160697937,-0.06086842343211174
1761315754923992000,0.871991943359375,0.09489516168832779,0.550812304019928,-0.12052030861377716
1761315754933974000,0.88197412109375,0.07932936400175095,0.3422945439815521,-0.17024406790733337
1761315754943956200,0.891956298828125,0.03143001347780228,0.0747789517045021,-0.20530405640602112
1761315754953938200,0.901938232421875,-0.03296111524105072,-0.1649707704782486,-0.20846323668956757
1761315754963921200,0.911921142578125,-0.08998498320579529,-0.27971383929252625,-0.16119319200515747
1761315754973903000,0.921903076171875,-0.11627010256052017,-0.26086369156837463,-0.08298535645008087
1761315754983885000,0.931885009765625,-0.1174168586730957,-0.17101024091243744,0.019167371094226837
1761315754993867300,0.9418671875,-0.08042851835489273,-0.034094084054231644,0.12077409774065018
1761315755003850200,0.951850341796875,-0.011698455549776554,0.12329661101102829,0.22394229471683502
1761315755013832200,0.961832275390625,0.08073104172945023,0.25290238857269287,0.321678102016449
1761315755023814100,0.971814208984375,0.18437115848064423,0.35287773609161377,0.4136471748352051
1761315755033796000,0.981796142578125,0.29261237382888794,0.4346965551376343,0.5221158266067505
1761315755043778300,0.9917783203125,0.4095555245876312,0.49948087334632874,0.6522839069366455
1761315755053761300,1.00176123046875,0.518413245677948,0.5377629399299622,0.7846179008483887
1761315755063743200,1.0117431640625,0.6116275787353516,0.5621042251586914,0.9121846556663513
1761315755073725200,1.02172509765625,0.6907714009284973,0.5721399784088135,1.0119727849960327
1761315755083707100,1.03170703125,0.7621574401855469,0.5336040258407593,1.065673589706421
1761315755093690000,1.041690185546875,0.8013282418251038,0.4337940514087677,1.063352346420288
1761315755103672000,1.051672119140625,0.817517876625061,0.28616252541542053,1.0177329778671265
1761315755113654000,1.061654052734375,0.8155826330184937,0.125942200422287,0.938424289226532
1761315755123636200,1.07163623046875,0.8008521795272827,-0.027840426191687584,0.8506587743759155
1761315755133618200,1.0816181640625,0.7752339243888855,-0.15215599536895752,0.7550045847892761
1761315755143601200,1.09160107421875,0.754275381565094,-0.2196040153503418,0.6545855402946472
1761315755153583000,1.1015830078125,0.7411791682243347,-0.24226026237010956,0.5422202348709106
1761315755163565000,1.11156494140625,0.7330877184867859,-0.23309898376464844,0.4142422676086426
1761315755173547000,1.121547119140625,0.7126436233520508,-0.19744360446929932,0.2770385444164276
1761315755183530000,1.131530029296875,0.69327312707901,-0.14595511555671692,0.14789173007011414
1761315755193512700,1.1415126953125,0.6761854290962219,-0.07143843173980713,0.039327263832092285
1761315755203494700,1.15149462890625,0.6681306958198547,0.001791311427950859,-0.03436985984444618
1761315755213476600,1.1614765625,0.6650912761688232,0.05652746558189392,-0.059820860624313354
1761315755223458600,1.17145849609375,0.6760008931159973,0.09151235222816467,-0.051040951162576675
1761315755233441500,1.181441650390625,0.6955772042274475,0.12756699323654175,-0.0036775493063032627
1761315755243423700,1.191423828125,0.7186982035636902,0.17777982354164124,0.06517048925161362
1761315755253405700,1.20140576171875,0.7588690519332886,0.25319069623947144,0.1448621153831482
1761315755263387600,1.2113876953125,0.7946571707725525,0.32347816228866577,0.21565772593021393
1761315755273369600,1.22136962890625,0.8364781737327576,0.38250166177749634,0.2520308792591095
1761315755283352600,1.2313525390625,0.8742058277130127,0.39656394720077515,0.25126200914382935
1761315755293334800,1.241334716796875,0.9114589691162109,0.41785210371017456,0.23327520489692688
1761315755303316500,1.25131640625,0.9298661947250366,0.4448866546154022,0.20629605650901794
1761315755313298700,1.261298583984375,0.9355666637420654,0.4549996256828308,0.1721503883600235
1761315755323281400,1.271281494140625,0.9262824058532715,0.44508281350135803,0.12484119087457657
1761315755333263600,1.281263671875,0.8962398767471313,0.4129078984260559,0.05863417685031891
1761315755343245800,1.291245849609375,0.8430517315864563,0.37866151332855225,-0.007571741938591003
1761315755353227500,1.3012275390625,0.7846890091896057,0.33048489689826965,-0.07865907996892929
1761315755363209700,1.311209716796875,0.7243971824645996,0.2628352642059326,-0.15343771874904633
1761315755373192400,1.3211923828125,0.6630486845970154,0.19988366961479187,-0.221982941031456
1761315755383174700,1.331174560546875,0.6060210466384888,0.14609579741954803,-0.26507022976875305
1761315755393156600,1.341156494140625,0.5674363374710083,0.130060613155365,-0.28395745158195496
1761315755403138600,1.351138671875,0.5552123785018921,0.14082351326942444,-0.26393261551856995
1761315755413121800,1.361121826171875,0.559821367263794,0.15332616865634918,-0.23085811734199524
1761315755423103500,1.371103515625,0.5734626650810242,0.16045065224170685,-0.18785418570041656
1761315755433085700,1.381085693359375,0.5853579640388489,0.1517549604177475,-0.15154148638248444
1761315755443067600,1.391067626953125,0.5791106820106506,0.12703976035118103,-0.12501560151576996
1761315755453049600,1.401049560546875,0.5480329990386963,0.09160570055246353,-0.11070368438959122
1761315755463032800,1.41103271484375,0.50309157371521,0.06298337131738663,-0.1020984798669815
1761315755473014500,1.4210146484375,0.45054441690444946,0.026984533295035362,-0.09388458728790283
1761315755482996700,1.430996826171875,0.3961655795574188,-0.0030117128044366837,-0.08139116317033768
1761315755492978700,1.440978759765625,0.3533433973789215,-0.009647590108215809,-0.06772124767303467
1761315755502961700,1.450961669921875,0.3167038857936859,-0.0021420030388981104,-0.0577293336391449
1761315755512943900,1.46094384765625,0.28612884879112244,-0.005230810027569532,-0.0526202917098999
1761315755522925600,1.470925537109375,0.2498084008693695,-0.029167834669351578,-0.05092785134911537
1761315755532907800,1.48090771484375,0.21589699387550354,-0.05906816944479942,-0.057651422917842865
1761315755542889500,1.490889404296875,0.17439483106136322,-0.09399685263633728,-0.07120504975318909
1761315755552872700,1.500872802734375,0.12737295031547546,-0.1459321677684784,-0.09521614015102386
1761315755562854700,1.510854736328125,0.07389667630195618,-0.20570255815982819,-0.12065331637859344
1761315755572836600,1.520836669921875,0.01604156196117401,-0.2628431022167206,-0.14925391972064972
1761315755582818800,1.53081884765625,-0.045308612287044525,-0.29628708958625793,-0.17454463243484497
1761315755592801500,1.540801513671875,-0.0965648740530014,-0.3153015077114105,-0.20046384632587433
1761315755602783700,1.55078369140625,-0.1436370462179184,-0.31958892941474915,-0.21298204362392426
1761315755612765400,1.560765380859375,-0.18246325850486755,-0.2977094352245331,-0.21310681104660034
1761315755622747600,1.57074755859375,-0.20558641850948334,-0.23134613037109375,-0.20424488186836243
1761315755632729600,1.5807294921875,-0.20989839732646942,-0.09638161212205887,-0.19556353986263275
1761315755642712600,1.590712646484375,-0.1978324055671692,0.0023143403232097626,-0.218540221452713
1761315755652694800,1.60069482421875,-0.18987959623336792,-0.023852158337831497,-0.30351483821868896
1761315755662676500,1.610676513671875,-0.21060405671596527,-0.16232216358184814,-0.42762160301208496
1761315755672658700,1.62065869140625,-0.25425469875335693,-0.3665085434913635,-0.5734897255897522
1761315755682641700,1.6306416015625,-0.30470243096351624,-0.5639297962188721,-0.709175705909729
1761315755692623600,1.64062353515625,-0.36954501271247864,-0.6946837306022644,-0.8085053563117981
1761315755702605800,1.650605712890625,-0.43183770775794983,-0.6970992684364319,-0.8522136807441711
1761315755712587500,1.66058740234375,-0.4650953710079193,-0.610443115234375,-0.8339895606040955
1761315755722569700,1.67056982421875,-0.4760633409023285,-0.4337013065814972,-0.7697051167488098
1761315755732552400,1.680552490234375,-0.4534606635570526,-0.2383701056241989,-0.6785334348678589
1761315755742534700,1.69053466796875,-0.4023074805736542,-0.07978685200214386,-0.5750941038131714
1761315755752516900,1.700516845703125,-0.3386436402797699,0.009673971682786942,-0.46838080883026123
1761315755762498600,1.71049853515625,-0.2689402103424072,0.044888950884342194,-0.3645726442337036
1761315755772481800,1.720481689453125,-0.21048983931541443,0.06834203004837036,-0.24755853414535522
1761315755782463500,1.73046337890625,-0.1686590313911438,0.11358274519443512,-0.122444286942482
1761315755792445700,1.74044580078125,-0.14182667434215546,0.17775166034698486,0.009011850692331791
1761315755802427600,1.750427734375,-0.11803532391786575,0.2456423044204712,0.12241777032613754
1761315755812409600,1.76040966796875,-0.09063021838665009,0.2874818444252014,0.22119270265102386
1761315755822392600,1.770392578125,-0.04950861632823944,0.29966261982917786,0.3106123208999634
1761315755832374500,1.78037451171875,-0.002171069383621216,0.2653364837169647,0.3917149603366852
1761315755842356700,1.790356689453125,0.04143872484564781,0.1849183291196823,0.44606873393058777
1761315755852338400,1.80033837890625,0.07327891141176224,0.0762113556265831,0.48650455474853516
1761315755862321700,1.81032177734375,0.08280503749847412,-0.06495402753353119,0.511627733707428
1761315755872303600,1.8203037109375,0.06254278123378754,-0.217484250664711,0.5308398008346558
1761315755882285600,1.83028564453125,0.014919870533049107,-0.3506167232990265,0.5329711437225342
1761315755892267800,1.840267822265625,-0.05968325212597847,-0.4317839741706848,0.5089902877807617
1761315755902249500,1.85024951171875,-0.15356341004371643,-0.4615437388420105,0.44039446115493774
1761315755912232700,1.860232666015625,-0.2513359487056732,-0.4325275719165802,0.3447876572608948
1761315755922214700,1.870214599609375,-0.35986533761024475,-0.3630560636520386,0.2429627776145935
1761315755932196600,1.880196533203125,-0.4699036180973053,-0.2772211730480194,0.14619047939777374
1761315755942178800,1.8901787109375,-0.5716385245323181,-0.1686888486146927,0.0711713582277298
1761315755952160500,1.900160400390625,-0.6320297122001648,-0.03543657809495926,0.036769475787878036
1761315755962143700,1.910143798828125,-0.6495394706726074,0.09580133855342865,0.033080995082855225
1761315755972125400,1.92012548828125,-0.6425987482070923,0.18354877829551697,0.05057862028479576
1761315755982107600,1.930107666015625,-0.6088243126869202,0.22164742648601532,0.06498285382986069
1761315755992089900,1.94008984375,-0.5651164650917053,0.22189004719257355,0.07078854739665985
1761315756002072600,1.950072509765625,-0.5296028256416321,0.19441494345664978,0.06849440932273865
1761315756012054800,1.9600546875,-0.5012827515602112,0.13025768101215363,0.05806592106819153
1761315756022036500,1.970036376953125,-0.4829047620296478,0.07593479752540588,0.039625927805900574
1761315756032018700,1.980018798828125,-0.48227664828300476,0.009272830560803413,0.007412119768559933
1761315756042000600,1.990000732421875,-0.4906677305698395,-0.05345845967531204,-0.04639039188623428
1761315756051983600,1.999983642578125,-0.5043396949768066,-0.1110171228647232,-0.11139481514692307
1761315756061965800,2.0099658203125,-0.528368353843689,-0.16501805186271667,-0.1848413348197937
1761315756071947500,2.019947509765625,-0.5552701354026794,-0.22001048922538757,-0.2499440312385559
1761315756081929700,2.0299296875,-0.5646519064903259,-0.2699740529060364,-0.3061748147010803
1761315756091912700,2.03991259765625,-0.5699138641357422,-0.30751919746398926,-0.3564714193344116
1761315756101894700,2.049894775390625,-0.5686874389648438,-0.325956791639328,-0.3890346884727478
1761315756111876600,2.059876708984375,-0.5601726770401001,-0.3248365521430969,-0.41469618678092957
1761315756121858600,2.069858642578125,-0.5566178560256958,-0.32285141944885254,-0.4450357258319855
1761315756131840800,2.0798408203125,-0.5605289936065674,-0.2688952088356018,-0.4618842601776123
1761315756141823500,2.089823486328125,-0.5646510720252991,-0.18411187827587128,-0.4754674434661865
1761315756151805700,2.0998056640625,-0.5610514283180237,-0.0626436397433281,-0.48245081305503845
1761315756161787600,2.10978759765625,-0.5464876294136047,0.07682477682828903,-0.47195714712142944
1761315756171769600,2.11976953125,-0.5151227116584778,0.23164741694927216,-0.4415881037712097
1761315756181752600,2.129752685546875,-0.4732474386692047,0.3638371527194977,-0.3837184011936188
1761315756191733800,2.139733642578125,-0.41915163397789,0.4539731442928314,-0.31463107466697693
1761315756201716000,2.149716064453125,-0.36582767963409424,0.4948825240135193,-0.2550992965698242
1761315756211698000,2.159697998046875,-0.3215278089046478,0.4790702760219574,-0.2252027988433838
1761315756221679900,2.169679931640625,-0.2828507125377655,0.4399215281009674,-0.22351035475730896
1761315756231663000,2.1796630859375,-0.2483256459236145,0.3942233920097351,-0.2419619858264923
1761315756241644800,2.189644775390625,-0.22973571717739105,0.33281809091567993,-0.2811325490474701
1761315756251627000,2.199626953125,-0.22109004855155945,0.2951011061668396,-0.33199241757392883
1761315756261609000,2.20960888671875,-0.20745758712291718,0.2684396505355835,-0.3877728581428528
1761315756271592000,2.219592041015625,-0.22416967153549194,0.23684677481651306,-0.46441540122032166
1761315756281574000,2.229573974609375,-0.2579955458641052,0.19247157871723175,-0.5488834381103516
1761315756291555800,2.239555908203125,-0.29948359727859497,0.14121748507022858,-0.6184304356575012
1761315756301538000,2.2495380859375,-0.3427509069442749,0.08268307149410248,-0.6651704907417297
1761315756311519700,2.259519775390625,-0.3812558948993683,0.033368341624736786,-0.6754773855209351
1761315756321503000,2.2695029296875,-0.4118686616420746,-0.002349440474063158,-0.6491347551345825
1761315756331484700,2.279484619140625,-0.4369359016418457,-0.018995150923728943,-0.5968210101127625
1761315756341467000,2.289466796875,-0.4430566430091858,-0.02817373350262642,-0.5188407301902771
1761315756351448800,2.29944873046875,-0.4261438846588135,-0.002609577961266041,-0.41920143365859985
1761315756361431800,2.309431884765625,-0.3784932792186737,0.10534671694040298,-0.3160731792449951
1761315756371414000,2.3194140625,-0.30741432309150696,0.2897316813468933,-0.22256582975387573
1761315756381395700,2.329395751953125,-0.22849154472351074,0.42611056566238403,-0.1793896108865738
1761315756391378000,2.3393779296875,-0.17770527303218842,0.4342307150363922,-0.2025461345911026
1761315756401360000,2.34935986328125,-0.15610837936401367,0.32480543851852417,-0.3016178607940674
1761315756411342800,2.3593427734375,-0.1579180210828781,0.11898316442966461,-0.4282210171222687
1761315756421325000,2.369324951171875,-0.17300641536712646,-0.1876356303691864,-0.5444357991218567
1761315756431306800,2.379306640625,-0.19701004028320312,-0.5044389367103577,-0.598115086555481
1761315756441289000,2.3892890625,-0.2237015813589096,-0.6883363723754883,-0.5721921324729919
1761315756451271700,2.399271728515625,-0.2305794209241867,-0.8004427552223206,-0.4543159306049347
1761315756461254000,2.40925390625,-0.18818004429340363,-0.7410558462142944,-0.25299161672592163
1761315756471236000,2.419236083984375,-0.08338955789804459,-0.5525120496749878,0.0067871371284127235
1761315756481217800,2.4292177734375,0.058510858565568924,-0.29393455386161804,0.26671725511550903
1761315756491200000,2.439199951171875,0.2200651913881302,-0.05742642655968666,0.47113218903541565
1761315756501182700,2.4491826171875,0.35626110434532166,0.09765263646841049,0.5696880221366882
1761315756511165000,2.4591650390625,0.466634064912796,0.18200720846652985,0.5702241063117981
1761315756521147000,2.46914697265625,0.5435059666633606,0.22568970918655396,0.5234891176223755
1761315756531128800,2.47912890625,0.6105672717094421,0.2537347078323364,0.5100651383399963
1761315756541112000,2.489112060546875,0.672522783279419,0.2994052767753601,0.5682014226913452
1761315756551093800,2.49909375,0.7321965098381042,0.34579551219940186,0.6853516697883606
1761315756561076000,2.509075927734375,0.803557276725769,0.3797665238380432,0.8301085829734802
1761315756571058000,2.519057861328125,0.8760814666748047,0.37695392966270447,0.9520074129104614
1761315756581039900,2.529039794921875,0.9184198379516602,0.32581695914268494,1.0257103443145752
1761315756591022800,2.53902294921875,0.9291794300079346,0.22183796763420105,1.0387649536132812
1761315756601004800,2.5490048828125,0.9122465252876282,0.06910328567028046,0.9902554750442505
1761315756610987000,2.558987060546875,0.8591701984405518,-0.11045682430267334,0.8980938196182251
1761315756620968700,2.56896875,0.7909192442893982,-0.26937589049339294,0.7670125365257263
1761315756630951000,2.578950927734375,0.7112866640090942,-0.39757388830184937,0.5984923839569092
1761315756640934000,2.588933837890625,0.6218864321708679,-0.48358389735221863,0.40644359588623047
1761315756650915800,2.598915771484375,0.5424957275390625,-0.4996543526649475,0.2281920462846756
1761315756660898000,2.60889794921875,0.4727707505226135,-0.456094354391098,0.07625871151685715
1761315756670879700,2.618879638671875,0.413743793964386,-0.38672736287117004,-0.033735644072294235
1761315756680863000,2.628863037109375,0.37080857157707214,-0.30673372745513916,-0.09451749920845032
1761315756690844700,2.6388447265625,0.364982545375824,-0.2205761820077896,-0.10175865888595581
1761315756700827000,2.648826904296875,0.3941718339920044,-0.12871070206165314,-0.06422513723373413
1761315756710809000,2.65880908203125,0.45794442296028137,-0.024059388786554337,0.010898379608988762
1761315756720790800,2.668790771484375,0.5477872490882874,0.06307711452245712,0.1062115803360939
1761315756730774000,2.67877392578125,0.6471831798553467,0.12206784635782242,0.20174044370651245
1761315756740755700,2.688755615234375,0.736893892288208,0.15360313653945923,0.2765595316886902
1761315756750738000,2.698738037109375,0.8112828135490417,0.18352766335010529,0.32622474431991577
1761315756760720000,2.708719970703125,0.8551764488220215,0.2301207333803177,0.34760433435440063
1761315756770702800,2.718702880859375,0.8652566075325012,0.2971865236759186,0.3420830965042114
1761315756780685000,2.72868505859375,0.8482280969619751,0.3781450390815735,0.30577436089515686
1761315756790666800,2.738666748046875,0.8279626369476318,0.43335583806037903,0.24352149665355682
1761315756800649000,2.74864892578125,0.7928770780563354,0.4622601866722107,0.16966964304447174
1761315756810631000,2.758630859375,0.7703696489334106,0.4696933925151825,0.08367721736431122
1761315756820614000,2.76861376953125,0.739704966545105,0.46919167041778564,0.00306439446285367
1761315756830596000,2.77859619140625,0.7236102223396301,0.44220539927482605,-0.07323508709669113
1761315756840577800,2.788577880859375,0.7079780101776123,0.3803449869155884,-0.14125728607177734
1761315756850560000,2.79856005859375,0.6906751990318298,0.32679465413093567,-0.1811874955892563
1761315756860542700,2.808542724609375,0.6803911328315735,0.2898443341255188,-0.1913357377052307
1761315756870525000,2.81852490234375,0.6649389266967773,0.25161585211753845,-0.18228371441364288
1761315756880507000,2.8285068359375,0.6373326182365417,0.2323494851589203,-0.15991902351379395
1761315756890488800,2.83848876953125,0.62277752161026,0.22386695444583893,-0.1294269859790802
1761315756900471000,2.848470947265625,0.6062986850738525,0.23269054293632507,-0.09709780663251877
1761315756910453800,2.858453857421875,0.6122076511383057,0.21538697183132172,-0.08374128490686417
1761315756920436000,2.86843603515625,0.6194557547569275,0.18764536082744598,-0.07271713018417358
1761315756930417700,2.878417724609375,0.626002848148346,0.17857523262500763,-0.05632513761520386
1761315756940399900,2.88839990234375,0.6384227275848389,0.1735927164554596,-0.023209795355796814
1761315756950382800,2.8983828125,0.629892885684967,0.1623462289571762,0.019796498119831085
1761315756960364800,2.90836474609375,0.6160601377487183,0.1558111011981964,0.060905054211616516
1761315756970347000,2.918346923828125,0.5879924893379211,0.14911691844463348,0.08097999542951584
1761315756980328700,2.92832861328125,0.5527849793434143,0.1262560784816742,0.058934345841407776
1761315756990311000,2.938310791015625,0.511781632900238,0.1007666140794754,0.012958773411810398
1761315757000294000,2.9482939453125,0.4555170238018036,0.10040176659822464,-0.030542362481355667
1761315757010275800,2.95827587890625,0.3949127495288849,0.09924500435590744,-0.06421595811843872
1761315757020258000,2.968258056640625,0.32516801357269287,0.08534330129623413,-0.09576988965272903
1761315757030239700,2.97823974609375,0.25170058012008667,0.03307453542947769,-0.13768447935581207
1761315757040222000,2.988221923828125,0.16670659184455872,-0.04388655722141266,-0.2032480388879776
1761315757050205000,2.998204833984375,0.06981813162565231,-0.11246775090694427,-0.2688712477684021
1761315757060187000,3.008186767578125,-0.016965236514806747,-0.1528918743133545,-0.32162368297576904
1761315757070169000,3.018169189453125,-0.10188421607017517,-0.16098780930042267,-0.35698211193084717
1761315757080150800,3.02815087890625,-0.1588609516620636,-0.1505439430475235,-0.3725208342075348
1761315757090134000,3.038134033203125,-0.19737564027309418,-0.12103377282619476,-0.366451233625412
1761315757100115700,3.04811572265625,-0.21313223242759705,-0.08873948454856873,-0.3293669819831848
1761315757110098000,3.058097900390625,-0.20507366955280304,-0.029187390580773354,-0.2571702003479004
1761315757120080000,3.068079833984375,-0.1829632967710495,0.06731545180082321,-0.16302023828029633
1761315757130062800,3.078062744140625,-0.1501656323671341,0.16081790626049042,-0.06727664917707443
1761315757140044800,3.088044921875,-0.1184265986084938,0.1882583200931549,-0.006782409269362688
1761315757150026800,3.09802685546875,-0.11224038153886795,0.12203387171030045,-0.0037408710923045874
1761315757160009000,3.108009033203125,-0.13506846129894257,-0.02812766283750534,-0.06770706921815872
1761315757169990700,3.11799072265625,-0.18403582274913788,-0.237009659409523,-0.18414638936519623
1761315757179974000,3.127973876953125,-0.2475287765264511,-0.4122736155986786,-0.32430270314216614
1761315757189955800,3.137955810546875,-0.31608521938323975,-0.5091085433959961,-0.46674880385398865
1761315757199937800,3.147937744140625,-0.3866235613822937,-0.5284883379936218,-0.5822796821594238
1761315757209920000,3.157919921875,-0.46652185916900635,-0.48180314898490906,-0.6352638006210327
1761315757219901700,3.167901611328125,-0.5220767259597778,-0.40274640917778015,-0.6085538864135742
1761315757229885000,3.177885009765625,-0.5460476279258728,-0.27756717801094055,-0.5159288644790649
1761315757239867000,3.187866943359375,-0.5080651044845581,-0.14698520302772522,-0.36729732155799866
1761315757249848800,3.197848876953125,-0.412018358707428,-0.03132074326276779,-0.16414588689804077
1761315757259831000,3.2078310546875,-0.29594847559928894,0.07435641437768936,0.05815217271447182
1761315757269813800,3.217813720703125,-0.19351281225681305,0.1350279599428177,0.2678692042827606
1761315757279796000,3.2277958984375,-0.12398646026849747,0.1532098948955536,0.4333766996860504
1761315757289778000,3.23777783203125,-0.08604956418275833,0.14348675310611725,0.5600167512893677
1761315757299759900,3.247759765625,-0.06902796775102615,0.11678671091794968,0.658921480178833
1761315757309742000,3.2577421875,-0.06305698305368423,0.10028798133134842,0.7434577941894531
1761315757319724800,3.267724853515625,-0.06643360108137131,0.07522124797105789,0.8119148015975952
1761315757329707000,3.27770703125,-0.05897470563650131,0.03915175795555115,0.8619394898414612
1761315757339688700,3.287688720703125,-0.04357151314616203,-0.026952430605888367,0.8914420008659363
1761315757349671000,3.2976708984375,-0.02836066670715809,-0.11795800179243088,0.8991045951843262
1761315757359654000,3.30765380859375,-0.022088656201958656,-0.23307235538959503,0.8937614560127258
1761315757369635800,3.3176357421875,-0.034550029784440994,-0.3457125425338745,0.875213623046875
1761315757379618000,3.3276181640625,-0.06898816674947739,-0.426000714302063,0.8456403017044067
1761315757389599700,3.337599853515625,-0.13821080327033997,-0.47310498356819153,0.7996306419372559
1761315757399582000,3.34758203125,-0.2469538003206253,-0.4956910014152527,0.7276885509490967
1761315757409565000,3.35756494140625,-0.3671804368495941,-0.48816484212875366,0.6363889575004578
1761315757419547000,3.367546875,-0.49459004402160645,-0.44510552287101746,0.5222237706184387
1761315757429528800,3.37752880859375,-0.6048908829689026,-0.35727593302726746,0.4060836136341095
1761315757439510800,3.3875107421875,-0.6855793595314026,-0.23311005532741547,0.29722878336906433
1761315757449493800,3.39749365234375,-0.7381505966186523,-0.08441143482923508,0.20141014456748962
1761315757459476000,3.40747607421875,-0.7559192180633545,0.04475453495979309,0.12119227647781372
1761315757469458000,3.4174580078125,-0.7335424423217773,0.14384876191616058,0.057343192398548126
1761315757479440000,3.42743994140625,-0.6854382753372192,0.20452569425106049,0.017924414947628975
1761315757489421800,3.437421875,-0.6235756278038025,0.2203923612833023,-0.0001961768139153719
1761315757499404800,3.44740478515625,-0.5725851058959961,0.21055810153484344,0.005139999091625214
1761315757509386800,3.45738671875,-0.5341554284095764,0.1851089745759964,0.027530763298273087
1761315757519369000,3.467368896484375,-0.5132189989089966,0.15056884288787842,0.05139295384287834
1761315757529351000,3.477350830078125,-0.5016993880271912,0.11545462906360626,0.0709475725889206
1761315757539334000,3.487333984375,-0.5015609264373779,0.07618898153305054,0.06632085889577866
1761315757549315800,3.49731591796875,-0.49971720576286316,0.04084952175617218,0.02280513197183609
1761315757559297800,3.5072978515625,-0.49662235379219055,-0.01625264808535576,-0.05044484883546829
1761315757569280000,3.517280029296875,-0.4923439621925354,-0.07288317382335663,-0.14566271007061005
1761315757579261700,3.52726171875,-0.4841741919517517,-0.11319331079721451,-0.2344101518392563
1761315757589245000,3.537244873046875,-0.4772946536540985,-0.12290624529123306,-0.29965940117836
1761315757599227000,3.547226806640625,-0.4652758240699768,-0.10229231417179108,-0.3443096876144409
1761315757609208800,3.557208740234375,-0.4511304199695587,-0.07399404048919678,-0.368269145488739
1761315757619191000,3.56719091796875,-0.4454232454299927,-0.04597439244389534,-0.38460230827331543
1761315757629174000,3.577174072265625,-0.4348376989364624,-0.01378684863448143,-0.4051726758480072
1761315757639156000,3.587156005859375,-0.4337884187698364,0.006499247159808874,-0.4401855170726776
1761315757649138000,3.597137939453125,-0.43428927659988403,0.004461593460291624,-0.48926037549972534
1761315757659119900,3.607119873046875,-0.4247346520423889,-0.007044593337923288,-0.535605788230896
1761315757669102000,3.61710205078125,-0.4095745086669922,-0.02250778116285801,-0.5469636917114258
1761315757679084800,3.627084716796875,-0.3762035071849823,-0.014374486170709133,-0.525346040725708
1761315757689067000,3.63706689453125,-0.32533958554267883,0.011341866105794907,-0.4723157584667206
1761315757699049000,3.647049072265625,-0.27006593346595764,0.06436487287282944,-0.3945983350276947
1761315757709031000,3.657031005859375,-0.20752497017383575,0.12627257406711578,-0.3060882091522217
1761315757719014000,3.667013916015625,-0.13533839583396912,0.19022759795188904,-0.21407893300056458
1761315757728995800,3.676995849609375,-0.06499383598566055,0.22690320014953613,-0.1385018229484558
1761315757738977800,3.686977783203125,-0.007171813864260912,0.2289769947528839,-0.0946265161037445
1761315757748959700,3.696959716796875,0.0410141758620739,0.19403252005577087,-0.07685574144124985
1761315757758942000,3.70694189453125,0.0747566968202591,0.14640773832798004,-0.07911117374897003
1761315757768925000,3.716925048828125,0.08633045852184296,0.08425620198249817,-0.0932268425822258
1761315757778907000,3.726906982421875,0.07852154225111008,0.026258142665028572,-0.10094281286001205
1761315757788888800,3.736888916015625,0.06667088717222214,-0.03729669004678726,-0.10757044702768326
1761315757798870800,3.746870849609375,0.04304518550634384,-0.1086994931101799,-0.1072721779346466
1761315757808853800,3.756853759765625,0.010010229423642159,-0.16108915209770203,-0.11325472593307495
1761315757818836000,3.7668359375,-0.02692301943898201,-0.20481052994728088,-0.120451919734478
1761315757828818000,3.77681787109375,-0.059730593115091324,-0.23301225900650024,-0.12566125392913818
1761315757838800000,3.7867998046875,-0.0827978253364563,-0.23702670633792877,-0.12025448679924011
1761315757848781800,3.79678173828125,-0.09039707481861115,-0.2163068652153015,-0.09494363516569138
1761315757858764800,3.806764892578125,-0.06686511635780334,-0.10995671153068542,-0.042720112949609756
1761315757868747000,3.8167470703125,-0.015752043575048447,0.06525412946939468,0.035062890499830246
1761315757878729000,3.82672900390625,0.04873054474592209,0.2327864021062851,0.11352494359016418
1761315757888711000,3.8367109375,0.08682286739349365,0.2985745668411255,0.168599471449852
1761315757898694000,3.84669384765625,0.08563616871833801,0.281465083360672,0.17430342733860016
1761315757908675800,3.85667578125,0.06496849656105042,0.21692974865436554,0.13286904990673065
1761315757918657800,3.86665771484375,0.048851314932107925,0.1356079876422882,0.06029205024242401
1761315757928640000,3.876639892578125,0.01719003915786743,0.022309089079499245,-0.026433372870087624
1761315757938622000,3.8866220703125,-0.021886255592107773,-0.09605830162763596,-0.11511317640542984
1761315757948605000,3.89660498046875,-0.0668833777308464,-0.18646322190761566,-0.17309154570102692
1761315757958587000,3.9065869140625,-0.0971669852733612,-0.21827362477779388,-0.1744079440832138
1761315757968568800,3.91656884765625,-0.10166926681995392,-0.19476506114006042,-0.12135647982358932
1761315757978550800,3.92655078125,-0.08957026153802872,-0.11678103357553482,-0.024244578555226326
1761315757988534000,3.936533935546875,-0.035147521644830704,-0.00961347110569477,0.09838128834962845
1761315757998516000,3.946515869140625,0.05958244949579239,0.08167063444852829,0.22863145172595978
1761315758008498000,3.956497802734375,0.17250801622867584,0.1623760610818863,0.3676189184188843
1761315758018479900,3.96647998046875,0.3126574158668518,0.2721150815486908,0.5110964775085449
1761315758028461800,3.9764619140625,0.4519014060497284,0.36926794052124023,0.6487480998039246
1761315758038445000,3.986445068359375,0.5753634572029114,0.40739136934280396,0.7577629685401917
1761315758048426800,3.9964267578125,0.6699530482292175,0.3743865489959717,0.8093478679656982
1761315758058409000,4.006408935546875,0.7294520139694214,0.2831903100013733,0.8203853368759155
1761315758068391000,4.016390869140625,0.7599449753761292,0.14196792244911194,0.7843566536903381
1761315758078372900,4.026372802734375,0.7625178694725037,-0.051861733198165894,0.7007946968078613
1761315758088355800,4.03635595703125,0.739252507686615,-0.2607737183570862,0.5767740607261658
1761315758098337800,4.046337890625,0.6825849413871765,-0.43122002482414246,0.4370182752609253
1761315758108320000,4.056320068359375,0.6090011596679688,-0.512419581413269,0.2959579825401306
1761315758118302000,4.066302001953125,0.5523613095283508,-0.5019440054893494,0.1641554832458496
1761315758128285000,4.076284912109375,0.5028762817382812,-0.4421379566192627,0.04032077640295029
1761315758138267000,4.086266845703125,0.47435885667800903,-0.38078567385673523,-0.06398912519216537
1761315758148248800,4.096248779296875,0.46459460258483887,-0.3363967835903168,-0.13855168223381042
1761315758158230800,4.106230712890625,0.47233960032463074,-0.2913414239883423,-0.1862395703792572
1761315758168213000,4.116212890625,0.4827873706817627,-0.2710224390029907,-0.20321770012378693
1761315758178196000,4.126196044921875,0.5064407587051392,-0.2861925959587097,-0.20850753784179688
1761315758188178000,4.136177978515625,0.545656144618988,-0.3396252989768982,-0.1994752436876297
1761315758198160100,4.14616015625,0.5907447934150696,-0.4071931540966034,-0.18604519963264465
1761315758208142000,4.15614208984375,0.6350002884864807,-0.48163315653800964,-0.161418616771698
1761315758218125000,4.166125,0.6673752665519714,-0.547539234161377,-0.12299294024705887
1761315758228107000,4.17610693359375,0.6876208186149597,-0.5736132264137268,-0.06912103295326233
1761315758238089000,4.1860888671875,0.6912216544151306,-0.5649952292442322,-0.01858462020754814
1761315758248071000,4.19607080078125,0.6693864464759827,-0.5589357018470764,0.0014512556372210383
1761315758258053000,4.20605322265625,0.6191302537918091,-0.5572317838668823,-0.005723300389945507
1761315758268036000,4.2160361328125,0.5542132258415222,-0.5441942811012268,-0.04134387895464897
1761315758278018000,4.22601806640625,0.4766649007797241,-0.5178404450416565,-0.09928600490093231
1761315758288000000,4.236,0.39377185702323914,-0.4482667148113251,-0.1704176664352417
1761315758297982000,4.24598193359375,0.3172254264354706,-0.3686688244342804,-0.2491132915019989
1761315758307965000,4.25596484375,0.2470162957906723,-0.2893916368484497,-0.3201645314693451
1761315758317947100,4.265947021484375,0.16974042356014252,-0.21179911494255066,-0.3600301742553711
1761315758327929000,4.27592919921875,0.09108460694551468,-0.14096246659755707,-0.3589818477630615
1761315758337911000,4.2859111328125,0.018214654177427292,-0.08564595133066177,-0.324686199426651
1761315758347893000,4.29589306640625,-0.03351122885942459,-0.04007871076464653,-0.27171528339385986
1761315758357876000,4.3058759765625,-0.07499954849481583,-0.016097743064165115,-0.2079373598098755
1761315758367858200,4.315858154296875,-0.10147248953580856,-0.027585331350564957,-0.131585031747818
1761315758377840000,4.325840087890625,-0.12004697322845459,-0.04409852996468544,-0.028154781088232994
1761315758387822000,4.335822021484375,-0.12227731943130493,-0.023562850430607796,0.09670642763376236
1761315758397805000,4.34580517578125,-0.11443696916103363,0.04809695482254028,0.22038708627223969
1761315758407787000,4.355787109375,-0.11643090844154358,0.1475590020418167,0.29261964559555054
1761315758417769000,4.36576904296875,-0.13703657686710358,0.23997308313846588,0.2811097204685211
1761315758427751200,4.375751220703125,-0.1736237108707428,0.30606162548065186,0.1982603669166565
1761315758437733000,4.385733154296875,-0.21566356718540192,0.37420952320098877,0.08358358591794968
1761315758447716000,4.395716064453125,-0.28308647871017456,0.3853738307952881,-0.04456775262951851
1761315758457698000,4.405697998046875,-0.35573431849479675,0.37178823351860046,-0.15128301084041595
1761315758467680000,4.415679931640625,-0.42086121439933777,0.30631223320961,-0.2116139680147171
1761315758477662200,4.425662109375,-0.46236470341682434,0.21370720863342285,-0.24628779292106628
1761315758487645200,4.435645263671875,-0.49884071946144104,0.09353024512529373,-0.2580914795398712
1761315758497627100,4.445627197265625,-0.5139576196670532,-0.016999991610646248,-0.2680237591266632
1761315758507609000,4.455609130859375,-0.5117290616035461,-0.10506892204284668,-0.29106006026268005
1761315758517591000,4.465591064453125,-0.5022607445716858,-0.1542591005563736,-0.3157252073287964
1761315758527573000,4.475572998046875,-0.4860168993473053,-0.17867116630077362,-0.3356524705886841
1761315758537556200,4.48555615234375,-0.46284446120262146,-0.18642015755176544,-0.32839882373809814
1761315758547538000,4.495537841796875,-0.4366660714149475,-0.17174182832241058,-0.3004959523677826
1761315758557520100,4.50552001953125,-0.4248884916305542,-0.1387370079755783,-0.26149317622184753
1761315758567502000,4.515502197265625,-0.4291941821575165,-0.11888007819652557,-0.2115282118320465
1761315758577485000,4.525485107421875,-0.4404761493206024,-0.05744734779000282,-0.16195373237133026
1761315758587467000,4.535467041015625,-0.4368373453617096,0.019009282812476158,-0.11414223909378052
1761315758597449000,4.545448974609375,-0.42107516527175903,0.10996422171592712,-0.06367374211549759
1761315758607431200,4.55543115234375,-0.39261874556541443,0.17545723915100098,-0.0015404813457280397
1761315758617413000,4.5654130859375,-0.35591238737106323,0.19858013093471527,0.0722663626074791
1761315758627396000,4.57539599609375,-0.3149157166481018,0.19885918498039246,0.1792365163564682
1761315758637378000,4.5853779296875,-0.2567932903766632,0.19221992790699005,0.3222341537475586
1761315758647360000,4.595360107421875,-0.20752543210983276,0.18387919664382935,0.4957194924354553
1761315758657342000,4.605342041015625,-0.18066932260990143,0.16057759523391724,0.6810909509658813
1761315758667325000,4.615324951171875,-0.15491284430027008,0.13543438911437988,0.8328027725219727
1761315758677307100,4.62530712890625,-0.1401304304599762,0.11937551200389862,0.9419345855712891
1761315758687289000,4.6352890625,-0.15837541222572327,0.06505720317363739,0.9697866439819336
1761315758697271000,4.64527099609375,-0.2159082144498825,-0.047201696783304214,0.9021687507629395
1761315758707253000,4.6552529296875,-0.30505654215812683,-0.21032637357711792,0.7569050192832947
1761315758717236000,4.665236083984375,-0.40789076685905457,-0.3960437774658203,0.5813331604003906
1761315758727218200,4.67521826171875,-0.4846615493297577,-0.4843669533729553,0.43686801195144653
1761315758737200000,4.6852001953125,-0.48605942726135254,-0.45160314440727234,0.3541925847530365
1761315758747182000,4.69518212890625,-0.40626341104507446,-0.4171055257320404,0.3117823302745819
1761315758757165000,4.7051650390625,-0.3137582540512085,-0.41205084323883057,0.3023582100868225
1761315758767147000,4.71514697265625,-0.28307563066482544,-0.4482158422470093,0.3019190728664398
1761315758777129200,4.725129150390625,-0.33941638469696045,-0.5656130313873291,0.2272896021604538
1761315758787111200,4.735111083984375,-0.45895764231681824,-0.6740260720252991,0.06560695171356201
1761315758797093000,4.745093017578125,-0.5777722001075745,-0.6661497950553894,-0.1260668784379959
1761315758807076000,4.755076171875,-0.6630728244781494,-0.5000611543655396,-0.2780163288116455
1761315758817058000,4.76505810546875,-0.719965398311615,-0.23410671949386597,-0.36760586500167847
1761315758827040000,4.7750400390625,-0.7198270559310913,0.059036217629909515,-0.40049484372138977
1761315758837022000,4.78502197265625,-0.664929986000061,0.28338783979415894,-0.392251580953598
1761315758847005200,4.795005126953125,-0.5721833109855652,0.41118794679641724,-0.35307344794273376
1761315758856987000,4.80498681640625,-0.45030269026756287,0.47369182109832764,-0.3001641631126404
1761315758866969000,4.814968994140625,-0.3119855225086212,0.5178638696670532,-0.2317718267440796
1761315758876951000,4.824950927734375,-0.17706897854804993,0.5775437355041504,-0.14194287359714508
1761315758886933000,4.83493310546875,-0.040827278047800064,0.6609322428703308,-0.0283636637032032
1761315758896916200,4.844916259765625,0.0987607091665268,0.7259141802787781,0.10790017247200012
1761315758906898000,4.85489794921875,0.2424234002828598,0.7270777821540833,0.25645339488983154
1761315758916880100,4.864880126953125,0.3845834732055664,0.6447738409042358,0.4036702513694763
1761315758926862000,4.874862060546875,0.512083113193512,0.4465566575527191,0.5246074795722961
1761315758936845000,4.884844970703125,0.6129269003868103,0.1635417342185974,0.6140236258506775
1761315758946827300,4.8948271484375,0.6539928317070007,-0.15560470521450043,0.6640675663948059
1761315758956809000,4.90480908203125,0.6339280605316162,-0.47949036955833435,0.672882080078125
1761315758966791200,4.914791259765625,0.5700292587280273,-0.731598436832428,0.6336507797241211
1761315758976773000,4.924773193359375,0.4698091745376587,-0.879610002040863,0.5683037042617798
1761315758986756000,4.934756103515625,0.340078741312027,-0.9280918836593628,0.5019806623458862
1761315758996738000,4.944738037109375,0.17808930575847626,-0.8593767285346985,0.45394280552864075
1761315759006720000,4.954719970703125,0.022394388914108276,-0.6712249517440796,0.41764581203460693
1761315759016702200,4.9647021484375,-0.10992849618196487,-0.417610764503479,0.37068042159080505
1761315759026685000,4.974684814453125,-0.20185814797878265,-0.15748651325702667,0.30668824911117554
1761315759036667100,4.984667236328125,-0.23793438076972961,0.07431954890489578,0.2267356514930725
1761315759046649000,4.994649169921875,-0.22929522395133972,0.2819288671016693,0.14197605848312378
1761315759056631000,5.004631103515625,-0.18662072718143463,0.45099031925201416,0.06858199834823608
1761315759066613000,5.014613037109375,-0.12843933701515198,0.5714014768600464,0.010261820629239082
1761315759076596000,5.024595947265625,-0.07432497292757034,0.64869624376297,-0.026552919298410416
1761315759086578200,5.034578125,-0.04344847798347473,0.6692047715187073,-0.061589647084474564
1761315759096560000,5.04456005859375,-0.029974479228258133,0.6224998235702515,-0.10310539603233337
1761315759106542000,5.0545419921875,-0.03400649502873421,0.5361307263374329,-0.15889360010623932
1761315759116524000,5.06452392578125,-0.06144477799534798,0.4156969487667084,-0.2439749389886856
1761315759126507000,5.074507080078125,-0.09935653209686279,0.26558223366737366,-0.3477308452129364
1761315759136489200,5.0844892578125,-0.15442803502082825,0.1130044162273407,-0.44591015577316284
1761315759146471000,5.094470947265625,-0.22014084458351135,0.0007489500567317009,-0.536504864692688
1761315759156453000,5.104453125,-0.2895694673061371,-0.07956612855195999,-0.6171278357505798
1761315759166435800,5.114435791015625,-0.3455922305583954,-0.135509192943573,-0.6941995024681091
1761315759176418000,5.12441796875,-0.38207781314849854,-0.15019705891609192,-0.7595551013946533
1761315759186400300,5.134400146484375,-0.3838904798030853,-0.12202983349561691,-0.8100842833518982
1761315759196382700,5.1443828125,-0.3598237633705139,-0.08107094466686249,-0.861808717250824
1761315759206365000,5.154364990234375,-0.3202153444290161,-0.0554654560983181,-0.9286912679672241
1761315759216347600,5.16434765625,-0.2633126378059387,-0.02953265607357025,-0.9845036268234253
1761315759226329900,5.174329833984375,-0.1919701248407364,0.011093569919466972,-1.0102221965789795
1761315759236311600,5.1843115234375,-0.11064891517162323,0.059069085866212845,-0.9898889660835266
1761315759246293800,5.194293701171875,-0.030419249087572098,0.12476962059736252,-0.9171169400215149
1761315759256276700,5.20427685546875,0.044021960347890854,0.18880106508731842,-0.8109593391418457
1761315759266258700,5.2142587890625,0.12337440997362137,0.25689488649368286,-0.6778069734573364
1761315759276241000,5.224240966796875,0.20277468860149384,0.34224361181259155,-0.5451179146766663
1761315759286222600,5.23422265625,0.2827655076980591,0.44090622663497925,-0.41622528433799744
1761315759296204800,5.244204833984375,0.38253897428512573,0.5306991934776306,-0.29615318775177
1761315759306187800,5.254187744140625,0.4719078242778778,0.6006291508674622,-0.1824694573879242
1761315759316169700,5.264169677734375,0.5496636033058167,0.64740389585495,-0.08407684415578842
1761315759326152000,5.27415185546875,0.6116612553596497,0.6638563871383667,-0.017537230625748634
1761315759336133600,5.284133544921875,0.6409123539924622,0.6332441568374634,0.008281050249934196
1761315759346116900,5.294116943359375,0.6586548686027527,0.5674642324447632,0.01012653112411499
1761315759356098600,5.3040986328125,0.6466304063796997,0.4878900647163391,0.005209537222981453
1761315759366080800,5.314080810546875,0.6147961020469666,0.4127570688724518,0.014893264509737492
1761315759376063000,5.32406298828125,0.5692960023880005,0.3450355529785156,0.026173613965511322
1761315759386044700,5.334044677734375,0.5224995017051697,0.29615283012390137,0.03770116716623306
1761315759396028000,5.34402783203125,0.4882277846336365,0.2446630299091339,0.04977567121386528
1761315759406009600,5.354009521484375,0.46855276823043823,0.23152710497379303,0.06165635958313942
1761315759415991800,5.36399169921875,0.46609386801719666,0.24274487793445587,0.0665600448846817
1761315759425973800,5.373973876953125,0.4772554337978363,0.27265501022338867,0.08238460123538971
1761315759435956700,5.383956787109375,0.5017314553260803,0.32699573040008545,0.12204306572675705
1761315759445939000,5.39393896484375,0.5453401207923889,0.4342653751373291,0.1895647644996643
1761315759455920600,5.403920654296875,0.6166326403617859,0.6048687696456909,0.29188740253448486
1761315759465902800,5.41390283203125,0.6888992786407471,0.7007682919502258,0.384021520614624
1761315759475884800,5.423884765625,0.7252213358879089,0.665793776512146,0.4249420464038849
1761315759485867800,5.43386767578125,0.7166780233383179,0.542149007320404,0.4064680337905884
1761315759495849700,5.443849609375,0.6699454188346863,0.3785393238067627,0.3420032858848572
1761315759505831700,5.453831787109375,0.6026925444602966,0.20597651600837708,0.24937231838703156
1761315759515814000,5.46381396484375,0.5252667665481567,0.10938873142004013,0.16941943764686584
1761315759525796600,5.473796630859375,0.4673566520214081,0.13222195208072662,0.12780016660690308
1761315759535778800,5.48377880859375,0.45317959785461426,0.23280155658721924,0.13478323817253113
1761315759545760800,5.4937607421875,0.4613725543022156,0.3959748446941376,0.18381281197071075
1761315759555742700,5.50374267578125,0.4855809509754181,0.5617699027061462,0.23255611956119537
1761315759565725000,5.513724853515625,0.5092096328735352,0.6431059241294861,0.23588353395462036
1761315759575707600,5.523707763671875,0.5348095297813416,0.6178311705589294,0.19923816621303558
1761315759585689900,5.53368994140625,0.5626827478408813,0.5613088607788086,0.17457205057144165
1761315759595671600,5.543671630859375,0.5932334661483765,0.5077263116836548,0.19833889603614807
1761315759605653800,5.55365380859375,0.6240113973617554,0.4811437726020813,0.2890632152557373
1761315759615636700,5.56363671875,0.6556239128112793,0.49142035841941833,0.44085726141929626
1761315759625618700,5.57361865234375,0.6778337955474854,0.5472842454910278,0.6171389222145081
1761315759635601000,5.583600830078125,0.7175220847129822,0.6312049627304077,0.7678237557411194
1761315759645582600,5.59358251953125,0.7622913122177124,0.68406742811203,0.8600450158119202
1761315759655564800,5.603564697265625,0.7981119155883789,0.7047863006591797,0.8703626394271851
1761315759665547800,5.6135478515625,0.8284916877746582,0.6802325248718262,0.821097195148468
1761315759675529700,5.62352978515625,0.8412461280822754,0.6207220554351807,0.7366584539413452
1761315759685512000,5.633511962890625,0.8336842060089111,0.5288136601448059,0.634564995765686
1761315759695493600,5.64349365234375,0.8130875825881958,0.42116445302963257,0.5162391662597656
1761315759705476900,5.653476806640625,0.7849926948547363,0.30209189653396606,0.38605597615242004
1761315759715458800,5.663458740234375,0.760505735874176,0.18126000463962555,0.2541986107826233
1761315759725440800,5.673440673828125,0.7303870320320129,0.07534688711166382,0.12770166993141174
1761315759735423000,5.683423095703125,0.6989537477493286,0.012969263829290867,0.027384111657738686
1761315759745404700,5.69340478515625,0.6571270227432251,0.002924442756921053,-0.045509181916713715
1761315759755388000,5.703387939453125,0.6116197109222412,0.03087218664586544,-0.09445062279701233
1761315759765369600,5.71336962890625,0.5606630444526672,0.07345714420080185,-0.1359114944934845
1761315759775351800,5.723351806640625,0.51674485206604,0.13072283565998077,-0.17441333830356598
1761315759785333800,5.733333740234375,0.4850700795650482,0.1767084151506424,-0.21204645931720734
1761315759795316700,5.743316650390625,0.4642723798751831,0.21142245829105377,-0.23459890484809875
1761315759805298700,5.753298583984375,0.4652351140975952,0.23483531177043915,-0.2411145716905594
1761315759815280600,5.76328076171875,0.4905998706817627,0.24658410251140594,-0.22316141426563263
1761315759825262800,5.773262939453125,0.5244438052177429,0.2481885850429535,-0.18707871437072754
1761315759835244500,5.78324462890625,0.5610319375991821,0.25136464834213257,-0.13569435477256775
1761315759845227800,5.793227783203125,0.5861557722091675,0.25935840606689453,-0.08519575744867325
1761315759855209700,5.803209716796875,0.6002795696258545,0.2820943295955658,-0.03891667351126671
1761315759865191700,5.813191650390625,0.5983640551567078,0.2969350814819336,-0.018666530027985573
1761315759875174000,5.823173828125,0.5718336701393127,0.29085907340049744,-0.03988872841000557
1761315759885156900,5.833156982421875,0.5286992192268372,0.28413456678390503,-0.0793963074684143
1761315759895138800,5.843138916015625,0.4852180778980255,0.2864091694355011,-0.12486205995082855
1761315759905120800,5.853120849609375,0.4330739378929138,0.2798607647418976,-0.1611817479133606
1761315759915102700,5.863102783203125,0.37324655055999756,0.2695961594581604,-0.1832500398159027
1761315759925085000,5.8730849609375,0.32505014538764954,0.27373066544532776,-0.1936308741569519
1761315759935067600,5.883067626953125,0.29490527510643005,0.2743903398513794,-0.18778204917907715
1761315759945049900,5.8930498046875,0.2953747808933258,0.24661457538604736,-0.19198688864707947
1761315759955031800,5.90303173828125,0.29439738392829895,0.20448896288871765,-0.20913365483283997
1761315759965013800,5.913013671875,0.29465481638908386,0.15304842591285706,-0.2417689710855484
1761315759974996700,5.922996826171875,0.2764768898487091,0.09026334434747696,-0.28193557262420654
1761315759984978700,5.932978759765625,0.2464842051267624,0.01842406950891018,-0.31077003479003906
1761315759994961000,5.9429609375,0.20937491953372955,-0.06769376993179321,-0.31502363085746765
1761315760004942600,5.952942626953125,0.186011403799057,-0.11637014150619507,-0.29459497332572937
1761315760014924800,5.9629248046875,0.17604851722717285,-0.10147907584905624,-0.27229979634284973
1761315760024907800,5.97290771484375,0.1719760000705719,-0.07875923067331314,-0.2713809311389923
1761315760034889700,5.9828896484375,0.17000418901443481,-0.0942484438419342,-0.25641316175460815
1761315760044871700,5.99287158203125,0.172297865152359,-0.15595225989818573,-0.20287097990512848
1761315760054853600,6.002853515625,0.15510156750679016,-0.19936685264110565,-0.11926504224538803
1761315760064836900,6.0128369140625,0.13228151202201843,-0.2535784840583801,-0.058184877038002014
1761315760074818800,6.02281884765625,0.11734703928232193,-0.3096012473106384,-0.030458977445960045
1761315760084800800,6.03280078125,0.10535354167222977,-0.3226144015789032,-0.02973785251379013
1761315760094782700,6.04278271484375,0.09132907539606094,-0.3049917221069336,-0.04502679407596588
1761315760104764700,6.0527646484375,0.060178887099027634,-0.27073904871940613,-0.07892359793186188
1761315760114747600,6.06274755859375,-0.0005859237280674279,-0.27216145396232605,-0.13595253229141235
1761315760124729900,6.072729736328125,-0.07714465260505676,-0.29546430706977844,-0.21710839867591858
1761315760134711800,6.0827119140625,-0.15755107998847961,-0.3373773992061615,-0.30072206258773804
1761315760144693800,6.09269384765625,-0.23183923959732056,-0.3764759600162506,-0.3610685467720032
1761315760154676700,6.1026767578125,-0.28179508447647095,-0.403571218252182,-0.3711465001106262
1761315760164658700,6.11265869140625,-0.3114735782146454,-0.3867678940296173,-0.3212288022041321
1761315760174640600,6.122640625,-0.3157026767730713,-0.28646180033683777,-0.23283128440380096
1761315760184622800,6.132622802734375,-0.2836577594280243,-0.1227719858288765,-0.11159031838178635
1761315760194604000,6.14260400390625,-0.21920576691627502,0.02986389771103859,-0.0067752208560705185
1761315760204587000,6.1525869140625,-0.13763673603534698,0.09453340619802475,0.029128331691026688
1761315760214569000,6.16256884765625,-0.10472644120454788,0.08248766511678696,-0.0048967450857162476
1761315760224551000,6.172551025390625,-0.12956716120243073,0.01264213863760233,-0.08438192307949066
1761315760234532900,6.182532958984375,-0.18803393840789795,-0.05274645611643791,-0.17470622062683105
1761315760244515800,6.192515869140625,-0.23876969516277313,-0.09177607297897339,-0.25598353147506714
1761315760254498000,6.202498046875,-0.2810780107975006,-0.05243266373872757,-0.30839774012565613
1761315760264480000,6.21247998046875,-0.3290244936943054,0.03999052941799164,-0.31743547320365906
1761315760274462000,6.2224619140625,-0.3608551323413849,0.14934977889060974,-0.3141781687736511
1761315760284444000,6.23244384765625,-0.3488287329673767,0.2319854199886322,-0.3093360662460327
1761315760294427000,6.242427001953125,-0.3174351155757904,0.2707256078720093,-0.3039354383945465
1761315760304408800,6.252408935546875,-0.27491188049316406,0.31018105149269104,-0.2698681056499481
1761315760314390800,6.262390869140625,-0.2409227341413498,0.34032028913497925,-0.21554841101169586
1761315760324373000,6.272373046875,-0.22613683342933655,0.3515300750732422,-0.15092812478542328
1761315760334355700,6.282355712890625,-0.21082045137882233,0.3412465453147888,-0.09159716963768005
1761315760344338000,6.292337890625,-0.19368834793567657,0.2964659631252289,-0.03692776709794998
1761315760354320000,6.30231982421875,-0.1644713431596756,0.21073932945728302,0.02049211598932743
1761315760364301800,6.3123017578125,-0.1267743706703186,0.125412255525589,0.08635792136192322
1761315760374283800,6.32228369140625,-0.08194778114557266,0.07895740866661072,0.15733222663402557
1761315760384266800,6.332266845703125,-0.03363814949989319,0.060390666127204895,0.2356513887643814
1761315760394249000,6.3422490234375,0.019832532852888107,0.08835625648498535,0.33407062292099
1761315760404231000,6.35223095703125,0.08558152616024017,0.14552722871303558,0.44435808062553406
1761315760414212900,6.362212890625,0.15622960031032562,0.1816340982913971,0.5475310683250427
1761315760424196000,6.372196044921875,0.1971145123243332,0.1563895046710968,0.621597945690155
1761315760434177800,6.382177734375,0.196044459939003,0.07947847247123718,0.6707250475883484
1761315760444160000,6.392159912109375,0.15844891965389252,-0.045430392026901245,0.699458122253418
1761315760454142000,6.402141845703125,0.11346494406461716,-0.1710176169872284,0.7115067839622498
1761315760464124000,6.4121240234375,0.06605682522058487,-0.2502976059913635,0.7236976027488708
1761315760474107000,6.42210693359375,0.005006521940231323,-0.285191148519516,0.7047358751296997
1761315760484088800,6.4320888671875,-0.07591152936220169,-0.31943845748901367,0.6364291906356812
1761315760494071000,6.442071044921875,-0.18951505422592163,-0.3300330638885498,0.5243210196495056
1761315760504053000,6.452052978515625,-0.31078192591667175,-0.3051932454109192,0.3762558102607727
1761315760514036000,6.462035888671875,-0.40470948815345764,-0.22770433127880096,0.2193538099527359
1761315760524018000,6.472017822265625,-0.47329846024513245,-0.11506560444831848,0.0791759043931961
1761315760533999900,6.481999755859375,-0.4927624464035034,0.012228170409798622,-0.015386550687253475
1761315760543981800,6.49198193359375,-0.4909069538116455,0.11283226311206818,-0.06631775945425034
1761315760553963800,6.5019638671875,-0.46752145886421204,0.18218842148780823,-0.06923632323741913
1761315760563947000,6.511947021484375,-0.4168195426464081,0.22239328920841217,-0.030254803597927094
1761315760573929000,6.521928955078125,-0.3631230294704437,0.23168213665485382,0.01382051408290863
1761315760583911000,6.531910888671875,-0.3333665728569031,0.2057940512895584,0.037021588534116745
1761315760593892900,6.541892822265625,-0.33122140169143677,0.14472456276416779,0.04584171250462532
1761315760603874800,6.551874755859375,-0.3447132110595703,0.06686986982822418,0.04459035024046898
1761315760613858000,6.561858154296875,-0.35713526606559753,-0.017938490957021713,0.029106732457876205
1761315760623839700,6.57183984375,-0.3682639002799988,-0.07322142273187637,0.0017545897280797362
1761315760633822000,6.581822021484375,-0.38354405760765076,-0.07882711291313171,-0.03705006465315819
1761315760643804000,6.591803955078125,-0.3884945809841156,-0.055170636624097824,-0.08232800662517548
1761315760653787000,6.601786865234375,-0.38793691992759705,-0.022867824882268906,-0.1280701905488968
1761315760663769000,6.61176904296875,-0.38886380195617676,-0.013861212879419327,-0.15382298827171326
1761315760673750800,6.621750732421875,-0.3915194869041443,-0.03574254363775253,-0.16425032913684845
1761315760683733000,6.63173291015625,-0.4080652594566345,-0.0681828111410141,-0.15473736822605133
1761315760693715000,6.64171484375,-0.42433369159698486,-0.0896979570388794,-0.14730848371982574
1761315760703698000,6.651697998046875,-0.4421217143535614,-0.07418462634086609,-0.14895132184028625
1761315760713680000,6.661679931640625,-0.4548356533050537,-0.04366746172308922,-0.151750847697258
1761315760723661800,6.671661865234375,-0.46340322494506836,-0.003898961702361703,-0.1661098301410675
1761315760733644000,6.68164404296875,-0.46853169798851013,0.034583982080221176,-0.1905461996793747
1761315760743626800,6.691626708984375,-0.47172850370407104,0.06625471264123917,-0.21345305442810059
1761315760753609000,6.70160888671875,-0.4748587906360626,0.10151603072881699,-0.24095284938812256
1761315760763591000,6.7115908203125,-0.4849982261657715,0.14435583353042603,-0.26463526487350464
1761315760773572900,6.72157275390625,-0.49028778076171875,0.2288840413093567,-0.27126920223236084
1761315760783554800,6.731554931640625,-0.48829469084739685,0.30094099044799805,-0.26224642992019653
1761315760793537800,6.741537841796875,-0.4769757390022278,0.35236796736717224,-0.22391368448734283
1761315760803520000,6.75152001953125,-0.4533716142177582,0.38965168595314026,-0.15506963431835175
1761315760813502000,6.761501953125,-0.4197230935096741,0.41574400663375854,-0.0784749984741211
1761315760823484000,6.77148388671875,-0.3761729598045349,0.43518033623695374,-0.002785062650218606
1761315760833467000,6.781466796875,-0.33602821826934814,0.43280959129333496,0.06734715402126312
1761315760843448800,6.79144873046875,-0.314452201128006,0.4049922525882721,0.10634825378656387
1761315760853431000,6.80143115234375,-0.314982146024704,0.33739006519317627,0.1234406903386116
1761315760863412700,6.811412841796875,-0.3339851498603821,0.24474479258060455,0.11324477940797806
1761315760873395000,6.82139501953125,-0.3621656596660614,0.17730022966861725,0.10401000082492828
1761315760883377700,6.831377685546875,-0.3836089074611664,0.13813622295856476,0.09938734024763107
1761315760893359900,6.84135986328125,-0.4099350571632385,0.09864526987075806,0.09682085365056992
1761315760903342000,6.851342041015625,-0.44878318905830383,0.08883962780237198,0.08440674096345901
1761315760913323800,6.86132373046875,-0.483772873878479,0.10451686382293701,0.07698424160480499
1761315760923307000,6.87130712890625,-0.510962963104248,0.11302141845226288,0.06619376689195633
1761315760933288700,6.881288818359375,-0.5322210788726807,0.13141293823719025,0.07107267528772354
1761315760943271000,6.89127099609375,-0.5436705946922302,0.16855551302433014,0.09957610815763474
1761315760953252900,6.9012529296875,-0.5441797971725464,0.2094736546278,0.15140201151371002
1761315760963234800,6.91123486328125,-0.5311636328697205,0.28211888670921326,0.21865251660346985
1761315760973218000,6.921218017578125,-0.49990347027778625,0.4010612666606903,0.28571251034736633
1761315760983199700,6.93119970703125,-0.46143096685409546,0.43127137422561646,0.3141574561595917
1761315760993182000,6.941181884765625,-0.44486796855926514,0.34159499406814575,0.2816368043422699
1761315761003164000,6.951163818359375,-0.4666944146156311,0.19239890575408936,0.19784121215343475
1761315761013147000,6.96114697265625,-0.5242884755134583,0.04281075671315193,0.0866081714630127
1761315761023129000,6.971129150390625,-0.60097336769104,-0.04009376838803291,-0.016226306557655334
1761315761033110800,6.98111083984375,-0.6778391599655151,-0.052840456366539,-0.09526040405035019
1761315761043093000,6.991093017578125,-0.7655616998672485,-0.05645683407783508,-0.15767209231853485
1761315761053075000,7.001074951171875,-0.8589653968811035,-0.020369401201605797,-0.17912544310092926
1761315761063058000,7.011057861328125,-0.9368221759796143,0.06152547150850296,-0.15383818745613098
1761315761073040100,7.0210400390625,-1.0081664323806763,0.17737829685211182,-0.10709839314222336
1761315761083021800,7.031021728515625,-1.0473922491073608,0.29366087913513184,-0.05546031892299652
1761315761093004000,7.041004150390625,-1.068240761756897,0.38188767433166504,-0.005278109107166529
1761315761102986800,7.05098681640625,-1.0732285976409912,0.4211956858634949,0.038277626037597656
1761315761112969000,7.060968994140625,-1.0643080472946167,0.37907591462135315,0.0679798573255539
1761315761122951000,7.070950927734375,-1.04649817943573,0.23205244541168213,0.08204717934131622
1761315761132932900,7.080932861328125,-1.0333377122879028,0.04922084882855415,0.10513678193092346
1761315761142914800,7.090914794921875,-1.0355945825576782,-0.10023178905248642,0.15794315934181213
1761315761152897800,7.100897705078125,-1.0522377490997314,-0.17468658089637756,0.23056170344352722
1761315761162880000,7.1108798828125,-1.0650172233581543,-0.1753333956003189,0.3138403296470642
1761315761172861700,7.12086181640625,-1.0621165037155151,-0.17173920571804047,0.38601118326187134
1761315761182844000,7.130843994140625,-1.0309603214263916,-0.18322038650512695,0.43889984488487244
1761315761192827000,7.140826904296875,-0.9940689206123352,-0.21005092561244965,0.4659983217716217
1761315761202809000,7.15080908203125,-0.9934816360473633,-0.26734116673469543,0.4693363606929779
1761315761212791000,7.160791015625,-1.0141799449920654,-0.36617162823677063,0.43864500522613525
1761315761222773000,7.17077294921875,-1.048600435256958,-0.4902031421661377,0.3977471590042114
1761315761232755000,7.1807548828125,-1.0714540481567383,-0.6101769208908081,0.35158365964889526
1761315761242738000,7.190738037109375,-1.0843952894210815,-0.7120922803878784,0.31108358502388
1761315761252720000,7.20072021484375,-1.0994820594787598,-0.7728765606880188,0.26665619015693665
1761315761262702000,7.2107021484375,-1.1153528690338135,-0.8087836503982544,0.20541971921920776
1761315761272684000,7.22068408203125,-1.131955862045288,-0.8128132820129395,0.12138818949460983
1761315761282667000,7.2306669921875,-1.1286544799804688,-0.8062639832496643,0.02251993678510189
1761315761292649000,7.24064892578125,-1.1057111024856567,-0.7831767201423645,-0.07380393892526627
1761315761302631000,7.250630859375,-1.0697095394134521,-0.7536540627479553,-0.16309653222560883
1761315761312613000,7.260613037109375,-1.0306543111801147,-0.716703474521637,-0.23850128054618835
1761315761322595000,7.270594970703125,-0.9912040829658508,-0.684562087059021,-0.29277485609054565
1761315761332578000,7.280578125,-0.9489562511444092,-0.6529762148857117,-0.33635270595550537
1761315761342560000,7.29056005859375,-0.9215152859687805,-0.6202609539031982,-0.3610203266143799
1761315761352542000,7.3005419921875,-0.9100692868232727,-0.6463607549667358,-0.4038727283477783
1761315761362524200,7.310524169921875,-0.9151760339736938,-0.7101372480392456,-0.4461216628551483
1761315761372505900,7.320505859375,-0.946173369884491,-0.77690589427948,-0.4854520261287689
1761315761382489000,7.330489013671875,-0.996390700340271,-0.8664079308509827,-0.5268381834030151
1761315761392471000,7.340470947265625,-1.089107632637024,-0.992043137550354,-0.5749540328979492
1761315761402453000,7.350452880859375,-1.2227152585983276,-1.098746657371521,-0.6376986503601074
1761315761412435000,7.36043505859375,-1.3655551671981812,-1.150900959968567,-0.6856619119644165
1761315761422418200,7.370418212890625,-1.4753659963607788,-1.1635196208953857,-0.7194018363952637
1761315761432400000,7.38039990234375,-1.5413180589675903,-1.1292396783828735,-0.719677746295929
1761315761442382000,7.390382080078125,-1.5665136575698853,-1.065435767173767,-0.6895220279693604
1761315761452364000,7.400364013671875,-1.5666457414627075,-0.9805305004119873,-0.6205504536628723
1761315761462346000,7.410345947265625,-1.5504437685012817,-0.8997328877449036,-0.5085877776145935
1761315761472329000,7.420328857421875,-1.5379512310028076,-0.8437244892120361,-0.3675867021083832
1761315761482311000,7.430310791015625,-1.5303086042404175,-0.8285771608352661,-0.20019294321537018
1761315761492293000,7.440293212890625,-1.526670217514038,-0.8422796726226807,-0.04177507758140564
1761315761502275000,7.450275146484375,-1.5192208290100098,-0.883651852607727,0.08993981778621674
1761315761512258000,7.460258056640625,-1.509437084197998,-0.9487581849098206,0.19437913596630096
1761315761522240000,7.470239990234375,-1.4970731735229492,-0.9998248219490051,0.253837525844574
1761315761532222000,7.480221923828125,-1.4713376760482788,-1.0378773212432861,0.280290424823761
1761315761542204000,7.490203857421875,-1.4333949089050293,-1.0291939973831177,0.2793177664279938
1761315761552186000,7.50018603515625,-1.3748000860214233,-0.9947894215583801,0.2704233229160309
1761315761562169000,7.510169189453125,-1.3026458024978638,-0.9185722470283508,0.2599114775657654
1761315761572151000,7.520151123046875,-1.227981448173523,-0.8280702829360962,0.25127458572387695
1761315761582133000,7.530133056640625,-1.1787300109863281,-0.7380650043487549,0.23040363192558289
1761315761592115000,7.540114990234375,-1.1610256433486938,-0.6769507527351379,0.1802981197834015
1761315761602098000,7.550097900390625,-1.1672288179397583,-0.647343099117279,0.11065275222063065
1761315761612080000,7.560080078125,-1.1833356618881226,-0.6317529678344727,0.03229030594229698
1761315761622062000,7.57006201171875,-1.1987557411193848,-0.6208171248435974,-0.04261381924152374
1761315761632044000,7.5800439453125,-1.202634572982788,-0.631542980670929,-0.10854916274547577
1761315761642026000,7.59002587890625,-1.214092493057251,-0.6741253137588501,-0.16370683908462524
1761315761652009000,7.600009033203125,-1.219993233680725,-0.6937376260757446,-0.21018965542316437
1761315761661991200,7.6099912109375,-1.2127166986465454,-0.6757374405860901,-0.23196850717067719
1761315761671972900,7.619972900390625,-1.1972448825836182,-0.6338760256767273,-0.24454395473003387
1761315761681955000,7.629955078125,-1.1793338060379028,-0.5847861170768738,-0.24954837560653687
1761315761691938000,7.63993798828125,-1.1615521907806396,-0.5343285202980042,-0.23090200126171112
1761315761701920000,7.649919921875,-1.1264609098434448,-0.46106088161468506,-0.1876717358827591
1761315761711902000,7.65990185546875,-1.0601575374603271,-0.36066555976867676,-0.11998270452022552
1761315761721884000,7.6698837890625,-0.9607431292533875,-0.2507786154747009,-0.03732691705226898
1761315761731866000,7.6798662109375,-0.8497822880744934,-0.14908632636070251,0.057305846363306046
1761315761741848800,7.689848876953125,-0.753742516040802,-0.0793982744216919,0.130032479763031
1761315761751831000,7.6998310546875,-0.6840358972549438,-0.078475221991539,0.20595601201057434
1761315761761813000,7.70981298828125,-0.6430845260620117,-0.1045074611902237,0.2927730083465576
1761315761771795000,7.719794921875,-0.6209232807159424,-0.10893470048904419,0.3742747902870178
1761315761781778200,7.729778076171875,-0.5992773771286011,-0.08720490336418152,0.44896259903907776
1761315761791760000,7.739759765625,-0.5602663159370422,-0.020585663616657257,0.5078147649765015
1761315761801742000,7.7497421875,-0.4976261854171753,0.06837309151887894,0.5487261414527893
1761315761811724000,7.75972412109375,-0.41296058893203735,0.09640658646821976,0.5516894459724426
1761315761821706000,7.7697060546875,-0.3304992616176605,0.07566312700510025,0.5123382210731506
1761315761831689200,7.779689208984375,-0.28731343150138855,0.043283089995384216,0.4371776878833771
1761315761841671000,7.7896708984375,-0.29350146651268005,-0.023350823670625687,0.3337007164955139
1761315761851653000,7.799653076171875,-0.34751278162002563,-0.171804741024971,0.20903681218624115
1761315761861635000,7.809635009765625,-0.4481997489929199,-0.328996479511261,0.08071491867303848
1761315761871617000,7.819616943359375,-0.5564370155334473,-0.4270298182964325,-0.036488935351371765
1761315761881600000,7.82960009765625,-0.6219242215156555,-0.43375062942504883,-0.11086726933717728
1761315761891582000,7.83958203125,-0.6046890020370483,-0.3415061831474304,-0.12545925378799438
1761315761901564200,7.849564208984375,-0.5166222453117371,-0.2115025371313095,-0.0773606151342392
1761315761911546000,7.859546142578125,-0.3952771723270416,-0.11370381712913513,-0.005533299874514341
1761315761921529000,7.869529052734375,-0.28854048252105713,-0.06964270025491714,0.058471810072660446
1761315761931511000,7.879510986328125,-0.23115548491477966,-0.05045994743704796,0.09634382277727127
1761315761941493000,7.889492919921875,-0.22967487573623657,-0.043019846081733704,0.09468533098697662
1761315761951475000,7.899474853515625,-0.24810369312763214,-0.012144757434725761,0.07686106115579605
1761315761961457000,7.909456787109375,-0.2724457085132599,0.051748137921094894,0.06348444521427155
1761315761971440000,7.919440185546875,-0.2941310405731201,0.13882045447826385,0.05702414736151695
1761315761981421800,7.929421875,-0.2941107153892517,0.16053995490074158,0.058163657784461975
1761315761991404000,7.939404052734375,-0.2556152641773224,0.14142192900180817,0.09367291629314423
1761315762001386000,7.949385986328125,-0.18774265050888062,0.059971198439598083,0.16962724924087524
1761315762011369000,7.959368896484375,-0.11848501861095428,-0.09889514744281769,0.27833136916160583
1761315762021351200,7.96935107421875,-0.062151774764060974,-0.3066081702709198,0.41301900148391724
1761315762031332900,7.979332763671875,-0.04088776558637619,-0.5292007923126221,0.5675135254859924
1761315762041315000,7.989315185546875,-0.07427220791578293,-0.6939908862113953,0.7174502015113831
1761315762051297000,7.999297119140625,-0.1658996045589447,-0.7844206690788269,0.8409481644630432
1761315762061280000,8.009280029296875,-0.2945345342159271,-0.8232730031013489,0.916435718536377
1761315762071262200,8.01926220703125,-0.4414243996143341,-0.8018497228622437,0.94010990858078
1761315762081244000,8.029243896484376,-0.5699397921562195,-0.7425628900527954,0.9002473950386047
1761315762091226000,8.03922607421875,-0.6687436103820801,-0.7122361660003662,0.8084871172904968
1761315762101208800,8.049208740234375,-0.7244327068328857,-0.725034236907959,0.6735706329345703
1761315762111191000,8.05919091796875,-0.7488282918930054,-0.7545351386070251,0.5291508436203003
1761315762121173000,8.069173095703125,-0.7624719738960266,-0.7608129978179932,0.38614094257354736
1761315762131155000,8.079155029296874,-0.7736583352088928,-0.7318447232246399,0.2564263641834259
1761315762141137200,8.08913720703125,-0.7907520532608032,-0.6693871021270752,0.1494617909193039
1761315762151120000,8.099119873046876,-0.8102525472640991,-0.5813179612159729,0.06951422244310379
1761315762161102000,8.10910205078125,-0.838996946811676,-0.4755806624889374,0.009521875530481339
1761315762171084000,8.119083984375,-0.8870773911476135,-0.3694811165332794,-0.041406549513339996
1761315762181066000,8.12906591796875,-0.949651837348938,-0.2798621356487274,-0.09151747822761536
1761315762191049200,8.13904931640625,-1.0324008464813232,-0.22102704644203186,-0.14481772482395172
1761315762201031700,8.14903173828125,-1.1105866432189941,-0.19618798792362213,-0.19607199728488922
1761315762211014000,8.159013916015626,-1.1563773155212402,-0.1963709443807602,-0.24182963371276855
1761315762220995600,8.16899560546875,-1.1566981077194214,-0.21344488859176636,-0.27589482069015503
1761315762230977800,8.178977783203125,-1.1209126710891724,-0.2350146323442459,-0.29764753580093384
1761315762240960500,8.18896044921875,-1.0700689554214478,-0.2591780424118042,-0.3126682937145233
1761315762250942700,8.198942626953125,-1.0253994464874268,-0.28513744473457336,-0.3246709108352661
1761315762260924700,8.208924560546874,-0.9961198568344116,-0.2924542725086212,-0.3407054841518402
1761315762270906600,8.21890673828125,-0.9814684987068176,-0.2625379264354706,-0.36482492089271545
1761315762280889900,8.228889892578126,-0.9898278713226318,-0.21075037121772766,-0.4072522819042206
1761315762290871600,8.23887158203125,-1.011026382446289,-0.1557486355304718,-0.45923319458961487
1761315762300853800,8.248853759765625,-1.0171869993209839,-0.09745397418737411,-0.5127600431442261
1761315762310835700,8.258835693359375,-1.0055782794952393,-0.0333775170147419,-0.5628642439842224
1761315762320817700,8.268817626953124,-0.9755257964134216,0.024060890078544617,-0.6101387143135071
1761315762330801000,8.27880078125,-0.9348385334014893,0.06076137721538544,-0.6461638808250427
1761315762340782600,8.288782470703126,-0.8692104816436768,0.10489464551210403,-0.6696795225143433
1761315762350764800,8.298764892578125,-0.788204550743103,0.15141233801841736,-0.6691215634346008
1761315762360746500,8.30874658203125,-0.701017439365387,0.20229597389698029,-0.640799880027771
1761315762370728700,8.318728759765625,-0.6216376423835754,0.24957427382469177,-0.598056972026825
1761315762380711700,8.328711669921875,-0.5519264340400696,0.2961141765117645,-0.5306983590126038
1761315762390693600,8.338693603515624,-0.4908105432987213,0.3412456810474396,-0.44989562034606934
1761315762400675800,8.34867578125,-0.447683721780777,0.37204495072364807,-0.3589409589767456
1761315762410657500,8.358657470703125,-0.41410791873931885,0.364762544631958,-0.2661271393299103
1761315762420640800,8.368640869140625,-0.38957685232162476,0.32949385046958923,-0.17916527390480042
1761315762430622500,8.37862255859375,-0.3731749653816223,0.26422110199928284,-0.10299354046583176
1761315762440604700,8.388604736328125,-0.35979706048965454,0.21392525732517242,-0.026033693924546242
1761315762450587000,8.3985869140625,-0.3449861407279968,0.1884649097919464,0.05075935646891594
1761315762460568600,8.408568603515626,-0.3193630278110504,0.21198657155036926,0.13237041234970093
1761315762470551800,8.4185517578125,-0.28186145424842834,0.26957130432128906,0.1973600685596466
1761315762480533500,8.428533447265625,-0.24791137874126434,0.34270989894866943,0.22759896516799927
1761315762490515700,8.438515625,-0.21854043006896973,0.40858638286590576,0.19518136978149414
1761315762500497700,8.44849755859375,-0.21418356895446777,0.4423229396343231,0.09365945309400558
1761315762510480600,8.458480712890625,-0.2272660732269287,0.464333176612854,-0.06035701185464859
1761315762520462800,8.468462890625,-0.2583807110786438,0.5208764672279358,-0.2258363515138626
1761315762530444500,8.478444580078126,-0.2803416848182678,0.6742053031921387,-0.37090378999710083
1761315762540426800,8.4884267578125,-0.27762895822525024,0.8019699454307556,-0.4857717454433441
1761315762550408700,8.49840869140625,-0.25771573185920715,0.8240214586257935,-0.5580832362174988
1761315762560391700,8.5083916015625,-0.24958615005016327,0.7614290118217468,-0.5807793140411377
1761315762570374000,8.518373779296875,-0.264426052570343,0.6025989055633545,-0.5588116645812988
1761315762580355600,8.52835546875,-0.30815091729164124,0.334857314825058,-0.508381187915802
1761315762590337800,8.538337890625,-0.37957635521888733,-0.002782766707241535,-0.4252210557460785
1761315762600319700,8.54831982421875,-0.4599943459033966,-0.26366114616394043,-0.3108728229999542
1761315762610302700,8.558302734375,-0.5131372213363647,-0.36652520298957825,-0.17152424156665802
1761315762620284700,8.56828466796875,-0.49971550703048706,-0.3506881296634674,0.0034025227651000023
1761315762630266600,8.5782666015625,-0.4229472279548645,-0.22310538589954376,0.19793446362018585
1761315762640248800,8.588248779296874,-0.3183688819408417,-0.012622300535440445,0.3816569447517395
1761315762650231600,8.5982314453125,-0.20673370361328125,0.16563265025615692,0.5185950994491577
1761315762660213800,8.6082138671875,-0.12840083241462708,0.2636156976222992,0.5823904275894165
1761315762670195500,8.618195556640625,-0.11104687303304672,0.27718475461006165,0.5752009749412537
1761315762680177700,8.628177734375,-0.14512896537780762,0.20753847062587738,0.4951610565185547
1761315762690159900,8.638159912109375,-0.20299997925758362,0.09737600386142731,0.36269062757492065
1761315762700142600,8.648142578125,-0.23406487703323364,0.024422314018011093,0.24273045361042023
1761315762710124800,8.658124755859374,-0.22368040680885315,0.05380230396986008,0.17560307681560516
1761315762720106500,8.6681064453125,-0.15828390419483185,0.1805625706911087,0.17819930613040924
1761315762730088700,8.678088623046875,-0.05459026247262955,0.37188220024108887,0.26570597290992737
1761315762740071700,8.68807177734375,-0.009618785232305527,0.644137442111969,0.6800469160079956
1761315762750053600,8.6980537109375,0.07922959327697754,0.4575636088848114,0.8167755007743835
1761315762760035800,8.708035888671875,0.1948556900024414,0.34571531414985657,0.8488796949386597
1761315762770017500,8.718017578125,0.262166291475296,0.18338844180107117,0.7717910408973694
1761315762779999700,8.727999755859376,0.2507918179035187,-0.06720384955406189,0.6403950452804565
1761315762789982700,8.737982666015625,0.21053387224674225,-0.29309210181236267,0.4856984317302704
1761315762799964700,8.747964599609375,0.2095988690853119,-0.404030978679657,0.2956753969192505
1761315762809947000,8.75794677734375,0.217361181974411,-0.3937639594078064,0.09465813636779785
1761315762819928600,8.767928466796874,0.2033698707818985,-0.3283481299877167,-0.08354199677705765
1761315762829911800,8.777911865234374,0.18733257055282593,-0.2587682604789734,-0.19146233797073364
1761315762839893500,8.7878935546875,0.189143568277359,-0.23435372114181519,-0.26049837470054626
1761315762849875700,8.797875732421875,0.18867884576320648,-0.2515803873538971,-0.30896446108818054
