time,seconds_elapsed,z,y,x
1761315707471947800,0.07394775390625,-0.5724111806541681,0.015648527769744396,-0.2540966704154387
1761315707481929700,0.0839296875,-0.5808908397078514,-0.008971826484799385,-0.22994645442329345
1761315707491912700,0.09391259765625,-0.6100877080976963,-0.054019759479165076,-0.25281749905878675
1761315707501894700,0.103894775390625,-0.5726707083731889,-0.04484627294242382,-0.27941251438716425
1761315707511876600,0.113876708984375,-0.5290922634094953,-0.010065613070875406,-0.2448331309750676
1761315707521859600,0.123859619140625,-0.474528314051032,-0.009605740474164485,-0.17900365470405666
1761315707531841800,0.133841796875,-0.3993272348552942,-0.011674071180820464,-0.11983042145185172
1761315707541823700,0.14382373046875,-0.3250841870367527,-0.015420856493711471,-0.09824216490220278
1761315707551806700,0.153806640625,-0.20967852322459218,-0.008569821555167436,-0.08029358002915978
1761315707561788700,0.16378857421875,-0.10694704754650593,-0.01610796197503805,-0.07162055382784456
1761315707571770600,0.1737705078125,-0.1130699143409729,-0.06413461851924658,-0.07758404707582667
1761315707581753900,0.18375390625,-0.1699199288100004,-0.10293605833947658,-0.08099528029141947
1761315707591735600,0.193735595703125,-0.1912830348342657,-0.08758709803819656,-0.07252080886950715
1761315707601717800,0.2037177734375,-0.19416355870664118,-0.047279199177771805,-0.0573636630795896
1761315707611700700,0.21370068359375,-0.22141104659438132,-0.07121697799563408,-0.05768978976141661
1761315707621682700,0.2236826171875,-0.26465280694961546,-0.1410173671916127,-0.056409047502186144
1761315707631664600,0.23366455078125,-0.25283143625259397,-0.15898966173380613,-0.09111887062722816
1761315707641647600,0.243647705078125,-0.17697569254040718,-0.12255027486979961,-0.11255138862589374
1761315707651629600,0.253629638671875,-0.11083762524425983,-0.1121983922034502,-0.14400975394062698
1761315707661611500,0.263611572265625,-0.006001870763301849,-0.1423560684494674,-0.13025283033745363
1761315707671594500,0.273594482421875,0.13379296889603137,-0.17982260640412567,-0.1131064104264602
1761315707681576700,0.28357666015625,0.2982470335155725,-0.19228563600555063,-0.11227377726091071
1761315707691559700,0.2935595703125,0.45367023493945596,-0.2549284085318446,-0.1472790396685712
1761315707701541600,0.303541748046875,0.580380552098155,-0.33278014836683867,-0.2018443407339044
1761315707711523800,0.31352392578125,0.636373657476902,-0.41454336255714297,-0.21415835378607734
1761315707721506600,0.323506591796875,0.613103841048479,-0.47914194532632826,-0.24418624790627508
1761315707731488800,0.33348876953125,0.5103957462459803,-0.5201644221968948,-0.29057980508962644
1761315707741470500,0.343470458984375,0.411938879147172,-0.5445321168646217,-0.3063643803291954
1761315707751453700,0.35345361328125,0.3719733639836311,-0.5498360684916377,-0.3096205143146217
1761315707761435600,0.363435546875,0.3710182552158832,-0.5140832025870681,-0.28481996292127293
1761315707771417600,0.37341748046875,0.35729718837738034,-0.4961924488484859,-0.23563458306230603
1761315707781400600,0.383400634765625,0.3443973747938871,-0.47305824149847026,-0.23355363033609464
1761315707791382800,0.3933828125,0.31800095077753066,-0.44038186042979355,-0.24632694972939786
1761315707801364700,0.40336474609375,0.3143652246236801,-0.4154484947033226,-0.2393285056767985
1761315707811347700,0.41334765625,0.31593525041937826,-0.4027446420833468,-0.2198289467683993
1761315707821329700,0.42332958984375,0.3351683586776256,-0.4023819462507963,-0.1909556660434231
1761315707831311600,0.4333115234375,0.3159410956382751,-0.4289502197027206,-0.1574510174570605
1761315707841294800,0.443294921875,0.24628537560999392,-0.480244645871222,-0.13906199534013866
1761315707851276500,0.453276611328125,0.13688275160491467,-0.5091859320648014,-0.10995532598439603
1761315707861258800,0.4632587890625,0.028943185889720915,-0.5265973778538405,-0.08276228996394201
1761315707871241500,0.473241455078125,-0.056819619330763814,-0.5344705954469741,-0.07869827366173267
1761315707881223700,0.4832236328125,-0.10594342346191406,-0.5208449518069624,-0.08579594030510633
1761315707891206000,0.493205810546875,-0.10881108785271644,-0.5421728403873741,-0.06956201386284083
1761315707901188600,0.503188720703125,-0.10614917516708373,-0.6157452954679727,-0.04747063009664416
1761315707911170800,0.5131708984375,-0.12762334035038947,-0.7183230418890714,-0.08426631958503275
1761315707921152500,0.523152587890625,-0.16619418628513813,-0.8026451467819511,-0.173819749260135
1761315707931135700,0.5331357421875,-0.1733142474234104,-0.8649507963083684,-0.2918281063839793
1761315707941117700,0.54311767578125,-0.17575696440041064,-0.9062203798078,-0.3652013856306672
1761315707951099600,0.553099609375,-0.20345044248998165,-0.9549981469802558,-0.4190229191239923
1761315707961082600,0.56308251953125,-0.23060265330970287,-1.0006113126419485,-0.44776221647206693
1761315707971064600,0.573064697265625,-0.2132815161526203,-1.0128151067852973,-0.4458680367559194
1761315707981046800,0.583046875,-0.14823416670262812,-0.9988761594124138,-0.41684338312782343
1761315707991029800,0.59302978515625,-0.045641222712397574,-1.0019516213349997,-0.36379703525807705
1761315708001011700,0.60301171875,0.09964753818809985,-1.0065478630840778,-0.2742171194348484
1761315708010993700,0.61299365234375,0.2755740139365196,-1.008665147498995,-0.21542612696588037
1761315708020977000,0.622976806640625,0.44450843884050845,-1.030694316216558,-0.14478946960885078
1761315708030958600,0.63295849609375,0.5965449204355477,-1.0811210196398198,-0.08653141497280448
1761315708040940800,0.64294091796875,0.7424772399365902,-1.1332558421552181,-0.058439512150175864
1761315708050923500,0.652923583984375,0.8308633793979883,-1.1994541152060032,-0.022899448746070264
1761315708060905700,0.66290576171875,0.9458306517928838,-1.2462265339054166,0.009961860435456037
1761315708070887700,0.6728876953125,1.0347206491231917,-1.293574852796644,0.030194135798886416
1761315708080870700,0.68287060546875,1.0695774429708718,-1.3676494121804832,0.03956150093991309
1761315708090852900,0.692852783203125,1.0663269167423248,-1.427509129859507,0.06357281991802155
1761315708100834600,0.70283447265625,1.0892705699563026,-1.4565579680807887,0.09977043391540646
1761315708110817800,0.71281787109375,1.1261989093810318,-1.4615440859302877,0.13685016450956464
1761315708120799700,0.7227998046875,1.1383072803258896,-1.483623231269419,0.19853497872389853
1761315708130781700,0.73278173828125,1.0577782841056584,-1.5177927735053003,0.30086518012471497
1761315708140764700,0.7427646484375,0.9408850120842456,-1.525214594069123,0.36218291459232566
1761315708150747000,0.752746826171875,0.8088444398134946,-1.5135231333620844,0.39866665205471213
1761315708160728600,0.762728515625,0.6547036794155836,-1.4834621954888105,0.4513021906338632
1761315708170711800,0.7727119140625,0.5109077874213457,-1.4445079031944275,0.5299112516421824
1761315708180693800,0.78269384765625,0.37235856390893457,-1.4000804401859641,0.6002882716823369
1761315708190675700,0.79267578125,0.2603793674141168,-1.3401223766990005,0.6468735703118145
1761315708200658700,0.80265869140625,0.15372224272489546,-1.2711390029743312,0.6842376708053052
1761315708210640600,0.812640625,0.014946224719285963,-1.2249740486487746,0.7303743488844484
1761315708220623600,0.82262353515625,-0.132715695053339,-1.1969621522597969,0.768334880901128
1761315708230605800,0.832605712890625,-0.24450375289022921,-1.172091914897412,0.7854848992750049
1761315708240587800,0.842587890625,-0.30220541575253007,-1.1501358114160596,0.8072155234374105
1761315708250570800,0.85257080078125,-0.31467326765954495,-1.129138908355683,0.8342913810852914
1761315708260552700,0.862552734375,-0.2673684956490993,-1.1028155495755374,0.858677707388252
1761315708270534700,0.87253466796875,-0.16636194406747817,-1.106503590438515,0.8648431712154299
1761315708280518000,0.882517822265625,-0.023686580535769462,-1.145876254275441,0.8672431450292467
1761315708290499600,0.89249951171875,0.10833177990317344,-1.203836860334873,0.8715057709097862
1761315708300481800,0.902481689453125,0.24849369930922985,-1.250894671846926,0.8534498166721314
1761315708310464800,0.91246484375,0.40342999399900437,-1.2992299559488891,0.8323509876072406
1761315708320446700,0.92244677734375,0.5315893409222364,-1.3337848442405462,0.8339894755292684
1761315708330429000,0.932428955078125,0.6410942562580109,-1.381329854747653,0.8802848513014614
1761315708340411600,0.94241162109375,0.7591010424792766,-1.4156129403606057,0.9468442127496004
1761315708350393900,0.952393798828125,0.8517138597249985,-1.4543202721565962,0.9856145267792046
1761315708360375600,0.96237548828125,0.9056775051027536,-1.4794465301066637,1.000101025032252
1761315708370358800,0.97235888671875,0.8926093492150307,-1.4952724602699279,0.9828194161679595
1761315708380340700,0.9823408203125,0.7682207530021667,-1.526460794737935,0.9089677788197994
1761315708390322700,0.99232275390625,0.5545563750118017,-1.5802837164707482,0.8411290450856089
1761315708400305700,1.0023056640625,0.27554069618880744,-1.6014118446953594,0.8033246534787118
1761315708410287900,1.012287841796875,-0.06886953808665275,-1.5804519126445054,0.7856694620616733
1761315708420269800,1.022269775390625,-0.4480056333065033,-1.5798489783152938,0.7580744759105146
1761315708430252800,1.032252685546875,-0.8903636161148547,-1.6719301729023455,0.7976930042672902
1761315708440234800,1.04223486328125,-1.2775760502845048,-1.837961569841206,0.9347147990167141
1761315708450216700,1.052216796875,-1.6127379792213439,-1.9333739546775817,1.0130499384544789
1761315708460200000,1.062199951171875,-1.8479174389272928,-1.9284237849242984,0.9801806651622056
1761315708470181600,1.072181640625,-1.9873253250956535,-1.949864632359892,0.8146376362621783
1761315708480163800,1.082163818359375,-2.110774594631791,-2.055987065650523,0.6161234080653637
1761315708490146800,1.092146728515625,-2.297030741214752,-2.125636648198962,0.3795808433126658
1761315708500128800,1.102128662109375,-2.602301974278688,-2.100033712647855,0.05768852025293745
1761315708510111000,1.112111083984375,-3.011154577848315,-1.9794009618371724,-0.3517549710150808
1761315708520093700,1.12209375,-3.546051728144288,-1.7886575868375598,-0.6742139241147787
1761315708530076000,1.132075927734375,-4.042984766227007,-1.4506106039837001,-0.8950893294624984
1761315708540057600,1.1420576171875,-4.409179546809196,-1.0045411994367837,-0.9895468247268349
1761315708550040800,1.152040771484375,-4.607641679492593,-0.5856460714109242,-0.9937998059961944
1761315708560022800,1.162022705078125,-4.5933010194510215,-0.23002478035651147,-0.9079889969155192
1761315708570004700,1.172004638671875,-4.306587187340855,0.08476093470156193,-0.8113781230095773
1761315708579987700,1.18198779296875,-3.7260108204096554,0.3645519818112254,-0.7577347956273704
1761315708589970000,1.191969970703125,-2.9941034898042678,0.5393218348704278,-0.74396952432096
1761315708599952000,1.201951904296875,-2.194511446982622,0.6444868213057517,-0.7974630679689347
1761315708609934800,1.211934814453125,-1.3516320510983466,0.7491369900867343,-0.8900487049467861
1761315708619916800,1.221916748046875,-0.5201987628579139,0.8566767428293823,-0.9447850882627069
1761315708629898800,1.231898681640625,0.2010083100348711,0.9212098591469228,-0.9446239063516259
1761315708639881700,1.2418818359375,0.7987479932129382,0.9305240693286061,-0.9131621617697179
1761315708649863700,1.25186376953125,1.355842362269759,0.9027415977813303,-0.834933770642057
1761315708659846000,1.261845947265625,1.8294278425127266,0.846382435569167,-0.7646822766777127
1761315708669828600,1.27182861328125,2.2048078000694513,0.7477388137266039,-0.7237933630589395
1761315708679810800,1.281810791015625,2.433857378718257,0.6087796942390501,-0.6692605394911021
1761315708689792800,1.291792724609375,2.572262809845805,0.44021001099422574,-0.6125466455571353
1761315708699775700,1.301775634765625,2.5778818187713624,0.32844737985953687,-0.5773350469224154
1761315708709757700,1.3117578125,2.3843723400592802,0.2512120183572173,-0.5797207730151712
1761315708719739600,1.32173974609375,2.0732909594118594,0.1979245186753571,-0.669693743276596
1761315708729722600,1.33172265625,1.7205021883696316,0.24569968467652797,-0.7906042881153523
1761315708739704800,1.341704833984375,1.3120049741089344,0.3346919733375311,-0.7931832717578857
1761315708749686800,1.351686767578125,0.9142261377394199,0.4288143183633685,-0.7626105119049549
1761315708759669800,1.361669677734375,0.555857520738244,0.5486860216736793,-0.7369098150677978
1761315708769651700,1.371651611328125,0.2024988408535719,0.7030079838573933,-0.6425947239488363
1761315708779633700,1.381633544921875,-0.25413725815415383,0.8686657251782715,-0.5142367857135832
1761315708789617000,1.391616943359375,-0.7289297760993242,1.0241332041352986,-0.38198242456167936
1761315708799598600,1.4015986328125,-1.098480881372094,1.1824578260891139,-0.1989873804002069
1761315708809580800,1.411580810546875,-1.3497154038220642,1.3499698169745504,-0.03947996013630181
1761315708819563800,1.421563720703125,-1.4449083006888628,1.4503558985702694,0.07688247467773035
1761315708829545700,1.431545654296875,-1.3689017503291367,1.474439369469136,0.17083172815898431
1761315708839528000,1.44152783203125,-1.096953525674343,1.4372573475442827,0.18503224907750263
1761315708849510700,1.4515107421875,-0.6495470273047685,1.325858727416396,0.14416026832722126
1761315708859492900,1.461492919921875,-0.09471592700481414,1.180054418209195,0.09745123372022062
1761315708869474600,1.471474609375,0.467346293592453,1.0074224539615213,-0.037769722152315076
1761315708879457800,1.481457763671875,0.9309037162959575,0.8217597432270646,-0.21199640824552624
1761315708889439700,1.491439697265625,1.3081839545160532,0.6223436708196998,-0.31369733529947696
1761315708899421700,1.501421630859375,1.5258219123125076,0.41403234429508445,-0.3787968898607418
1761315708909404700,1.51140478515625,1.6047148317635058,0.2746343949988484,-0.42497203678674994
1761315708919387000,1.521386962890625,1.5822440567582845,0.20853183740749953,-0.4536861266283318
1761315708929368800,1.531368896484375,1.4672154095649719,0.18461217876821756,-0.4572948551774025
1761315708939351800,1.541351806640625,1.2554782002449034,0.16747750409394502,-0.41360783527269956
1761315708949333800,1.551333740234375,1.0123258619636297,0.16321604725718497,-0.36815099268388
1761315708959315700,1.561315673828125,0.7170932078331709,0.20035452230125664,-0.44631190806590015
1761315708969299000,1.571298828125,0.41681437622904777,0.2587757316097617,-0.531977682652697
1761315708979280600,1.58128076171875,0.14622399592399596,0.32325098026022314,-0.6097982966970652
1761315708989262800,1.591262939453125,-0.10733633912503719,0.37284868551343675,-0.6401303065966815
1761315708999245600,1.60124560546875,-0.24964696099758146,0.45250908220559355,-0.6313921427372843
1761315709009227800,1.611227783203125,-0.2627297299325466,0.5218159887962043,-0.5308012592844664
1761315709019210000,1.6212099609375,-0.1864811875104904,0.513601118158549,-0.3945435077100992
1761315709029192700,1.631192626953125,-0.04147416616082191,0.45716523744836446,-0.27760917302593585
1761315709039175000,1.6411748046875,0.12266308759450911,0.3567978605531156,-0.2073978101425804
1761315709049156600,1.651156494140625,0.33443536822795866,0.24587124185115097,-0.17839233613898978
1761315709059139800,1.661139892578125,0.5245704020708799,0.11520268858596681,-0.1619882590278983
1761315709069121800,1.671121826171875,0.7036696626365184,-0.011476356651633978,-0.16559580026688053
1761315709079103700,1.681103759765625,0.8765145389825105,-0.12276684022992848,-0.15151785541526042
1761315709089086700,1.691086669921875,1.027362687575817,-0.22382000743225217,-0.12807634481489658
1761315709099068700,1.701068603515625,1.1422206543773412,-0.3386345734834671,-0.10598245856435969
1761315709109050600,1.711050537109375,1.2075976741731167,-0.4306162532187998,-0.058481086269579825
1761315709119033900,1.721033935546875,1.1752356197506189,-0.49826998577490444,-0.01272407342409715
1761315709129015800,1.731015869140625,1.0533096142590046,-0.5361116406522691,0.06792741666464135
1761315709138998800,1.740998779296875,0.8675684314608574,-0.5610390150293707,0.13175461320253087
1761315709148980200,1.750980224609375,0.7295084527701139,-0.5724342692688107,0.17324384906832127
1761315709158962200,1.760962158203125,0.5930570783197879,-0.6019852117933333,0.2030687496960163
1761315709168944000,1.770944091796875,0.41819852406382557,-0.6700093850970268,0.2315024334273301
1761315709178927000,1.780927001953125,0.203578452783823,-0.7426179635815322,0.22453885975871235
1761315709188909000,1.790908935546875,-0.03707271633148193,-0.7788038140758872,0.2423804405933246
1761315709198892000,1.80089208984375,-0.2126192528516054,-0.8202250810056925,0.24344452616088091
1761315709208874200,1.810874267578125,-0.38249884965121744,-0.8867110849566757,0.20976532472521064
1761315709218856200,1.820856201171875,-0.5998217501491308,-0.9709364514768123,0.16075320080760866
1761315709228839200,1.830839111328125,-0.910316855341196,-1.0451030730582773,0.16041359358970075
1761315709238821000,1.840821044921875,-1.2608207303166388,-1.0915896605536342,0.1709391888551414
1761315709248803000,1.850802978515625,-1.595184202352166,-1.0536065513789654,0.1738704565340653
1761315709258785300,1.860785400390625,-1.948205613106489,-1.0305904174506664,0.2965460017513484
1761315709268768000,1.87076806640625,-2.124620164632797,-1.1492888391979037,0.5668651638995855
1761315709278750200,1.880750244140625,-2.0630279240727423,-1.2809616010695695,0.8397416823804378
1761315709288733200,1.890733154296875,-1.819809534817934,-1.3301283675596116,0.9328123263962567
1761315709298715100,1.900715087890625,-1.4777853188961743,-1.4395260231286287,0.8626786135926843
1761315709308697300,1.910697265625,-1.2800883253663777,-1.7004856746487318,0.7357537769004702
1761315709318680000,1.92068017578125,-1.263030807581544,-1.993804750242829,0.4252645169273019
1761315709328662300,1.930662353515625,-1.487291982910037,-2.138803880546987,-0.047816301729157566
1761315709338644000,1.94064404296875,-1.990399325713515,-2.0307902266822753,-0.48042066002525385
1761315709348627200,1.950627197265625,-2.567970081087947,-1.599523254469782,-0.7127168924450874
1761315709358609200,1.960609130859375,-3.0150013164043425,-0.9852188054598867,-0.6886679083377123
1761315709368591000,1.970591064453125,-3.3400475095182656,-0.3954321271128952,-0.4379583596099168
1761315709378574000,1.980573974609375,-3.50785263813138,0.07446428935378789,-0.05465462331660092
1761315709388556300,1.990556396484375,-3.3661353059768673,0.5149120546266436,0.26633228446915747
1761315709398538200,2.000538330078125,-2.897467992913723,0.8590057702988385,0.5023679226130247
1761315709408521200,2.010521240234375,-2.2529916930019853,1.021422776132822,0.600266132915765
1761315709418503200,2.020503173828125,-1.5509885022729635,1.0592715914033353,0.5792460316428915
1761315709428485000,2.030485107421875,-0.8756021003127098,1.006931601704657,0.5802784799631685
1761315709438468000,2.040468017578125,-0.3328139045059681,0.8709270942389965,0.6197091575976461
1761315709448450000,2.050449951171875,0.08555763803720473,0.7488578808844089,0.6595419132269918
1761315709458432300,2.060432373046875,0.4574345559090376,0.6912102862969041,0.6027585342533887
1761315709468415000,2.0704150390625,0.7202823592633009,0.7002719830222427,0.421172242644988
1761315709478397200,2.080397216796875,0.900769859316945,0.6954599065653979,0.1528944318649359
1761315709488379100,2.090379150390625,0.9595908815979957,0.6543839459419251,-0.15404111768202855
1761315709498362000,2.100362060546875,0.9187871620446443,0.5519657739967108,-0.4837187517225742
1761315709508344000,2.110343994140625,0.8867460101395845,0.453575980784744,-0.8041181419439614
1761315709518326000,2.120325927734375,0.90773560667634,0.3945826706767082,-1.1447589406833052
1761315709528309000,2.13030908203125,0.9758066878616809,0.3592795943662524,-1.44485744728446
1761315709538291200,2.140291259765625,1.076570662859082,0.3248649913281202,-1.652520246772468
1761315709548273200,2.150273193359375,1.1619354086726903,0.3237023772895336,-1.7706164648428557
1761315709558256000,2.160256103515625,1.2222007845431566,0.3916752587974071,-1.7877768584802747
1761315709568238000,2.170238037109375,1.2320084773302078,0.553287670250237,-1.7037430690094828
1761315709578220000,2.180219970703125,1.1714093394607306,0.7872548315569758,-1.5289973274782298
1761315709588203300,2.190203369140625,1.0612380691707133,1.0135606644555926,-1.2560104074254632
1761315709598185000,2.20018505859375,0.934271146902442,1.1705053763583302,-0.9293204656925051
1761315709608167200,2.210167236328125,0.8608113584160805,1.2828922768712043,-0.6455033048719168
1761315709618150100,2.220150146484375,0.8897592204809188,1.3753387976393103,-0.4348618914319202
1761315709628132000,2.230132080078125,1.0280150140047073,1.4147288510024547,-0.303100245700404
1761315709638114300,2.2401142578125,1.2220903099060059,1.3704048483684659,-0.2513261827887967
1761315709648097000,2.250096923828125,1.4678782573878764,1.2724968473240732,-0.24348107704529537
1761315709658079200,2.260079345703125,1.7251877158373594,1.0938993988007306,-0.2501669662836939
1761315709668061000,2.27006103515625,1.9461258842229843,0.9339292015969752,-0.2757656092521734
1761315709678044200,2.280044189453125,2.095817263996601,0.7676207412824034,-0.35667174995541573
1761315709688026000,2.290026123046875,2.18765208260715,0.6139838387534022,-0.4622293159049004
1761315709698008000,2.300008056640625,2.194164240980148,0.4863771572768688,-0.4838012423742562
1761315709707991000,2.309990966796875,2.188339480349421,0.4374173115357756,-0.43991300080902873
1761315709717973200,2.31997314453125,2.198407285377383,0.42813072001338004,-0.4029414798296988
1761315709727955200,2.329955078125,2.1427005957245826,0.3702487321481108,-0.37834991327822204
1761315709737938200,2.339938232421875,1.9888585260123013,0.21900398545265196,-0.3628052842743695
1761315709747920100,2.349920166015625,1.8480390194803475,0.057497664722800254,-0.2956900973080657
1761315709757902000,2.359902099609375,1.786978109318018,-0.009618015433847904,-0.22730543839521705
1761315709767885300,2.36988525390625,1.728442918241024,-0.029870822128653524,-0.21125284160291774
1761315709777867000,2.379866943359375,1.617131830266118,-0.08108078488409519,-0.18130106319254263
1761315709787849200,2.38984912109375,1.4294324991375207,-0.11077625044584273,-0.1261870239369571
1761315709797832200,2.399832275390625,1.2188380301117896,-0.1273898238554597,-0.004223298517148941
1761315709807814100,2.409814208984375,1.0254571462154387,-0.13197744390666485,0.1348860613623634
1761315709817796400,2.41979638671875,0.846535580304265,-0.14754969156980513,0.22268197984565047
1761315709827779000,2.429779052734375,0.6417939289599657,-0.2026724438548088,0.2966166193021461
1761315709837761300,2.43976123046875,0.4597866719931364,-0.26677769014909863,0.36217009164337066
1761315709847743000,2.449742919921875,0.3594640110224485,-0.37745997870117426,0.4671359022447839
1761315709857726200,2.459726318359375,0.306468918415904,-0.5047238380894065,0.5922047723393887
1761315709867708200,2.469708251953125,0.30191023219823837,-0.6366232483237981,0.6924167394772172
1761315709877690000,2.479690185546875,0.3489677514493465,-0.7928213796429335,0.7761915126856416
1761315709887673000,2.489673095703125,0.41817338962256906,-0.968733534605056,0.7892112263217568
1761315709897655300,2.4996552734375,0.4850578913718462,-1.1724356137685477,0.7610071683615446
1761315709907637000,2.509636962890625,0.5321119034916162,-1.3453778130091727,0.7399258018881082
1761315709917620200,2.5196201171875,0.5682984846383333,-1.5041498864695428,0.6690932201001792
1761315709927602200,2.529602294921875,0.5389800356954336,-1.6790398587770758,0.6047564666049554
1761315709937584000,2.539584228515625,0.450423215842247,-1.8592706075906753,0.5556483714995906
1761315709947567000,2.549567138671875,0.2721077991306782,-1.998665342016518,0.4891673725172877
1761315709957549000,2.559549072265625,0.012402385455369948,-2.0815743652410803,0.31691677227001636
1761315709967531300,2.56953125,-0.3220475958198309,-2.1003259735926982,0.16736394245056435
1761315709977514000,2.579513916015625,-0.6414560753077269,-2.087618029319495,0.11574614781290292
1761315709987496200,2.58949609375,-0.9623603463113307,-2.020820621331781,0.11856200895123183
1761315709997478100,2.59947802734375,-1.3069079432308672,-1.90423159295395,0.11499054367262869
1761315710007461000,2.609461181640625,-1.6338362968295812,-1.759953908792138,0.1565965743185021
1761315710017443000,2.619443115234375,-1.8424848924845456,-1.671276677429676,0.36594968324732036
1761315710027425000,2.629425048828125,-1.8644453798800706,-1.7495466426767408,0.7820274522975087
1761315710037408000,2.639407958984375,-1.7142454660624264,-1.8545763122946022,1.117420632706955
1761315710047390200,2.64939013671875,-1.6034955191016196,-1.9194510816566646,1.330803636472672
1761315710057372200,2.6593720703125,-1.6632938619822262,-1.9493379781372844,1.52341616634503
1761315710067355100,2.669355224609375,-1.9210797057718036,-1.964209237924218,1.5766111654378472
1761315710077337000,2.679337158203125,-2.2311983788669107,-1.9262971481591462,1.3934066615104674
1761315710087319000,2.689319091796875,-2.6476754859656095,-1.7529072051510213,1.0354087775178253
1761315710097302300,2.69930224609375,-3.273763896271586,-1.4741777959235012,0.5605059675985947
1761315710107284000,2.709283935546875,-3.9244787983119487,-1.0809634909905492,0.08272889915099367
1761315710117266200,2.71926611328125,-4.365735541880131,-0.6749443572811782,-0.2871470724282786
1761315710127249200,2.729249267578125,-4.616087436276674,-0.4069005196537822,-0.4523054859248921
1761315710137231000,2.739231201171875,-4.5718578339278695,-0.15733312669843436,-0.48944180554449557
1761315710147213300,2.74921337890625,-4.223502661418914,0.13237199618220327,-0.4261677859099582
1761315710157196000,2.759196044921875,-3.553026827853918,0.3596514964185655,-0.2665244095077738
1761315710167178200,2.76917822265625,-2.5624814205437896,0.47015579805523156,-0.04050975070861168
1761315710177160000,2.779159912109375,-1.5228823517292738,0.5261413046494126,0.1377111013209913
1761315710187143200,2.78914306640625,-0.6153332075357437,0.6306291224755346,0.23835361449634654
1761315710197125000,2.799125,0.15786182674765586,0.6688178372249007,0.33005441319737583
1761315710207107000,2.809107177734375,0.8029273247241974,0.6103090957634151,0.3991451562866568
1761315710217090000,2.819090087890625,1.3417267431557178,0.5102440628156065,0.44456641610544173
1761315710227072300,2.829072265625,1.7208441336750984,0.4059364238619804,0.444453164989315
1761315710237054200,2.83905419921875,1.9929086781859398,0.3114426151752472,0.4191324073804542
1761315710247037200,2.849037109375,2.145153834095597,0.2403464870803058,0.387575970252417
1761315710257019100,2.85901904296875,2.168259399873018,0.20328297696858644,0.29970519643463195
1761315710267001000,2.8690009765625,2.1120178726911543,0.17963205226808784,0.16826006930638104
1761315710276984300,2.878984375,1.9811486822873352,0.17080781756043434,0.0008243585275486111
1761315710286966000,2.888966064453125,1.7140642642766237,0.16420798090398311,-0.17445850382139905
1761315710296948200,2.8989482421875,1.4690601606488227,0.20919073970764873,-0.2813415827536024
1761315710306931000,2.908930908203125,1.2200596808612345,0.3679161975473165,-0.24739129102528093
1761315710316913200,2.9189130859375,0.8850210860431194,0.6264820857986807,-0.1354922105619684
1761315710326895400,2.928895263671875,0.4695534482479095,0.91251480377689,0.03550363125069998
1761315710336878000,2.938878173828125,-0.00873977129459381,1.1861541963890194,0.27879398063002153
1761315710346860300,2.9488603515625,-0.5433160190731287,1.402369866297394,0.5266747539389878
1761315710356842000,2.958842041015625,-0.992242858877778,1.6166529607079922,0.7355655608519911
1761315710366825200,2.9688251953125,-1.2605898441702126,1.8157132054150102,0.8978164163388311
1761315710376807200,2.97880712890625,-1.3469237272769212,1.9314742585361002,1.0447194075029342
1761315710386789000,2.9887890625,-1.20596861166656,1.9707257802113889,1.0631738595388829
1761315710396772000,2.998772216796875,-0.8559867147386073,1.9005913367554543,1.0325709968086332
1761315710406754000,3.008754150390625,-0.3592255260914564,1.7424297964088618,0.9238714795716106
1761315710416736000,3.018736083984375,0.1503618263810873,1.537387116291374,0.7248242404766381
1761315710426719200,3.02871923828125,0.5964958205968142,1.3502629547022282,0.5367632364287972
1761315710436701200,3.038701171875,1.0548626889199018,1.1532326083876192,0.4173382539726794
1761315710446683100,3.04868310546875,1.4376853636980056,0.996177129586786,0.3583559036500752
1761315710456666000,3.058666015625,1.7313795562148093,0.9016457653686404,0.3331629006067291
1761315710466648000,3.06864794921875,1.8944892204880712,0.8349433421880006,0.3473747466368601
1761315710476630300,3.07863037109375,1.9580717580825089,0.7771314969494938,0.3821768146226182
1761315710486613000,3.088613037109375,1.8655992260903118,0.7479067176394164,0.4024960010845214
1761315710496595200,3.09859521484375,1.613662692850828,0.7251900050491095,0.33997367660012096
1761315710506577000,3.108576904296875,1.3466618614703416,0.7183947919510304,0.23368702919110654
1761315710516560100,3.11856005859375,1.1377794570595026,0.6639737581945956,0.19061927369590848
1761315710526542000,3.1285419921875,0.9592349077671766,0.585955137360096,0.14954932268811388
1761315710536524000,3.13852392578125,0.7998854728102683,0.5297242777027189,0.09707922207005322
1761315710546507000,3.148507080078125,0.6818599818885326,0.5035428116112948,0.06078174616107717
1761315710556489200,3.1584892578125,0.6334013636678457,0.5152352952316404,0.03268880215883255
1761315710566471200,3.16847119140625,0.6154273155599832,0.5063064311057329,0.016302333769667894
1761315710576454100,3.1784541015625,0.6095446872621775,0.46141529610827564,0.03831453308612108
1761315710586436000,3.18843603515625,0.598732201346755,0.39495442659854885,0.051281493621692056
1761315710596418000,3.19841796875,0.5968272445082664,0.31429946591109037,0.017168284682929514
1761315710606401300,3.2084013671875,0.5744546691805124,0.2223204165242612,-0.01889700817167759
1761315710616383000,3.218383056640625,0.48553895288705823,0.151417034522444,-0.05021857709791511
1761315710626365200,3.228365234375,0.3945259720534086,0.050117345213145016,-0.06792513337600976
1761315710636348200,3.23834814453125,0.30824060426354405,-0.07407499777525663,-0.11845007300935685
1761315710646330000,3.248330078125,0.21883564314842222,-0.17653218655660746,-0.16498386064730583
1761315710656312300,3.258312255859375,0.13845803809762,-0.2570774032592773,-0.2197136315593496
1761315710666295000,3.268294921875,0.05064239200055599,-0.3229623725771904,-0.276855066723004
1761315710676277200,3.27827734375,-0.08188216439485549,-0.4233163054689765,-0.36534444736316796
1761315710686259000,3.288259033203125,-0.23749007473587988,-0.5526639853939413,-0.43376251535527405
1761315710696242200,3.2982421875,-0.45280806515216826,-0.655373395370692,-0.4964089776759967
1761315710706224000,3.30822412109375,-0.6816103910416365,-0.7139829668581485,-0.5644985443660989
1761315710716206000,3.3182060546875,-0.9229255770236253,-0.7157581598371267,-0.573763472045958
1761315710726189000,3.32818896484375,-1.1461199999034404,-0.6652068071208894,-0.4861225614612922
1761315710736171300,3.338171142578125,-1.3202946635484694,-0.5596208187945186,-0.3318487492682412
1761315710746153200,3.3481533203125,-1.4410130468159914,-0.5114952319204807,-0.12174944334831088
1761315710756136200,3.35813623046875,-1.470963948443532,-0.648815936551243,0.1837510318942368
1761315710766118100,3.3681181640625,-1.3072078029602765,-0.9383639691740274,0.4553735682586208
1761315710776100000,3.37810009765625,-1.1034107389897108,-1.1982935469940303,0.557186577384919
1761315710786083300,3.388083251953125,-1.0304553928941487,-1.4238539683528244,0.47880642976164817
1761315710796065000,3.39806494140625,-1.0896417413562536,-1.6195179947502911,0.2565999584732577
1761315710806047200,3.408047119140625,-1.2825433173030614,-1.8016021163456142,-0.036074499074369666
1761315710816030000,3.418030029296875,-1.6619383557200431,-1.9196486500553787,-0.34337877233587205
1761315710826012200,3.42801220703125,-2.2567963459819556,-1.8710427323184906,-0.5747491951476782
1761315710835994400,3.437994384765625,-2.966269141939282,-1.5789692728713154,-0.7113561985511332
1761315710845977000,3.44797705078125,-3.5896558920711277,-1.1091460677713154,-0.5945876488879323
1761315710855959300,3.457959228515625,-3.9070220520764587,-0.6049860010445117,-0.2676316035646945
1761315710865941000,3.46794091796875,-3.9195962869673964,-0.15284370632469654,0.11335172695703803
1761315710875924200,3.47792431640625,-3.605218787384033,0.25363573837280273,0.4113343373827636
1761315710885906200,3.48790625,-3.0967350122392174,0.5482818247869611,0.5532906659249216
1761315710895888100,3.49788818359375,-2.5210475863933564,0.6793550133302807,0.5598676331624388
1761315710905871000,3.50787109375,-1.9562375283926725,0.6869806859031319,0.4411144855532795
1761315710915853000,3.51785302734375,-1.5011615183085203,0.634268940282613,0.22504713807441293
1761315710925835000,3.5278349609375,-1.1532891608804463,0.5685039440825581,0.03272942643016576
1761315710935818200,3.537818359375,-0.7874053459435701,0.5775258933193981,-0.16147428162377328
1761315710945800200,3.54780029296875,-0.3689806119084358,0.6293250541396439,-0.28872082455102355
1761315710955782100,3.5577822265625,0.08782441392540931,0.683740973329544,-0.3901067673716694
1761315710965765000,3.56776513671875,0.5847095212131739,0.7989058141231536,-0.48446025427225975
1761315710975747000,3.5777470703125,1.026460185778141,0.9490474218823015,-0.6187954768188297
1761315710985729300,3.587729248046875,1.358404906234145,1.0521038917310535,-0.7775712035410106
1761315710995712000,3.5977119140625,1.5593839901745319,1.0856893504686653,-0.9255705385744571
1761315711005694200,3.607694091796875,1.667169826632738,1.058250431662053,-1.117946775472909
1761315711015676000,3.617676025390625,1.78218093816936,0.9707023504599929,-1.39382620209679
1761315711025659100,3.6276591796875,1.8589456134200095,0.855056740412116,-1.6899067052282393
1761315711035641000,3.63764111328125,1.883762074768543,0.7348819625020027,-1.9258083417288958
1761315711045623000,3.647623046875,1.8627777389287947,0.645540129750967,-2.073716637478024
1761315711055606000,3.65760595703125,1.803680822315812,0.6294482421278953,-2.110992913557589
1761315711065588200,3.667588134765625,1.6224422116339206,0.7048010047540069,-2.0496483641482888
1761315711075570200,3.677570068359375,1.4115274246126412,0.8518889240309595,-1.8681546096615491
1761315711085553200,3.68755322265625,1.213096856111288,1.0702806228041648,-1.552526087103784
1761315711095535000,3.69753515625,1.0832651920616627,1.3113169918447731,-1.0986595989398658
1761315711105517000,3.70751708984375,1.0570523079186678,1.4782511828422547,-0.6255929549392313
1761315711115500300,3.717500244140625,1.0907347972899675,1.5919927128344773,-0.22089608280956743
1761315711125482000,3.72748193359375,1.2146043380647897,1.5968559349566698,0.07120726031921804
1761315711135464200,3.737464111328125,1.3481190745413303,1.458731074336171,0.28235918056461956
1761315711145447700,3.74744775390625,1.517999255862832,1.2282755744121967,0.4255727791588753
1761315711155430000,3.757429931640625,1.6886352239876985,0.9712244746379554,0.4976716180229559
1761315711165411600,3.76741162109375,1.8570862492889164,0.7586942152440548,0.510032794685103
1761315711175394800,3.777394775390625,1.9891876118361949,0.5551724610835314,0.5409089944640174
1761315711185376800,3.787376708984375,2.116779388004541,0.39217107949033375,0.52749133101888
1761315711195359700,3.79735986328125,2.1783055775910616,0.23721578783914446,0.5557558139294385
1761315711205341700,3.807341796875,2.1299995195835826,0.08510054191946982,0.5929833920290694
1761315711215323600,3.81732373046875,1.946485949707031,-0.06183905492797494,0.6001334099141881
1761315711225305900,3.827305908203125,1.690680466079712,-0.2014436327122152,0.530630907686241
1761315711235288800,3.837288818359375,1.3007733859986066,-0.333605785536021,0.4548098334286362
1761315711245270800,3.847270751953125,0.9487129292309283,-0.4286813396334648,0.3893290609974414
1761315711255253800,3.857253662109375,0.6502332560032605,-0.45736002936810255,0.36972543892636894
1761315711265235700,3.867235595703125,0.40421851402819153,-0.464693294865638,0.38838308538421984
1761315711275217700,3.8772177734375,0.23613632203936574,-0.48373935611918567,0.4287295261567458
1761315711285201000,3.887200927734375,0.10707798044979572,-0.5653685686662793,0.4794768763691187
1761315711295182600,3.8971826171875,0.03134498633444309,-0.7148299390763044,0.522102185326442
1761315711305164800,3.907164794921875,-0.029669162076711653,-0.8628491478540002,0.5165690280534326
1761315711315147500,3.9171474609375,-0.051311669564247125,-1.0158480447404086,0.49960134397651995
1761315711325129700,3.927129638671875,-0.03738485102057457,-1.1296860208444297,0.5160183719007299
1761315711335112000,3.93711181640625,-0.022961773392558095,-1.2387184963628648,0.5487186453016475
1761315711345094700,3.9470947265625,-0.054906479185819625,-1.3595944082796574,0.6222035316966473
1761315711355076900,3.957076904296875,-0.07649871779084205,-1.5088162708453834,0.7056387707524001
1761315711365058600,3.96705859375,-0.04796002104878425,-1.6595507299311458,0.7703329228505492
1761315711375041800,3.977041748046875,0.019335984110832212,-1.7875221530668437,0.8390149024758488
1761315711385023700,3.987023681640625,0.12254501417279243,-1.8769260912686585,0.8985030103635042
1761315711395005700,3.997005615234375,0.18702829999923706,-1.9624492425143718,0.9420078055690974
1761315711404988700,4.00698876953125,0.16925182029008864,-2.044471107640862,0.9949526292931288
1761315711414971000,4.016970947265625,0.10378712221086024,-2.1142117294736207,1.053537139404565
1761315711424952800,4.026952880859375,-0.03479658809304237,-2.1456245203472673,1.1018289496909826
1761315711434935800,4.036935791015625,-0.221107679733634,-2.158319020617008,1.10593426611796
1761315711444917800,4.046917724609375,-0.47861938275694843,-2.1298475438922644,1.091360235711932
1761315711454899700,4.056899658203125,-0.7499088512420654,-2.05519518462047,1.0844338705148546
1761315711464883000,4.066883056640625,-1.0142647210717202,-1.940468735244125,1.0418474322631954
1761315711474864600,4.07686474609375,-1.2499164744645357,-1.8185900760255753,0.990971304572001
1761315711484846800,4.086846923828125,-1.4647463891029358,-1.7292431287080048,0.9835560598794371
1761315711494829600,4.09682958984375,-1.7108634224086998,-1.6607912315115332,0.9819488438785076
1761315711504811800,4.106811767578125,-1.9580705890387295,-1.6368516991280018,0.9919093160744756
1761315711514794000,4.1167939453125,-2.137127764028311,-1.7433371205121277,1.1427119450256227
1761315711524776700,4.126776611328125,-2.088291544666886,-1.9296565415896474,1.2886442645266651
1761315711534759000,4.136759033203125,-1.8535662584692238,-2.0218568325117228,1.269139499720186
1761315711544740600,4.14674072265625,-1.6718442481845617,-2.0332221300043165,1.1284147587995976
1761315711554723800,4.156723876953125,-1.7080670696884392,-2.0709762527287006,0.9736779322046786
1761315711564705800,4.166705810546875,-2.027155231180787,-2.1025413115546105,0.7467720145210623
1761315711574687700,4.176687744140625,-2.640935948577523,-2.007174373295158,0.42983861990980804
1761315711584670700,4.186670654296875,-3.409636009529233,-1.701476877643168,0.04140057120164856
1761315711594652700,4.196652587890625,-3.9633506730198858,-1.1947701951734722,-0.21260727015286682
1761315711604635000,4.206634765625,-4.182400251179933,-0.6603478227823972,-0.27237240488361564
1761315711614617900,4.216617919921875,-4.0553222697526214,-0.26611995689272877,-0.20609153158329427
1761315711624599800,4.226599853515625,-3.668011635905504,0.04829305239543318,-0.055896184342913324
1761315711634581800,4.236581787109375,-3.0428847641080616,0.3656638885758817,0.0686791483473964
1761315711644565000,4.24656494140625,-2.4146651869922877,0.6080586864881217,0.23378614218402652
1761315711654546700,4.256546630859375,-1.9448691621601581,0.8034900731734931,0.38574890095572917
1761315711664529000,4.26652880859375,-1.6788713703423737,0.9418678856417536,0.46982167073003944
1761315711674511600,4.27651171875,-1.5164496883332728,1.0576920671269296,0.4637428988056257
1761315711684493800,4.286493896484375,-1.2834160084843635,1.1887981350265442,0.3862514436503872
1761315711694475800,4.296475830078125,-0.9044856649696826,1.3221516895920038,0.28022436049301175
1761315711704458800,4.306458740234375,-0.37488077586293217,1.4270309909537433,0.1957621530096978
1761315711714440700,4.316440673828125,0.2408317863792181,1.4496192548587918,0.15428648901153355
1761315711724422700,4.326422607421875,0.8176338954687118,1.408182205837965,0.145527391961962
1761315711734405600,4.336405517578125,1.3529717752695083,1.3723080516412853,0.15115279409568755
1761315711744387800,4.346387939453125,1.8010130644112825,1.3797493075579403,0.1518214140722528
1761315711754369800,4.356369873046875,2.1015105072021485,1.3858154757291077,0.15475819817651063
1761315711764352800,4.366352783203125,2.2035423101782796,1.3676497044414282,0.19710315582249313
1761315711774334700,4.376334716796875,2.1384943762063977,1.3382476688683032,0.2779380031215027
1761315711784316700,4.386316650390625,1.9305191497683525,1.3563073494330047,0.3400497375110164
1761315711794300000,4.3962998046875,1.6328285810917615,1.4079428441241382,0.36217246626354754
1761315711804281600,4.406281494140625,1.3120324466377495,1.4939137391373514,0.3367137980213389
1761315711814263800,4.416263916015625,0.9558943651676177,1.607532811793685,0.3083859675509855
1761315711824246500,4.42624658203125,0.6113906073898077,1.7372721213847397,0.31562943587321785
1761315711834228700,4.436228759765625,0.3217576729625463,1.888973379676044,0.30162641028817744
1761315711844211000,4.4462109375,0.08122866892218589,1.9860405459821222,0.27124172035325317
1761315711854193700,4.456193603515625,-0.1472200212240219,2.00719439316988,0.23865051508368923
1761315711864175900,4.46617578125,-0.3165302937030792,2.0268632624968883,0.23468802292719482
1761315711874157600,4.476157470703125,-0.3922311391144991,2.068789264078438,0.2009578584892675
1761315711884140800,4.486140869140625,-0.37926469003558155,2.0845950282365084,0.1676863793379627
1761315711894122800,4.496122802734375,-0.28311785344481466,2.0534578394338485,0.13766358151799066
1761315711904104700,4.506104736328125,-0.06946341232657433,2.017145293819904,0.08873163756397552
1761315711914087700,4.516087646484375,0.2051420488387346,1.9852114016816018,0.018064639867609367
1761315711924069600,4.526069580078125,0.5148766910523176,1.9117463524982332,-0.07720241821394301
1761315711934051800,4.5360517578125,0.855183581662178,1.7906497835680841,-0.13719054804560726
1761315711944034800,4.546034912109375,1.156872280064225,1.6548586265921592,-0.14837889980240723
1761315711954016800,4.556016845703125,1.3825795625478028,1.5012211395412682,-0.1337669850714039
1761315711963998700,4.565998779296875,1.4721341612666845,1.4135074925139546,-0.10308491049194708
1761315711973982000,4.57598193359375,1.4978297435373067,1.359662212818861,-0.09194640749255195
1761315711983963600,4.585963623046875,1.4711188467442988,1.3062369121015072,-0.08769632143317721
1761315711993945900,4.59594580078125,1.4348551087081431,1.2379597869500518,-0.0810906304246746
1761315712003928600,4.605928466796875,1.3713310233026743,1.189545592392981,-0.06359410930122249
1761315712013910800,4.615910888671875,1.3596873472601174,1.1373735066071151,-0.07831493689995259
1761315712023892700,4.625892822265625,1.370846454656124,1.0189549247145653,-0.12117659363010898
1761315712033875700,4.635875732421875,1.3844704908609389,0.8535948511660099,-0.17348626125575975
1761315712043858000,4.64585791015625,1.3513859673827886,0.6963996716335416,-0.24545807620668783
1761315712053839600,4.655839599609375,1.2759820590913296,0.5604705674916506,-0.3152339337496087
1761315712063822800,4.66582275390625,1.1801187156170605,0.43570115526765585,-0.34896588828582314
1761315712073804800,4.6758046875,1.0716022267967462,0.35790801375210285,-0.34137539662420746
1761315712083786800,4.685786865234375,0.9475625901520252,0.2706558467566967,-0.3247244868788868
1761315712093769700,4.695769775390625,0.8180886534988879,0.16736819850057363,-0.29391707801986483
1761315712103751700,4.705751708984375,0.6562929944336414,0.03580751870125532,-0.2621168221985921
1761315712113734000,4.71573388671875,0.45263329310715195,-0.1011532665759325,-0.26274551202356816
1761315712123716900,4.725716796875,0.2972165214240551,-0.20791618972718715,-0.313680018838495
1761315712133698800,4.73569873046875,0.18498890312612057,-0.32190409569591283,-0.3766723719874397
1761315712143680800,4.7456806640625,0.0971405238032341,-0.5002160052761435,-0.4605274073578417
1761315712153663700,4.755663818359375,-0.03310322817862034,-0.6911068259224296,-0.5558594934996217
1761315712163645700,4.765645751953125,-0.18255729206502436,-0.8488210608929395,-0.652018605050072
1761315712173627600,4.775627685546875,-0.39357378589510916,-0.9698708680719137,-0.7331254011582583
1761315712183610600,4.785610595703125,-0.6395972956985235,-1.0341013481810688,-0.7606807128861546
1761315712193592800,4.7955927734375,-0.9023387160688638,-1.0375682936392725,-0.7301617290470749
1761315712203574800,4.80557470703125,-1.1557494135141373,-0.9424687741443514,-0.6329651642076671
1761315712213557800,4.815557861328125,-1.3723071748584508,-0.8182121337480842,-0.4832603404305875
1761315712223539700,4.825539794921875,-1.5057196200042962,-0.7380779820643365,-0.32288843055814503
1761315712233521700,4.835521728515625,-1.5857850903660058,-0.731613900616765,-0.19003210319140926
1761315712243504600,4.845504638671875,-1.6637515426218508,-0.790973267558217,-0.06809526577852666
1761315712253486600,4.855486572265625,-1.620768725463748,-0.8336052254520356,0.03405448275515809
1761315712263468800,4.86546875,-1.5389491049110888,-0.8708641120053827,0.14935734377996995
1761315712273451500,4.875451416015625,-1.4373288053452968,-1.0590807450063526,0.3524954141188413
1761315712283433700,4.885433837890625,-1.2218769594162702,-1.4119343979783356,0.5784021646972746
1761315712293415700,4.895415771484375,-0.9849392578661441,-1.661628851379454,0.633728622860834
1761315712303398700,4.905398681640625,-0.8414818040460348,-1.7713186217628418,0.5314659337382763
1761315712313380600,4.915380615234375,-0.8999819238096475,-1.819680647741258,0.3899226795090362
1761315712323362600,4.925362548828125,-1.2355267145842312,-1.8538357230603695,0.31856285897660996
1761315712333345500,4.935345458984375,-1.7618167800545692,-1.7690926162764429,0.2873042357513681
1761315712343327700,4.94532763671875,-2.37978442774713,-1.4927764056704937,0.22953462221939117
1761315712353309700,4.955309814453125,-2.9535902776300906,-1.0429619693763554,0.12472414831016213
1761315712363292700,4.965292724609375,-3.2924884704858064,-0.6213244107745588,0.07929090579263866
1761315712373274600,4.975274658203125,-3.4204128396093845,-0.2795708284877241,0.19335322870444505
1761315712383256600,4.985256591796875,-3.285010097429156,0.008232552424818277,0.43075306787360457
1761315712393239800,4.99523974609375,-2.9495845491200683,0.19703633766397832,0.6633076955012976
1761315712403221500,5.005221435546875,-2.4573621729463335,0.2960495234712958,0.8126308264844119
1761315712413203700,5.01520361328125,-1.869905398851633,0.3320927506245672,0.7836892480298876
1761315712423186700,5.025186767578125,-1.2477286090314388,0.3152078129276633,0.6247325387176126
1761315712433168600,5.035168701171875,-0.6863964562743902,0.2904543338127434,0.3883189341068268
1761315712443150800,5.04515087890625,-0.16424597482681275,0.27935703960657116,0.21584216042086482
1761315712453133600,5.055133544921875,0.28681261630952354,0.28570187858864665,0.09427841237038373
1761315712463115800,5.06511572265625,0.6652227353423833,0.298565013423562,-0.00960793243125081
1761315712473097500,5.075097412109375,0.9610609541505575,0.3232124018155038,-0.0831527323199436
1761315712483080700,5.085080810546875,1.202216565656662,0.37068580839112397,-0.0907116963321343
1761315712493062700,5.095062744140625,1.4209189378142355,0.43736207421720025,-0.09878620865102856
1761315712503044600,5.105044677734375,1.5062556265771387,0.5310121255561709,-0.11027520558852702
1761315712513027600,5.115027587890625,1.4711416430979967,0.605787380555272,-0.18854129837807268
1761315712523009800,5.125009765625,1.29920043759346,0.6439927541784942,-0.35407559598237276
1761315712532991700,5.13499169921875,1.0414718769490718,0.6530892299562693,-0.529547898222506
1761315712542974700,5.144974609375,0.8299269753307104,0.6585315671406686,-0.7244792264312505
1761315712552956700,5.154956787109375,0.7058920148611069,0.6567983136072755,-0.9541999823398888
1761315712562938600,5.164938720703125,0.6445253997504711,0.6796368990115821,-1.1534325879391283
1761315712572921900,5.174921875,0.5987327858686446,0.7053454868942499,-1.2940582523994146
1761315712582903600,5.184903564453125,0.46837212950885293,0.7325587802514434,-1.320455991590023
1761315712592885800,5.1948857421875,0.2839467054843902,0.8617629600524902,-1.2162380036812275
1761315712602868500,5.204868408203125,0.025047932016849517,1.0795772973291575,-0.9816790870264172
1761315712612850700,5.2148505859375,-0.21556173604428766,1.2987139692507683,-0.7262586571939289
1761315712622833000,5.2248330078125,-0.38437574943900105,1.4768160354726017,-0.4264921590261161
1761315712632815600,5.234815673828125,-0.4596949020564556,1.5920229618422685,-0.08898063475582749
1761315712642797800,5.2447978515625,-0.388883582252264,1.6455827025942504,0.22230989513024688
1761315712652779500,5.254779541015625,-0.1707178011894226,1.6376272135451435,0.452946962166205
1761315712662762800,5.2647626953125,0.20266426054835318,1.5151394825175404,0.6013410321382805
1761315712672744700,5.27474462890625,0.6875000336021184,1.3049956798687576,0.6239939222447574
1761315712682726700,5.2847265625,1.1545324389398097,1.0576026352778076,0.5352227655211463
1761315712692709600,5.294709716796875,1.541615693771839,0.7966445911929011,0.44989177584666756
1761315712702691600,5.304691650390625,1.9061749821066856,0.5592012782081961,0.3866631297238171
1761315712712673800,5.314673828125,2.140831294721365,0.3461316512405872,0.3260911721222102
1761315712722656800,5.32465673828125,2.2295652247071267,0.13910714965611695,0.3034383185483515
1761315712732638700,5.334638671875,2.192790030017495,-0.02119184111058712,0.31398082841597497
1761315712742620700,5.34462060546875,2.0755285092055797,-0.1008785412877798,0.2655899782018736
1761315712752603600,5.354603759765625,1.9283184248536824,-0.15777268715947865,0.157769691484794
1761315712762585600,5.364585693359375,1.7986264615356922,-0.16476239991635083,0.09491784278508275
1761315712772567800,5.37456787109375,1.643062974858284,-0.1815805559873581,0.08216784946843982
1761315712782550500,5.384550537109375,1.4539853411138057,-0.22758038287907836,0.08721037368029355
1761315712792532700,5.39453271484375,1.2334487392663955,-0.26675094827264545,0.13524886679276824
1761315712802514700,5.4045146484375,1.0630722988605499,-0.26368045478612184,0.20735128585342316
1761315712812497700,5.41449755859375,0.9000731092244386,-0.2514078331902623,0.2593468825612217
1761315712822479600,5.424479736328125,0.7865303166747093,-0.2679002644382417,0.291033302744478
1761315712832461600,5.434461669921875,0.7384966458678245,-0.26779797310754655,0.3296272372938692
1761315712842444500,5.444444580078125,0.7285726332247257,-0.29684038158804177,0.3693486415032297
1761315712852426800,5.4544267578125,0.7603612716734409,-0.342877617880702,0.4045970284843817
1761315712862408700,5.46440869140625,0.8372083645105362,-0.39936581330001353,0.4684940023228526
1761315712872391700,5.4743916015625,0.9377315164893865,-0.45811610843241213,0.5009638279687613
1761315712882373600,5.48437353515625,0.988152959215641,-0.5270620727561414,0.5293280814593657
1761315712892355600,5.49435546875,0.9715776719897985,-0.6013998131208121,0.5490800990251824
1761315712902338800,5.5043388671875,0.9296592691928147,-0.6868374780401587,0.5733744727283716
1761315712912320500,5.514320556640625,0.8743944780886173,-0.7978063284486532,0.6366770243376493
1761315712922302700,5.524302734375,0.8087690364897251,-0.9157134536877274,0.722384007717669
1761315712932285700,5.53428564453125,0.7312444827824831,-1.0496452465325594,0.8059173733856528
1761315712942267600,5.544267578125,0.6781038442254066,-1.1641701819874346,0.915459990383312
1761315712952249900,5.554249755859375,0.6501788954675197,-1.2523648905299603,1.0463039732806383
1761315712962232600,5.564232666015625,0.6152531280368566,-1.3446100435070694,1.1453464582476764
1761315712972214800,5.57421484375,0.56781976121068,-1.4618537364013493,1.2076461164247243
1761315712982196500,5.584196533203125,0.5277899486392736,-1.5881884982459247,1.308134416285902
1761315712992179700,5.5941796875,0.43633857638835905,-1.678893582174182,1.4299932017602026
1761315713002161700,5.60416162109375,0.23969606034755706,-1.7679330709777772,1.4919164278402923
1761315713012143600,5.6141435546875,-0.020946341916918753,-1.8230508548267184,1.490785085722804
1761315713022126600,5.624126708984375,-0.32777415677309035,-1.7819671492882072,1.4179266241304576
1761315713032108800,5.63410888671875,-0.7319295424371958,-1.7385731209807096,1.3440614697135984
1761315713042090800,5.6440908203125,-1.2018325347751377,-1.7148554146543145,1.3368065301492809
1761315713052073700,5.65407373046875,-1.7253437831819056,-1.5964838867738842,1.382909963545948
1761315713062055700,5.6640556640625,-2.2580308562129736,-1.4307552721738814,1.4049999225400387
1761315713072037600,5.67403759765625,-2.772696534863114,-1.394872204018384,1.6060514871947467
1761315713082020900,5.684020751953125,-3.1119074469298122,-1.5482354041725397,1.9825434976465999
1761315713092002600,5.69400244140625,-3.247883605083823,-1.643496543969959,2.29239986654371
1761315713101984800,5.70398486328125,-3.1700767273038624,-1.7031534325532613,2.446628597486019
1761315713111967500,5.713967529296875,-2.9923639526605603,-1.7428579586930573,2.4417332266598937
1761315713121949700,5.72394970703125,-2.7322704164505005,-1.7072377792574465,2.342938213647902
1761315713131932000,5.733931884765625,-2.5997780087590217,-1.5589811084620653,2.1443204520113763
1761315713141914600,5.74391455078125,-2.6950638446062802,-1.356616269251704,1.7774246835529803
1761315713151896300,5.753896240234375,-3.0206279241144656,-1.0378108702234923,1.3417530466407537
1761315713161878300,5.763878173828125,-3.389914825493097,-0.6447362660221755,0.9845886908628045
1761315713171861200,5.773861328125,-3.6725036866277456,-0.27375907346904277,0.8585652599897236
1761315713181843200,5.78384326171875,-3.6935260163903236,0.022821342008560893,0.8874020628955215
1761315713191825200,5.7938251953125,-3.56029594207406,0.2776936364389956,0.9891270649448036
1761315713201808100,5.80380810546875,-3.2212463580489157,0.5731812882438302,1.102112223611772
1761315713211790300,5.813790283203125,-2.7051585376411675,0.8771315018370747,1.1812575834538788
1761315713221772300,5.823772216796875,-2.055855840486288,1.149539160697162,1.2564048135705292
1761315713231755300,5.83375537109375,-1.358328918388486,1.313167295886576,1.3128408404111862
1761315713241737500,5.843737548828125,-0.6762427265286445,1.3553319285295904,1.3199958267323673
1761315713251719200,5.85371923828125,-0.04066577238738536,1.310265729226172,1.2817458833150566
1761315713261702400,5.863702392578125,0.5058429052472114,1.2424071217477322,1.1768252270296216
1761315713271684000,5.87368408203125,0.9502098897904158,1.2234537072136997,1.0497530177559704
1761315713281666300,5.883666259765625,1.290720194017887,1.2126488200828431,0.9375706268392503
1761315713291649300,5.893649169921875,1.5091297207087278,1.182658170966804,0.8541711897492408
1761315713301631200,5.90363134765625,1.5850246273875235,1.1527318192586302,0.8143608651474118
1761315713311613400,5.913613525390625,1.5640315237194298,1.1461156159892678,0.7387833538547158
1761315713321596200,5.92359619140625,1.3512708165705203,1.1814637004852295,0.589870374575071
1761315713331578400,5.933578369140625,1.072604097315669,1.290418288461864,0.44501244283989067
1761315713341560300,5.943560302734375,0.7167664600968361,1.4095534941911696,0.2764207852252759
1761315713351543300,5.953543212890625,0.37223815239965913,1.5374986138418316,0.18210196777926757
1761315713361525200,5.963525146484375,0.027247487887740132,1.6576847899287939,0.1711092847250402
1761315713371507200,5.973507080078125,-0.23213176257312296,1.7640464388027786,0.23753566744327545
1761315713381490200,5.983490234375,-0.4507534707099199,1.8779890443250535,0.3672597063999623
1761315713391472400,5.993472412109375,-0.6057628306359052,2.0496257139250633,0.5663559722684324
1761315713401454300,6.003454345703125,-0.6734089644074439,2.2336422648876906,0.741060724202171
1761315713411437300,6.013437255859375,-0.6634592328011989,2.3814886013165113,0.894126402714476
1761315713421419300,6.023419189453125,-0.5278928244918585,2.4397940752908585,0.9791755797728896
1761315713431401200,6.033401123046875,-0.35654198609590526,2.4199606630519033,1.011328959880769
1761315713441384200,6.04338427734375,-0.1761807427704334,2.357575810809433,0.9956809435676782
1761315713451366100,6.0533662109375,-0.007683540239930152,2.302700311283767,0.9482765105750411
1761315713461348400,6.063348388671875,0.19029636188447474,2.260044241861999,0.8326099308043717
1761315713471331300,6.073331298828125,0.3773024500519037,2.1623335169553757,0.7028921023927629
1761315713481313300,6.083313232421875,0.5697282251805067,1.9912489282801746,0.6059407444860786
1761315713491295200,6.093295166015625,0.7602309232920408,1.7986863750293849,0.5277102344665676
1761315713501278200,6.1032783203125,0.9203566033184528,1.635539009094238,0.4391724115747958
1761315713511260200,6.11326025390625,1.0098124178379773,1.533661519896984,0.34002098634056743
1761315713521242000,6.1232421875,1.0821791503906248,1.483030526073277,0.3445638904672116
1761315713531225000,6.13322509765625,1.1349310818910598,1.4324188214719296,0.3690387718364596
1761315713541207300,6.143207275390625,1.159084695416689,1.3573559817031025,0.35272593493908644
1761315713551190000,6.15318994140625,1.1204179878920315,1.2161322782844304,0.3259497908901423
1761315713561172200,6.163172119140625,1.087455044966936,1.031950599887967,0.3023441849024035
1761315713571154400,6.173154541015625,1.0404553933829068,0.874793998800218,0.2833201345512643
1761315713581137200,6.18313720703125,0.9703063368797301,0.7610524688079953,0.26700536142513154
1761315713591119400,6.193119384765625,0.8663052796572447,0.7119032379746436,0.27102424167767164
1761315713601101000,6.20310107421875,0.7477016965866088,0.6521484419748187,0.2723633447943255
1761315713611084300,6.213084228515625,0.603896452242136,0.5931085162460804,0.22199472823385147
1761315713621066200,6.223066162109375,0.4776227729350328,0.5202405561730266,0.1341211048718542
1761315713631048200,6.233048095703125,0.36625440181493757,0.39819326238930225,0.02703501418083906
1761315713641031200,6.24303125,0.3450023549497127,0.27609949911534787,-0.08129954220131039
1761315713651013400,6.253013427734375,0.3554875086069107,0.15959259606301784,-0.16006090769451112
1761315713660995300,6.262995361328125,0.38194530742168425,0.015837620601058006,-0.24128241622354835
1761315713670978300,6.272978271484375,0.3682832772940397,-0.15236936681121588,-0.3335809433557093
1761315713680960300,6.282960205078125,0.2630313432276249,-0.2854237922996282,-0.42883645712994034
1761315713690942200,6.292942138671875,0.09633680620491504,-0.3819929459556937,-0.47536790668033063
1761315713700925400,6.302925537109375,-0.1166951191008091,-0.4551069897443056,-0.48275388874579217
1761315713710907100,6.3129072265625,-0.3340758872658014,-0.5118728330612182,-0.5037246709842235
1761315713720889300,6.322889404296875,-0.5231874232798814,-0.518439936491847,-0.5285690797856077
1761315713730871300,6.332871337890625,-0.7003560080438852,-0.49953825214505193,-0.5387366919262334
1761315713740854300,6.342854248046875,-0.8665291515409946,-0.45817163801193234,-0.527713522402197
1761315713750836500,6.35283642578125,-0.9686661684572696,-0.3942337111085653,-0.5001022061707452
1761315713760819200,6.362819091796875,-1.0747644902199507,-0.3468216793313622,-0.44291313247308134
1761315713770801400,6.372801513671875,-1.1439274582952261,-0.3073869100436568,-0.33723559340573844
1761315713780783000,6.382783203125,-1.1958090367019176,-0.22314853791147468,-0.16950864459536968
1761315713790766300,6.392766357421875,-1.2427753705382347,-0.10005202733576297,0.044587841201946136
1761315713800748300,6.402748291015625,-1.238235389021039,-0.10560936920195817,0.32032544820234177
1761315713810730200,6.412730224609375,-1.0771142682164907,-0.4185644347667694,0.7119345098957419
1761315713820712400,6.42271240234375,-0.7448714415967465,-0.8299199610680341,0.9293878318402916
1761315713830695200,6.432695068359375,-0.43388533801734447,-1.0767749532595277,0.854185802796483
1761315713840677400,6.442677490234375,-0.2631961784005165,-1.1370426672175526,0.6123526938876137
1761315713850660400,6.452660400390625,-0.31555355762541293,-1.1157631478235124,0.2711365064131096
1761315713860642300,6.462642333984375,-0.6881465148121119,-1.044839892077446,-0.09151738669183104
1761315713870624300,6.472624267578125,-1.2863789499431848,-0.8409478432998061,-0.3963246555058285
1761315713880607500,6.482607421875,-1.87860191552639,-0.4601879462704062,-0.5670696369631215
1761315713890589200,6.492589111328125,-2.323659804943204,-0.08332301085293292,-0.5915783110041171
1761315713900571400,6.5025712890625,-2.5071669450789686,0.2732470322936773,-0.42094647106509653
1761315713910554000,6.51255419921875,-2.396312953221798,0.5401677841752768,-0.03266027018409222
1761315713920536300,6.522536376953125,-2.054813637956977,0.6505278550356626,0.39024778327755627
1761315713930518300,6.532518310546875,-1.590323902839422,0.6246607155904174,0.6723863433614373
1761315713940501200,6.542501220703125,-1.0836889704316854,0.502891361965239,0.7098137183494866
1761315713950483200,6.552483154296875,-0.5631377408742905,0.3766919169381261,0.5830087817098945
1761315713960465200,6.562465087890625,-0.08000468008518219,0.28764146834909915,0.3993228874737397
1761315713970448100,6.5724482421875,0.29904782850444317,0.2197042426764965,0.22340470462962983
1761315713980430300,6.582430419921875,0.5722814167946577,0.2198313761875033,0.12522859070096165
1761315713990412300,6.592412353515625,0.6930933235645294,0.25817250501960515,0.08572901254873723
1761315714000395300,6.602395263671875,0.7662813093721866,0.32714491895884273,0.0745716587183997
1761315714010377200,6.612377197265625,0.822249280309677,0.3874760535418987,0.09539897736553102
1761315714020359200,6.622359130859375,0.8319640341162681,0.398152638117969,0.1362479243000969
1761315714030342400,6.63234228515625,0.8061579772084951,0.3409311599880457,0.13491419147830455
1761315714040324000,6.642323974609375,0.7439099030882119,0.3115171417161822,0.05999941841065883
1761315714050306300,6.652306396484375,0.6897703166216611,0.27007249391078947,-0.07802216449845582
1761315714060289000,6.6622890625,0.6677379330337048,0.21750468680560586,-0.20391221478283403
1761315714070271200,6.672271240234375,0.6544564266562461,0.15922200918495655,-0.32884693710375573
1761315714080253400,6.68225341796875,0.6601508389055728,0.08424129474163054,-0.4822610637275502
1761315714090236200,6.692236083984375,0.6273334419310093,0.004304711456596851,-0.6781641230452805
1761315714100218400,6.70221826171875,0.561392943033576,-0.048395197595655914,-0.8946003038365393
1761315714110200000,6.712199951171875,0.33764673148989677,-0.03415127592682838,-1.0296578127756715
1761315714120183300,6.722183349609375,-0.010315057787299155,0.09958616338968276,-1.0625803506251423
1761315714130165200,6.732165283203125,-0.36400691514909267,0.36901539096087216,-0.9485757127173244
1761315714140147200,6.742147216796875,-0.6748293525993824,0.688069650183618,-0.6934745049018413
1761315714150130700,6.752130615234375,-0.884637639683485,0.9501324406400322,-0.37816556968726217
1761315714160112600,6.762112548828125,-0.9433633848965167,1.1374684914141893,-0.05752521031685173
1761315714170094800,6.7720947265625,-0.8217243796527385,1.255333531077206,0.24916231928579508
1761315714180077600,6.78207763671875,-0.49085634851753707,1.3210834758386014,0.5305643452560529
1761315714190059800,6.792059814453125,-0.051173137876391404,1.2850640679523349,0.7142343112707138
1761315714200041500,6.80204150390625,0.32613691096007824,1.091645482394099,0.7626449986964464
1761315714210024700,6.812024658203125,0.6753805567413568,0.8633324013262986,0.7145292025640606
1761315714220006700,6.822006591796875,1.008529976812005,0.6343167249470949,0.5855810068180785
1761315714229988600,6.831988525390625,1.2856781081974507,0.4325742554187774,0.45611017543748017
1761315714239971600,6.8419716796875,1.5126532186597585,0.27190175516456366,0.3884813581269234
1761315714249953800,6.851953857421875,1.7171715826421976,0.1568865519747138,0.35291838877126575
1761315714259935700,6.861935791015625,1.8091291508495806,0.055880292654037475,0.33381639607939867
1761315714269918700,6.871918701171875,1.835705023086071,-0.03493307395428419,0.31042251487988975
1761315714279900700,6.881900634765625,1.7611165228307246,-0.1383566235497594,0.26220819027647374
1761315714289882600,6.891882568359375,1.6409639567524195,-0.21751199332922697,0.2397732903022319
1761315714299865600,6.901865478515625,1.5038210929065943,-0.23667086730748413,0.2545324314842001
1761315714309847600,6.91184765625,1.3152473170310257,-0.25083003330230713,0.26590426831543446
1761315714319829800,6.921829833984375,1.1181395215660332,-0.26084932301342484,0.28784963120706375
1761315714329812500,6.9318125,0.9269003258734941,-0.24704116241335866,0.3139188325630501
1761315714339794700,6.941794677734375,0.7553589333415031,-0.22519378000348805,0.3041991103203967
1761315714349776600,6.951776611328125,0.5900865380764008,-0.1978165282562375,0.28303558198884127
1761315714359759600,6.961759521484375,0.4497662132382393,-0.20071195743679998,0.32137729534283277
1761315714369741600,6.971741455078125,0.3376397172272205,-0.2025678144365549,0.38467082339543845
1761315714379723500,6.9817236328125,0.23499884244203567,-0.20098697498589754,0.47493751590643074
1761315714389706500,6.99170654296875,0.1880237407773733,-0.19073299973607064,0.5647559897258877
1761315714399688700,7.001688720703125,0.17552140207886696,-0.20565584357976913,0.6236737503796815
1761315714409670700,7.011670654296875,0.2492348730653524,-0.2776388375118375,0.7053923947758972
1761315714419653600,7.021653564453125,0.37452830916345115,-0.4126291994988918,0.733217828682065
1761315714429635600,7.031635498046875,0.5079039294302463,-0.5642797505162656,0.7357846104301512
1761315714439617500,7.041617431640625,0.619646394559741,-0.7031907930783927,0.8223219071544706
1761315714449600800,7.051600830078125,0.6504360850989818,-0.8563233993470668,0.9065490272402763
1761315714459582500,7.06158251953125,0.6530155801981687,-0.942501215109229,0.9300487069018185
1761315714469564700,7.071564697265625,0.591863484621048,-1.0560555519662798,0.9698295131482183
1761315714479547600,7.081547607421875,0.4492646934568882,-1.223376842585206,0.9357548095889389
1761315714489529600,7.091529541015625,0.24827216551303863,-1.4164239644825458,0.853274313974753
1761315714499511800,7.10151171875,0.0034083471387624737,-1.5789776023082434,0.8010444335870445
1761315714509494500,7.11149462890625,-0.16992811211645603,-1.6672637885265051,0.7679729887861758
1761315714519476700,7.121476806640625,-0.2286626251578331,-1.660966880339384,0.7384126208461821
1761315714529458400,7.13145849609375,-0.2336117719978094,-1.631100734385848,0.7290736415494233
1761315714539441700,7.141441650390625,-0.24197569571733474,-1.6213962097123265,0.7217682139068842
1761315714549423600,7.151423583984375,-0.2787058822214603,-1.6324476189501582,0.7308828098632395
1761315714559405600,7.161405517578125,-0.39532501347661014,-1.6042326012045145,0.7418516553841531
1761315714569388500,7.171388427734375,-0.6258592777252197,-1.5713693192616105,0.7265091248236596
1761315714579370800,7.181370849609375,-0.8743868793040513,-1.4679472309708594,0.6722388246495277
1761315714589352700,7.191352783203125,-1.2367606402933597,-1.3528722604177892,0.5176092943539843
1761315714599335700,7.201335693359375,-1.6048311516195535,-1.249201604193449,0.36998259202521294
1761315714609317600,7.211317626953125,-1.9365525847136973,-1.1731092752464114,0.3643108299991116
1761315714619299600,7.221299560546875,-2.101535641643405,-1.2919639104686678,0.6581110767062753
1761315714629282800,7.23128271484375,-2.052142372921109,-1.518358298433572,1.0676903140500187
1761315714639264500,7.241264404296875,-1.7930583060145378,-1.5797442027665674,1.2581246231004595
1761315714649246700,7.251246826171875,-1.5302882440716028,-1.5668663087539374,1.235798955654353
1761315714659229400,7.2612294921875,-1.3792325902074574,-1.5528974046342074,1.1342273175358772
1761315714669211600,7.271211669921875,-1.3571885161817072,-1.4678941856093703,0.9883809227526187
1761315714679193900,7.28119384765625,-1.5320827262729406,-1.2377208636276422,0.6879096373163164
1761315714689176600,7.291176513671875,-1.9853104781419038,-0.936292715857923,0.29079145681262014
1761315714699158800,7.30115869140625,-2.4621821404486894,-0.6395135629378259,-0.04307659638877958
1761315714709140500,7.311140380859375,-2.703193959569931,-0.388290584795177,-0.22342129043824968
1761315714719123700,7.321123779296875,-2.8385037627696987,-0.1534415260873735,-0.21505334813073276
1761315714729105700,7.331105712890625,-2.738548181545734,0.15317849123701452,-0.11812325220778584
1761315714739087600,7.341087646484375,-2.451962944251299,0.5449769380226731,0.02412760230153799
1761315714749070600,7.351070556640625,-2.072403655183315,0.9179805218368768,0.19449439809620378
1761315714759052500,7.361052490234375,-1.668794212964177,1.174092294934392,0.37889198426567017
1761315714769034800,7.37103466796875,-1.260335577148199,1.356978380562365,0.562678379734233
1761315714779017700,7.381017822265625,-0.8270318384110927,1.4888430117443203,0.6827862298879772
1761315714788999700,7.390999755859375,-0.3923661636710167,1.5465464281722903,0.7353408852506429
1761315714798981600,7.400981689453125,-0.05388882657587528,1.5181009626716375,0.7323197107985615
1761315714808964600,7.410964599609375,0.27399405126869675,1.457714883030951,0.6723031220573932
1761315714818946600,7.420946533203125,0.5509773474812507,1.4174147290855645,0.6054253423098475
1761315714828928800,7.4309287109375,0.7619505866914987,1.3576762996986507,0.569831612489745
1761315714838911500,7.440911376953125,0.927191417774558,1.3138900572031735,0.46726994042061265
1761315714848893700,7.450893798828125,1.028000400957465,1.2919742857322096,0.3958349357601255
1761315714858875400,7.46087548828125,1.0302344436198472,1.2703595430344343,0.38817492252625524
1761315714868858600,7.470858642578125,1.006310547196865,1.2686819652110337,0.4183345715336501
1761315714878840600,7.480840576171875,0.9910533568322658,1.2975731286525725,0.48122854234203694
1761315714888822500,7.490822509765625,0.9797370130479335,1.3629177074834704,0.503968489677459
1761315714898805500,7.500805419921875,0.9994757327407597,1.4171204223141074,0.5029460147619247
1761315714908787700,7.51078759765625,0.9944885919779538,1.4435861121743916,0.5023786632027477
1761315714918769700,7.520769775390625,0.836764712396264,1.4465680505946277,0.5130401963401585
1761315714928752600,7.530752685546875,0.5818132152497768,1.5155007170453667,0.5067784325316548
1761315714938734600,7.540734619140625,0.32519816880524155,1.6558187037959693,0.4180580926798284
1761315714948716500,7.550716552734375,0.10189560937583446,1.770199992996454,0.3351470966938883
1761315714958699800,7.56069970703125,-0.13032558504641056,1.8431141302987932,0.2820578960631043
1761315714968681500,7.570681396484375,-0.30465923864543437,1.8762804868414997,0.21017346713468432
1761315714978663700,7.58066357421875,-0.42522447717785833,1.8567878508642315,0.10921733056604861
1761315714988646700,7.590646728515625,-0.45749067001044746,1.7885551493763923,-0.0007616320222616196
1761315714998628600,7.600628662109375,-0.3552151214063167,1.6562489119067787,-0.09393025651983916
1761315715008610800,7.61061083984375,-0.140854577845335,1.4907278025776147,-0.15659662911742925
1761315715018593500,7.620593505859375,0.18358488154709338,1.3031024134680629,-0.18514555499255655
1761315715028575700,7.63057568359375,0.5675625715792179,1.1479375707194208,-0.15147826319038868
1761315715038557400,7.640557373046875,0.9631792614787816,1.006321653112769,-0.09499985851272941
1761315715048540700,7.650540771484375,1.2528268089532852,0.8827586940690875,-0.02180989994369447
1761315715058522600,7.660522705078125,1.4118074105978011,0.7488266089633107,0.02701725932843983
1761315715068504600,7.670504638671875,1.495512698766589,0.6564309415996075,0.1324045832775533
1761315715078487600,7.680487548828125,1.431848912629485,0.6003504501983523,0.1693170310134068
1761315715088469800,7.6904697265625,1.2956564813762903,0.5728875659942627,0.15311269599180669
1761315715098451700,7.70045166015625,1.1673469123274087,0.5647270558923483,0.1317117787078023
1761315715108434700,7.7104345703125,1.0664730472147463,0.5083510886758565,0.12000442631188779
1761315715118416600,7.720416748046875,0.9723708681941032,0.4068611374914646,0.10761771334968506
1761315715128398600,7.730398681640625,0.8740636386990547,0.34292876354604956,0.10633673362843692
1761315715138381800,7.7403818359375,0.7933487645179033,0.3154597418621182,0.09974361897371709
1761315715148363500,7.750363525390625,0.7216483869194984,0.2572726335704327,0.09711860423237084
1761315715158345700,7.760345703125,0.6501636978983879,0.1477276784852147,0.10949903358425944
1761315715168328700,7.77032861328125,0.5830728599220514,0.027983693207800385,0.10753463817611336
1761315715178310700,7.780310546875,0.5168231489449739,-0.1081836036041379,0.08250347463097422
1761315715188292900,7.79029296875,0.43154608141481876,-0.23620324979573487,0.06324932358469813
1761315715198275600,7.800275634765625,0.3549509175121784,-0.33590134912729264,0.039595695470459755
1761315715208257800,7.8102578125,0.21455168221890925,-0.44910394993722436,0.00849924053698778
1761315715218239700,7.82023974609375,0.08076163593232631,-0.5965609947875141,-0.007615151178836822
1761315715228222700,7.83022265625,-0.0613993483364582,-0.7825880087897181,-0.0167098003257066
1761315715238204700,7.84020458984375,-0.1670622012913227,-0.9320411958932876,-0.08564546245113015
1761315715248186600,7.8501865234375,-0.29150048186481,-1.0896528472721576,-0.20863127919398247
1761315715258169600,7.860169677734375,-0.42477790245413777,-1.22322925080806,-0.32579686535075303
1761315715268151800,7.87015185546875,-0.5624339765191078,-1.3246817925915122,-0.4040420614827424
1761315715278133500,7.880133544921875,-0.722624538475275,-1.3776117110073565,-0.43952849500346924
1761315715288116700,7.89011669921875,-0.8722656493663787,-1.3626394750639796,-0.4333179499255493
1761315715298098700,7.9000986328125,-1.0174053571850061,-1.2968790089085698,-0.36850777023229747
1761315715308080600,7.91008056640625,-1.1483698246568441,-1.2155579855278134,-0.31593795383311807
1761315715318063600,7.920063720703125,-1.2784563402503728,-1.1746113503724336,-0.29337787484293804
1761315715328045600,7.930045654296875,-1.398439394980669,-1.1416855245873332,-0.2506345472628251
1761315715338027800,7.94002783203125,-1.494089972487092,-1.1044365749061107,-0.24876900911927222
1761315715348010800,7.9500107421875,-1.6012410181730985,-1.0616501571029424,-0.26654172596875575
1761315715357992700,7.95999267578125,-1.6605542078852653,-1.0237301762923599,-0.2399413038128987
1761315715367974700,7.969974609375,-1.6406377935379743,-1.1229892996847628,0.010336319771036506
1761315715377957600,7.97995751953125,-1.506523922124505,-1.4424527242302894,0.41955720866378393
1761315715387939600,7.989939697265625,-1.3537024276316165,-1.7134961089998482,0.6193911046244204
1761315715397921500,7.999921630859375,-1.3026426870018244,-1.7097268195942044,0.4909207189906388
1761315715407904500,8.009904541015626,-1.372254567888379,-1.5429367132425307,0.2580224838233553
1761315715417886700,8.01988671875,-1.5773872643768787,-1.3743775513917207,0.04998559032594785
1761315715427868700,8.02986865234375,-1.8294336877316235,-1.152670736721158,-0.10787871150658465
1761315715437851600,8.0398515625,-1.999053172290325,-0.8295432367101311,-0.2069392161875032
1761315715447833900,8.049833740234375,-2.036228179952502,-0.4853250178754329,-0.302998685022071
1761315715457815600,8.059815673828124,-1.944024528029561,-0.1814367636024952,-0.3052422626977786
1761315715467798800,8.069798828125,-1.6964719089627265,0.011000994224846362,-0.1941404518256895
1761315715477780500,8.079780517578126,-1.3253957860797643,0.09919862537682056,-0.06796924651237204
1761315715487762700,8.0897626953125,-0.9626496846467256,0.12865268339812755,-0.012718767061317339
1761315715497745700,8.09974560546875,-0.6803454856723546,0.14010697434842587,-0.01969186889339471
1761315715507727600,8.1097275390625,-0.504860908472538,0.15476327621042726,-0.05883078105666208
1761315715517709800,8.119709716796875,-0.39525954702496524,0.19499621013849971,-0.14393749242201448
1761315715527692500,8.129692626953124,-0.3265209418416023,0.2877025508865714,-0.18546528846621513
1761315715537674800,8.1396748046875,-0.310213950163126,0.43656946253478524,-0.18839261062238363
1761315715547656700,8.14965673828125,-0.32749066365659235,0.6578475303992629,-0.16985371343968436
1761315715557639700,8.1596396484375,-0.4046469685733318,0.9338198960036039,-0.1828512335103005
1761315715567621600,8.16962158203125,-0.47387364953458305,1.2413675495669245,-0.22234427232388407
1761315715577603600,8.179603515625,-0.4886398415118456,1.5100947663486004,-0.27922190545219927
1761315715587585800,8.189585693359374,-0.40230478936135766,1.6724296468570827,-0.31016813826002176
1761315715597568800,8.19956884765625,-0.2522258715748787,1.696862954106927,-0.34848113697618244
1761315715607550700,8.20955078125,-0.06750643303990364,1.5876760186791419,-0.48172480142638086
1761315715617533700,8.21953369140625,0.15524726033508776,1.4337228898078203,-0.7079395950406789
1761315715627515600,8.229515625,0.2979483428299427,1.2654302699387072,-0.9623632689207792
1761315715637497600,8.23949755859375,0.37020693883299827,1.1338842031866312,-1.207797142267972
1761315715647479800,8.249479736328125,0.4089893816918134,1.1109943259865045,-1.3324804836437105
1761315715657462500,8.259462646484375,0.4410667739540338,1.1573317142695188,-1.4050249108508228
1761315715667444700,8.26944482421875,0.5164525620669126,1.223749767550826,-1.4357175707563756
1761315715677426700,8.2794267578125,0.5762859762609005,1.238770811071992,-1.4353632043607532
1761315715687409700,8.28940966796875,0.667052873378992,1.2436635515496135,-1.416753634828329
1761315715697391900,8.299391845703125,0.7652981435537338,1.262649991570413,-1.346276223153621
1761315715707373600,8.30937353515625,0.8631991303354501,1.3522174497708677,-1.214005203127861
1761315715717356800,8.319356689453125,0.9230003958255052,1.4319558801352976,-1.02535222453624
1761315715727338800,8.3293388671875,0.9071505002647637,1.4608432441845536,-0.8375643383413552
1761315715737320700,8.33932080078125,0.7958020028889179,1.4388754502654075,-0.6512699786398559
1761315715747303700,8.3493037109375,0.7021797163397073,1.4300330953791738,-0.4961883571952581
1761315715757285600,8.35928564453125,0.6546066487818956,1.386757140493393,-0.40601434793639923
1761315715767267600,8.369267578125,0.6382084716886282,1.3417913328245281,-0.3619821313232183
1761315715777250800,8.379250732421875,0.7093003619998693,1.2571645458966494,-0.3019029987398535
1761315715787232500,8.389232421875,0.8832552454143762,1.1315443620622156,-0.20500055800881237
1761315715797214700,8.399214599609374,1.0941577574759722,1.0123431053593754,-0.09702528165942058
1761315715807197700,8.40919775390625,1.2814186971873045,0.890863090069592,-0.005256934147514402
1761315715817179600,8.4191796875,1.42335405600667,0.7682312743961811,0.10270197558896615
1761315715827161900,8.429161865234375,1.535500425761938,0.6361062387123704,0.21298960226764901
1761315715837144600,8.43914453125,1.6488357130408287,0.5115417014107108,0.32891660480648277
1761315715847126800,8.449126708984375,1.7226362777888773,0.37085078969448804,0.38859705692846325
1761315715857108500,8.4591083984375,1.778490266957879,0.22491350175738334,0.3706644002769142
1761315715867091700,8.469091796875,1.7837860352784394,0.11865882038921118,0.31238603350520133
1761315715877073700,8.47907373046875,1.714680934870243,0.05834229885339737,0.21972789754671976
1761315715887055600,8.4890556640625,1.527175080487132,-0.025579554675519464,0.09782112647853791
1761315715897038600,8.49903857421875,1.3191905016988514,-0.12302402986139058,-0.005904237341415136
1761315715907020500,8.5090205078125,1.1080454130530357,-0.21895926952809094,-0.06450304997283965
1761315715917002800,8.519002685546875,0.8677747676879167,-0.2812622887060046,-0.07960165224224329
1761315715926985700,8.52898583984375,0.6325742651939392,-0.30851795990020037,-0.10112727361815049
1761315715936967700,8.5389677734375,0.4224024054944515,-0.35144086356461046,-0.08315231219483539
1761315715946949600,8.54894970703125,0.2743015097826719,-0.3821440448641777,-0.048956822666944934
1761315715956932900,8.558932861328126,0.22121932341456413,-0.44836394522488116,0.007645427586091682
1761315715966914600,8.56891455078125,0.18029226974248885,-0.5400234072685242,0.04639978599473834
1761315715976896800,8.578896728515625,0.20881284630596636,-0.6125076287209987,0.06155988636014517
1761315715986879500,8.58887939453125,0.2522030752211809,-0.6875541018769145,0.09497294310634023
1761315715996861700,8.59886181640625,0.2765975117653608,-0.777647922039032,0.1135906046136748
1761315716006843600,8.60884375,0.302731485453248,-0.8789683618754148,0.10610246821483596
1761315716016826600,8.61882666015625,0.2687736862719059,-0.9996354533471167,0.011724755621864459
1761315716026808800,8.628808837890626,0.2354056696772575,-1.0982546714007855,-0.10812301425701007
1761315716036790500,8.63879052734375,0.18313363064825533,-1.1975224164910614,-0.17767879930846392
1761315716046773800,8.648773681640625,0.16396598884165287,-1.2959110406592487,-0.16515892495326698
1761315716056755700,8.658755615234375,0.23139058881700036,-1.3671804794944822,-0.13847894388833082
1761315716066737700,8.668737548828124,0.3149889094799757,-1.4348846270635722,-0.13926931794788688
1761315716076720600,8.678720703125,0.4410463156878948,-1.48489895029366,-0.14375110300444066
1761315716086702600,8.68870263671875,0.5195861839175224,-1.5389318615153431,-0.10994754453673958
1761315716096684800,8.698684814453125,0.5868459487199783,-1.6005575659535825,-0.07301107660448178
1761315716106667800,8.708667724609375,0.6300333485394716,-1.6848374391399323,-0.03468152861231938
1761315716116649700,8.718649658203125,0.5835720416158438,-1.7796219013363122,-0.008359704202134161
1761315716126631700,8.728631591796875,0.4939110599130392,-1.8363165791131555,-0.006201192727684974
1761315716136614700,8.73861474609375,0.3917939167410135,-1.8399986286267638,-0.03472019838858396
1761315716146596600,8.7485966796875,0.2760796253710985,-1.8213434663869439,-0.047239707417599856
1761315716156578600,8.75857861328125,0.11466916623115539,-1.814802666441351,-0.02673135505914688
1761315716166561300,8.768561279296875,-0.07164075636565685,-1.7682433059707283,0.044660248851031065
1761315716176543500,8.77854345703125,-0.22982757728397846,-1.6663045881055294,0.1303441801490262
1761315716186525400,8.788525390625,-0.38055122271478176,-1.536393867470324,0.23676588864717632
1761315716196508400,8.79850830078125,-0.57934536383152,-1.390102651529014,0.3444783310756087
1761315716206490600,8.80849072265625,-0.7834715136259793,-1.2705489281266926,0.38187304590307175
1761315716216472300,8.818472412109376,-1.017450365370512,-1.171752599940449,0.3405621074799448
1761315716226455600,8.82845556640625,-1.3226497022420167,-1.1786704165048896,0.3257061183273792
1761315716236437200,8.838437255859375,-1.6197043111026286,-1.4120103858239947,0.5514093822229653
1761315716246419500,8.84841943359375,-1.6786872459471225,-1.7389802404768764,0.9023525984637438
1761315716256402400,8.85840234375,-1.4916507626414297,-1.8778589882045984,0.9970176720641553
1761315716266384400,8.86838427734375,-1.234063071772456,-1.8692947196073828,0.8519364164344966
1761315716276366600,8.87836669921875,-0.9511842877805232,-1.8450239094428718,0.553472744493559
1761315716286349600,8.888349609375,-0.8338970480054616,-1.8364178475305437,0.2697378551289439
1761315716296331500,8.89833154296875,-0.8616922329038381,-1.7026977977402507,-0.17369038725942373
1761315716306313500,8.9083134765625,-1.1216168422877788,-1.4804276500985025,-0.5485572807274759
1761315716316296400,8.91829638671875,-1.6914888598531483,-1.1898217789858578,-0.9527717761676758
1761315716326278400,8.9282783203125,-2.331636190649867,-0.6975824516773224,-1.1764969449233262
1761315716336260400,8.93826025390625,-2.6670103010326622,-0.03622764380946755,-1.278190236660093
1761315716346243300,8.948243408203124,-2.6970155631959436,0.5475516108162701,-1.1422981035277247
1761315716356225500,8.9582255859375,-2.6377894672453404,0.9747107093185186,-0.9503660302001983
1761315716366207500,8.96820751953125,-2.479006433999538,1.3041142208591103,-0.7502141908641904
1761315716376190500,8.9781904296875,-2.2642706273853777,1.4981217122212052,-0.549951584630087
1761315716386172400,8.98817236328125,-2.0127391678154467,1.5933714538417756,-0.34503406526222824
1761315716396154400,8.998154296875,-1.7041384980678558,1.6324486418634652,-0.15990414623022078
1761315716406137300,9.008137451171875,-1.383621765077114,1.650476904376596,-0.012478227170556784
1761315716416119300,9.018119384765624,-1.071813239198923,1.5984607398048043,0.0876521260984242
1761315716426101500,9.0281015625,-0.6766536454170942,1.501352364705503,0.11398542175069451
1761315716436084500,9.03808447265625,-0.2655705063164234,1.4473660691045225,0.04581497184410691
1761315716446066400,9.04806640625,0.10705810670554637,1.395963506386429,-0.052846185655146836
1761315716456048400,9.05804833984375,0.3923345994889736,1.2819995658151804,-0.11896847086027264
1761315716466031400,9.06803125,0.52807636436522,1.1752858886331319,-0.16517156523913143
1761315716476013300,9.078013427734374,0.61742871851027,1.103060464247316,-0.2560769940450787
1761315716485995500,9.08799560546875,0.6693798550218343,1.0436325621142983,-0.3140405227139592
1761315716495978200,9.097978271484376,0.7641273462086916,0.9852852948248386,-0.2971912408523261
1761315716505960400,9.10796044921875,0.8304664890348911,0.990359237088263,-0.2455548693783581
1761315716515942400,9.1179423828125,0.6193962191909551,1.01480540381968,-0.24987448614314198
1761315716525925400,9.12792529296875,0.837359755679965,0.9931246101483702,-0.1734809822924435
1761315716535907600,9.137907470703125,0.8201520157694816,1.0611872157663107,-0.1151883677996695
1761315716545889300,9.14788916015625,0.5640186153620481,1.2647533935904502,-0.3261211288690567
1761315716555872500,9.15787255859375,0.12091302905678748,1.42462246850729,-0.4267771865125745
1761315716565854200,9.167854248046876,-0.26466566643118855,1.4450535543784497,-0.3567353897761553
