time,seconds_elapsed,z,y,x
1761315696984993000,0.073992919921875,1.3346936702728271,0.005987093318253756,-0.3302385210990906
1761315696994976000,0.08397607421875,1.3308424949645996,0.061279453337192535,-0.3419870138168335
1761315697004958200,0.093958251953125,1.3142735958099365,0.10182155668735504,-0.33694911003112793
1761315697014940000,0.10393994140625,1.2922254800796509,0.12190989404916763,-0.3138142228126526
1761315697024923100,0.113923095703125,1.2726619243621826,0.1289590299129486,-0.2764527499675751
1761315697034904800,0.12390478515625,1.2623316049575806,0.12704917788505554,-0.22364628314971924
1761315697044887000,0.133886962890625,1.2620465755462646,0.09261903911828995,-0.17216286063194275
1761315697054870000,0.1438701171875,1.280579924583435,0.06087326258420944,-0.12385515868663788
1761315697064852000,0.15385205078125,1.3126769065856934,0.03782866150140762,-0.06686937063932419
1761315697074834200,0.163834228515625,1.3460474014282227,0.03561272472143173,-0.012448403052985668
1761315697084817200,0.173817138671875,1.365700125694275,0.037867091596126556,0.031062588095664978
1761315697094799000,0.183799072265625,1.3776483535766602,0.04097380116581917,0.06053860858082771
1761315697104781000,0.193781005859375,1.3869351148605347,0.03809119388461113,0.07351565361022949
1761315697114764000,0.203763916015625,1.3771402835845947,0.036191344261169434,0.05564246326684952
1761315697124746000,0.21374609375,1.355459213256836,0.03976237773895264,0.023596379905939102
1761315697134729500,0.2237294921875,1.3361388444900513,0.07737558335065842,-0.011998291127383709
1761315697144711400,0.23371142578125,1.3136388063430786,0.13043560087680817,-0.04878746345639229
1761315697154693400,0.243693359375,1.283815860748291,0.17115356028079987,-0.09277181327342987
1761315697164676400,0.25367626953125,1.259599208831787,0.19738249480724335,-0.1435002237558365
1761315697174658300,0.263658203125,1.234626293182373,0.19397318363189697,-0.18775318562984467
1761315697184640500,0.273640625,1.208033800125122,0.16816209256649017,-0.22157612442970276
1761315697194623500,0.28362353515625,1.1712005138397217,0.13703373074531555,-0.23634152114391327
1761315697204605400,0.29360546875,1.121031403541565,0.1158759742975235,-0.2347699999809265
1761315697214587400,0.30358740234375,1.0744268894195557,0.09017079323530197,-0.22766020894050598
1761315697224570600,0.313570556640625,1.0283920764923096,0.042041610926389694,-0.21362720429897308
1761315697234552300,0.32355224609375,0.9969698190689087,0.007493171375244856,-0.1925097405910492
1761315697244534500,0.333534423828125,0.9751103520393372,-0.009726028889417648,-0.17370863258838654
1761315697254517200,0.343517333984375,0.9578680396080017,-0.026406317949295044,-0.15931162238121033
1761315697264499500,0.35349951171875,0.936255693435669,-0.04309927672147751,-0.1531381458044052
1761315697274481400,0.3634814453125,0.9159851670265198,-0.03908015415072441,-0.13997173309326172
1761315697284464400,0.37346435546875,0.890871524810791,-0.006911566946655512,-0.11721742898225784
1761315697294446600,0.383446533203125,0.865551769733429,0.035194821655750275,-0.0986909568309784
1761315697304428300,0.39342822265625,0.8258877396583557,0.07502426207065582,-0.09676629304885864
1761315697314411500,0.40341162109375,0.7803377509117126,0.10194189101457596,-0.11343429237604141
1761315697324393500,0.4133935546875,0.726222574710846,0.13251124322414398,-0.13264553248882294
1761315697334376400,0.42337646484375,0.6740385293960571,0.16264426708221436,-0.15032736957073212
1761315697344358400,0.4333583984375,0.6304961442947388,0.17731988430023193,-0.16746588051319122
1761315697354340400,0.44334033203125,0.5956084728240967,0.17882509529590607,-0.18032361567020416
1761315697364323300,0.4533232421875,0.5649021863937378,0.17212459444999695,-0.1778002679347992
1761315697374305500,0.463305419921875,0.5555065870285034,0.1755896657705307,-0.16277757287025452
1761315697384287200,0.473287353515625,0.5492236614227295,0.19907821714878082,-0.1492958515882492
1761315697394270500,0.4832705078125,0.5543454885482788,0.21532092988491058,-0.13345129787921906
1761315697404252400,0.49325244140625,0.5540911555290222,0.2213178277015686,-0.11899246275424957
1761315697414234400,0.503234375,0.5486225485801697,0.21803060173988342,-0.10020933300256729
1761315697424217300,0.51321728515625,0.5333570241928101,0.20164337754249573,-0.09270507842302322
1761315697434199300,0.52319921875,0.5127117037773132,0.19747646152973175,-0.09674623608589172
1761315697444181500,0.533181396484375,0.4873643219470978,0.18180881440639496,-0.11347648501396179
1761315697454164500,0.54316455078125,0.4584049880504608,0.15487119555473328,-0.15530817210674286
1761315697464146400,0.553146484375,0.43178749084472656,0.11945727467536926,-0.21190592646598816
1761315697474128400,0.56312841796875,0.41270169615745544,0.08010520786046982,-0.2771042585372925
1761315697484111400,0.573111328125,0.3923679292201996,0.029201548546552658,-0.3440049886703491
1761315697494093300,0.58309326171875,0.3597385585308075,-0.04972847178578377,-0.3976217210292816
1761315697504075500,0.593075439453125,0.31948649883270264,-0.12005163729190826,-0.4394996464252472
1761315697514058200,0.603058349609375,0.28760331869125366,-0.1492329090833664,-0.45227357745170593
1761315697524040400,0.61304052734375,0.27281931042671204,-0.15488068759441376,-0.44664257764816284
1761315697534023400,0.6230234375,0.2672882378101349,-0.13370119035243988,-0.41152751445770264
1761315697544005400,0.63300537109375,0.263580322265625,-0.08460181206464767,-0.3503064811229706
1761315697553987600,0.642987548828125,0.246332049369812,-0.03719720244407654,-0.29020658135414124
1761315697563970300,0.65297021484375,0.22789710760116577,-0.021894408389925957,-0.23862622678279877
1761315697573952500,0.662952392578125,0.20425154268741608,-0.02895376831293106,-0.20801135897636414
1761315697583934200,0.672934326171875,0.19315095245838165,-0.059249889105558395,-0.18875350058078766
1761315697593917400,0.68291748046875,0.19152404367923737,-0.10131119191646576,-0.17688368260860443
1761315697603899400,0.6928994140625,0.19498375058174133,-0.1378857046365738,-0.1661764532327652
1761315697613881300,0.70288134765625,0.18202567100524902,-0.14522488415241241,-0.14717315137386322
1761315697623864300,0.7128642578125,0.16798681020736694,-0.12248601019382477,-0.1277616322040558
1761315697633846500,0.722846435546875,0.14842896163463593,-0.07972303777933121,-0.11727312207221985
1761315697643828500,0.732828369140625,0.13348250091075897,-0.04030132666230202,-0.1214795857667923
1761315697653811500,0.7428115234375,0.11623723059892654,-0.018403705209493637,-0.12454023957252502
1761315697663793400,0.75279345703125,0.1149144396185875,-0.0016508244443684816,-0.1208786591887474
1761315697673775400,0.762775390625,0.11553493142127991,0.024391116574406624,-0.09702058136463165
1761315697683758600,0.772758544921875,0.11150876432657242,0.06370150297880173,-0.060928888618946075
1761315697693740300,0.782740234375,0.10308851301670074,0.12022943049669266,-0.012195896357297897
1761315697703723500,0.7927236328125,0.0946660041809082,0.19173796474933624,0.043538469821214676
1761315697713705200,0.802705322265625,0.08455272018909454,0.2560451328754425,0.09604977071285248
1761315697723687400,0.8126875,0.07107126712799072,0.28604671359062195,0.13001146912574768
1761315697733670400,0.82267041015625,0.05691055953502655,0.27969861030578613,0.14633794128894806
1761315697743652400,0.83265234375,0.05514568090438843,0.2696230709552765,0.1506703644990921
1761315697753634600,0.842634521484375,0.05993048846721649,0.2566557228565216,0.14815688133239746
1761315697763617500,0.852617431640625,0.0608772411942482,0.22719931602478027,0.13950400054454803
1761315697773599500,0.862599609375,0.04902873933315277,0.1980224847793579,0.13172399997711182
1761315697783581400,0.87258154296875,0.02987661585211754,0.1680576652288437,0.12999826669692993
1761315697793564400,0.882564453125,0.0025777481496334076,0.12516100704669952,0.14016921818256378
1761315697803546400,0.89254638671875,-0.015790073201060295,0.09116841107606888,0.1553817242383957
1761315697813528300,0.9025283203125,-0.03355215862393379,0.08666946738958359,0.17871083319187164
1761315697823511300,0.91251123046875,-0.03285627439618111,0.14331382513046265,0.22437472641468048
1761315697833493500,0.922493408203125,-0.026471711695194244,0.272585928440094,0.296638548374176
1761315697843475500,0.932475341796875,0.0014997360995039344,0.38250255584716797,0.3788977265357971
1761315697853458400,0.94245849609375,0.032475993037223816,0.4017835259437561,0.4217905104160309
1761315697863440600,0.952440673828125,0.048662684857845306,0.3308350443840027,0.41706764698028564
1761315697873422300,0.96242236328125,0.05081408470869064,0.21171681582927704,0.37094756960868835
1761315697883405600,0.972405517578125,0.05083698779344559,0.06371110677719116,0.29462483525276184
1761315697893387300,0.98238720703125,0.04236365482211113,-0.08158132433891296,0.22021295130252838
1761315697903370500,0.99237060546875,0.01685350202023983,-0.16729089617729187,0.16591855883598328
1761315697913352400,1.0023525390625,-0.030593082308769226,-0.17365168035030365,0.14159560203552246
1761315697923334400,1.01233447265625,-0.09482692927122116,-0.11375664919614792,0.15199339389801025
1761315697933317400,1.0223173828125,-0.16258324682712555,0.0039703925140202045,0.18259550631046295
1761315697943299300,1.03229931640625,-0.21238702535629272,0.12426884472370148,0.21769650280475616
1761315697953281300,1.04228125,-0.2308509200811386,0.22519515454769135,0.23395434021949768
1761315697963264500,1.052264404296875,-0.21903899312019348,0.27489131689071655,0.21665523946285248
1761315697973246200,1.06224609375,-0.204923614859581,0.2606411874294281,0.15932275354862213
1761315697983228400,1.072228515625,-0.18682396411895752,0.2174796164035797,0.09180575609207153
1761315697993211400,1.08221142578125,-0.15942810475826263,0.1643546223640442,0.03142808750271797
1761315698003193300,1.092193359375,-0.12376518547534943,0.13475199043750763,0.005987443495541811
1761315698013175600,1.102175537109375,-0.07972993701696396,0.13399213552474976,0.02044791355729103
1761315698023158300,1.112158203125,-0.03098716400563717,0.1638147383928299,0.07236171513795853
1761315698033140500,1.122140380859375,0.02816619910299778,0.2202710062265396,0.159525066614151
1761315698043122200,1.1321220703125,0.09607095271348953,0.2910468876361847,0.2739515006542206
1761315698053105400,1.14210546875,0.16668787598609924,0.41236111521720886,0.4053325355052948
1761315698063087400,1.15208740234375,0.24555179476737976,0.5461687445640564,0.5316755175590515
1761315698073069300,1.1620693359375,0.311396986246109,0.6159245371818542,0.63197922706604
1761315698083052300,1.17205224609375,0.3855452537536621,0.582703709602356,0.693395733833313
1761315698093034500,1.182034423828125,0.45872166752815247,0.42999210953712463,0.7135074734687805
1761315698103016400,1.192016357421875,0.516046941280365,0.1608240306377411,0.6988643407821655
1761315698112999400,1.20199951171875,0.5570067167282104,-0.15142510831356049,0.6649422645568848
1761315698122981400,1.2119814453125,0.5756475329399109,-0.3873492479324341,0.6214887499809265
1761315698132963800,1.2219638671875,0.5859527587890625,-0.5237025618553162,0.578291654586792
1761315698142946000,1.231946044921875,0.585393488407135,-0.577366054058075,0.5295978784561157
1761315698152928000,1.241927978515625,0.5744541883468628,-0.5494848489761353,0.48157674074172974
1761315698162911000,1.251910888671875,0.5474122166633606,-0.47701144218444824,0.4253861606121063
1761315698172893000,1.261892822265625,0.5037590861320496,-0.37366369366645813,0.3746912181377411
1761315698182875000,1.271875,0.4501110315322876,-0.2591022253036499,0.3229111135005951
1761315698192857900,1.28185791015625,0.39656105637550354,-0.16481852531433105,0.27676263451576233
1761315698202839800,1.29183984375,0.36357593536376953,-0.10919468104839325,0.22847020626068115
1761315698212822000,1.301822021484375,0.3510051667690277,-0.09694273769855499,0.183906689286232
1761315698222805000,1.311804931640625,0.37394776940345764,-0.10760363936424255,0.1542835533618927
1761315698232787000,1.321786865234375,0.4048037528991699,-0.13995641469955444,0.14056389033794403
1761315698242769000,1.331768798828125,0.4468425512313843,-0.17529043555259705,0.1310899704694748
1761315698252752000,1.341751953125,0.4977682828903198,-0.17990203201770782,0.13631340861320496
1761315698262733800,1.35173388671875,0.5442915558815002,-0.15414926409721375,0.15647247433662415
1761315698272715800,1.3617158203125,0.5785319805145264,-0.09243068844079971,0.1924418956041336
1761315698282698800,1.37169873046875,0.5891923308372498,-0.011056472547352314,0.21971185505390167
1761315698292681000,1.381680908203125,0.5754544138908386,0.10105128586292267,0.22554723918437958
1761315698302663000,1.391662841796875,0.5567219853401184,0.21007338166236877,0.20756344497203827
1761315698312646000,1.40164599609375,0.5396847724914551,0.2933904826641083,0.1551685929298401
1761315698322628000,1.411628173828125,0.5294308066368103,0.3321479856967926,0.07390996068716049
1761315698332609800,1.42160986328125,0.5185613036155701,0.3354812264442444,-0.01369156502187252
1761315698342593000,1.431593017578125,0.5153338313102722,0.31237831711769104,-0.0922289788722992
1761315698352574700,1.44157470703125,0.5132434368133545,0.2556639313697815,-0.15368203818798065
1761315698362558000,1.451557861328125,0.50372713804245,0.17612622678279877,-0.19653336703777313
1761315698372540000,1.461539794921875,0.5062788724899292,0.08586239814758301,-0.22518886625766754
1761315698382521900,1.47152197265625,0.5050694942474365,0.012139974161982536,-0.24556124210357666
1761315698392504800,1.4815048828125,0.51792973279953,-0.044464051723480225,-0.2541133165359497
1761315698402486800,1.49148681640625,0.5401532649993896,-0.08726105093955994,-0.25189223885536194
1761315698412469000,1.501468994140625,0.5604122877120972,-0.1231682077050209,-0.24506132304668427
1761315698422452000,1.511451904296875,0.5755528807640076,-0.15133033692836761,-0.22969675064086914
1761315698432434000,1.521433837890625,0.5769222974777222,-0.15036053955554962,-0.2075556069612503
1761315698442415900,1.531415771484375,0.5605385303497314,-0.12153048813343048,-0.1804443597793579
1761315698452399000,1.541399169921875,0.5356498956680298,-0.08245322108268738,-0.1554984152317047
1761315698462380800,1.551380859375,0.4915764033794403,-0.034297943115234375,-0.14871428906917572
1761315698472363000,1.561363037109375,0.44881609082221985,0.00939984805881977,-0.16824005544185638
1761315698482345700,1.571345703125,0.4054446518421173,0.03670310601592064,-0.21463045477867126
1761315698492328000,1.581327880859375,0.3742285370826721,0.0036335024051368237,-0.2824861705303192
1761315698502310000,1.591309814453125,0.34905368089675903,-0.06480414420366287,-0.3385699391365051
1761315698512292900,1.60129296875,0.3307724893093109,-0.15310220420360565,-0.3623341917991638
1761315698522275000,1.611275146484375,0.3091215193271637,-0.26769402623176575,-0.3634146451950073
1761315698532256800,1.6212568359375,0.28309860825538635,-0.3837387263774872,-0.3557891547679901
1761315698542240000,1.631239990234375,0.26065322756767273,-0.4731346666812897,-0.33389049768447876
1761315698552222000,1.641221923828125,0.2354286015033722,-0.5187758803367615,-0.3006577491760254
1761315698562204000,1.651203857421875,0.19696269929409027,-0.5266758799552917,-0.2595593333244324
1761315698572187000,1.661186767578125,0.1528119444847107,-0.4908584654331207,-0.2034367024898529
1761315698582168800,1.6711689453125,0.10261615365743637,-0.43227559328079224,-0.13737352192401886
1761315698592151000,1.681151123046875,0.06476069986820221,-0.34997889399528503,-0.07318141311407089
1761315698602134000,1.691134033203125,0.05824553593993187,-0.2194744050502777,-0.008732380345463753
1761315698612116000,1.701115966796875,0.0959707498550415,-0.022540543228387833,0.06058087572455406
1761315698622099000,1.711098876953125,0.1615857183933258,0.1342940777540207,0.12741422653198242
1761315698632081000,1.721080810546875,0.22065359354019165,0.1420890837907791,0.15417146682739258
1761315698642062800,1.731062744140625,0.24019959568977356,0.023894526064395905,0.11340221017599106
1761315698652046000,1.741046142578125,0.22721639275550842,-0.12443187832832336,0.014188725501298904
1761315698662027800,1.75102783203125,0.1894596964120865,-0.2522447109222412,-0.1274469643831253
1761315698672010000,1.761010009765625,0.11596079170703888,-0.3614414632320404,-0.3036479353904724
1761315698681993000,1.770992919921875,0.015265877358615398,-0.4263001084327698,-0.47800296545028687
1761315698691975000,1.780974853515625,-0.10023468732833862,-0.3907545804977417,-0.6116760969161987
1761315698701956900,1.790956787109375,-0.20812547206878662,-0.2490861564874649,-0.6689311265945435
1761315698711939800,1.80093994140625,-0.29488271474838257,-0.0268019400537014,-0.6508544683456421
1761315698721922000,1.810922119140625,-0.32922816276550293,0.20772694051265717,-0.5660748481750488
1761315698731903700,1.82090380859375,-0.3192239999771118,0.4027805030345917,-0.4249451756477356
1761315698741887000,1.830886962890625,-0.27909308671951294,0.5334876775741577,-0.25606775283813477
1761315698751869000,1.840868896484375,-0.21985392272472382,0.6104443073272705,-0.088996022939682
1761315698761851000,1.850850830078125,-0.15976981818675995,0.6642265915870667,0.07202722132205963
1761315698771833900,1.860833740234375,-0.08848624676465988,0.695364773273468,0.2046157717704773
1761315698781816000,1.870816162109375,-0.012266311794519424,0.7259634137153625,0.31562939286231995
1761315698791797800,1.8807978515625,0.06337156146764755,0.7419570088386536,0.4000312089920044
1761315698801781000,1.890781005859375,0.12704826891422272,0.7206834554672241,0.46627146005630493
1761315698811762700,1.9007626953125,0.17720335721969604,0.6562895178794861,0.5111772418022156
1761315698821745000,1.910744873046875,0.22004641592502594,0.545349657535553,0.5340644717216492
1761315698831727900,1.920727783203125,0.24926160275936127,0.369008332490921,0.5384053587913513
1761315698841709800,1.930709716796875,0.2726116478443146,0.14726555347442627,0.5387776494026184
1761315698851692000,1.940692138671875,0.2978050410747528,-0.09048289060592651,0.549316942691803
1761315698861675000,1.950675048828125,0.3274151086807251,-0.29426583647727966,0.5792855024337769
1761315698871657000,1.960656982421875,0.3451450765132904,-0.456064909696579,0.6255881786346436
1761315698881639000,1.970638916015625,0.32333245873451233,-0.5856298208236694,0.6618868112564087
1761315698891622000,1.980621826171875,0.2546965777873993,-0.7101494073867798,0.6594589352607727
1761315698901603800,1.990603759765625,0.13659736514091492,-0.8544421195983887,0.6041799783706665
1761315698911587000,2.000587158203125,-0.02196330949664116,-0.9751236438751221,0.4990512430667877
1761315698921568800,2.01056884765625,-0.19341576099395752,-1.0098541975021362,0.3718661367893219
1761315698931551000,2.020551025390625,-0.35005509853363037,-0.9014537930488586,0.25645750761032104
1761315698941533700,2.03053369140625,-0.46364715695381165,-0.6434259414672852,0.170516237616539
1761315698951516000,2.040515869140625,-0.5208126902580261,-0.26806628704071045,0.10718197375535965
1761315698961498000,2.050498046875,-0.5262359380722046,0.12438830733299255,0.05899446830153465
1761315698971480800,2.060480712890625,-0.477303683757782,0.44890066981315613,0.0000828730408102274
1761315698981463000,2.070463134765625,-0.36918917298316956,0.6561654210090637,-0.05401977524161339
1761315698991444700,2.08044482421875,-0.25156307220458984,0.7894032597541809,-0.0854405090212822
1761315699001428000,2.090427978515625,-0.15429189801216125,0.8502969741821289,-0.08897425979375839
1761315699011410000,2.100409912109375,-0.08067769557237625,0.821605920791626,-0.07284524291753769
1761315699021392000,2.110391845703125,-0.02567356266081333,0.7252618074417114,-0.06356652826070786
1761315699031374800,2.120374755859375,0.0027852398343384266,0.5861147046089172,-0.05616091936826706
1761315699041356800,2.130356689453125,0.007304357830435038,0.4132153391838074,-0.0522918775677681
1761315699051339000,2.140339111328125,0.001542342477478087,0.22180676460266113,-0.050722748041152954
1761315699061322000,2.150322021484375,-0.013138598762452602,0.04139118641614914,-0.05491109937429428
1761315699071304000,2.160303955078125,-0.04442790150642395,-0.12364145368337631,-0.0659007802605629
1761315699081286000,2.170285888671875,-0.09129367768764496,-0.24036461114883423,-0.0841737911105156
1761315699091269000,2.18026904296875,-0.1489167958498001,-0.3016381561756134,-0.11717227101325989
1761315699101250800,2.190250732421875,-0.21168005466461182,-0.3274569809436798,-0.16615286469459534
1761315699111233000,2.20023291015625,-0.27513399720191956,-0.3246845304965973,-0.2401280403137207
1761315699121215700,2.2102158203125,-0.33913055062294006,-0.2939116954803467,-0.3230873644351959
1761315699131198000,2.220197998046875,-0.38604509830474854,-0.2415490746498108,-0.4072750210762024
1761315699141179600,2.2301796875,-0.41022151708602905,-0.16518531739711761,-0.47904694080352783
1761315699151162600,2.24016259765625,-0.40948686003685,-0.06809687614440918,-0.5306559205055237
1761315699161144800,2.250144775390625,-0.3869999349117279,0.028332717716693878,-0.5538715124130249
1761315699171126500,2.26012646484375,-0.3520009219646454,0.13505347073078156,-0.5540429949760437
1761315699181109800,2.27010986328125,-0.31176772713661194,0.23652631044387817,-0.5221737623214722
1761315699191091700,2.280091796875,-0.2730148732662201,0.3196139335632324,-0.46749866008758545
1761315699201074700,2.29007470703125,-0.2439856231212616,0.3898835778236389,-0.4047156870365143
1761315699211056600,2.300056640625,-0.22716893255710602,0.4238114058971405,-0.33958160877227783
1761315699221038600,2.31003857421875,-0.2160438448190689,0.4041453003883362,-0.3040909767150879
1761315699231021600,2.320021484375,-0.20765382051467896,0.3262571692466736,-0.29981398582458496
1761315699241003800,2.330003662109375,-0.19931413233280182,0.22569754719734192,-0.3126847743988037
1761315699250985700,2.33998583984375,-0.19922804832458496,0.15620934963226318,-0.3262215852737427
1761315699260968700,2.34996875,-0.20260174572467804,0.1073179841041565,-0.3237062394618988
1761315699270950700,2.35995068359375,-0.20395790040493011,0.07781469821929932,-0.30191412568092346
1761315699280932600,2.3699326171875,-0.21229812502861023,0.06236809492111206,-0.2683902680873871
1761315699290915800,2.379915771484375,-0.22213146090507507,0.0355161689221859,-0.22898972034454346
1761315699300897500,2.3898974609375,-0.2351149022579193,-0.005612092092633247,-0.1933470368385315
1761315699310879700,2.399879638671875,-0.24153771996498108,-0.04950907826423645,-0.17415383458137512
1761315699320862700,2.40986279296875,-0.24909310042858124,-0.10121487826108932,-0.17525239288806915
1761315699330844700,2.4198447265625,-0.2569675147533417,-0.15181928873062134,-0.19693908095359802
1761315699340826600,2.42982666015625,-0.26290982961654663,-0.16698545217514038,-0.22165347635746002
1761315699350809600,2.4398095703125,-0.266843318939209,-0.15615877509117126,-0.25054171681404114
1761315699360791800,2.449791748046875,-0.2642650902271271,-0.13011331856250763,-0.2631150484085083
1761315699370773500,2.4597734375,-0.25323405861854553,-0.06817290931940079,-0.25982996821403503
1761315699380756700,2.4697568359375,-0.2347559779882431,0.0545671246945858,-0.22905394434928894
1761315699390738700,2.47973876953125,-0.20525237917900085,0.27439355850219727,-0.17570169270038605
1761315699400720600,2.489720703125,-0.15784278512001038,0.5176680088043213,-0.11198237538337708
1761315699410703600,2.49970361328125,-0.10473907738924026,0.620819628238678,-0.054118044674396515
1761315699420685800,2.509685791015625,-0.0683288723230362,0.5800644755363464,-0.026456590741872787
1761315699430667500,2.51966748046875,-0.06043504178524017,0.4215404689311981,-0.023794421926140785
1761315699440650800,2.529650634765625,-0.06954038143157959,0.16017811000347137,-0.04884491115808487
1761315699450632400,2.539632568359375,-0.09886505454778671,-0.14516380429267883,-0.07310699671506882
1761315699460614700,2.54961474609375,-0.13760419189929962,-0.3681156635284424,-0.08528030663728714
1761315699470597600,2.55959765625,-0.15833064913749695,-0.4591878354549408,-0.07653786987066269
1761315699480579600,2.56957958984375,-0.15001492202281952,-0.428390771150589,-0.03592386096715927
1761315699490561800,2.579561767578125,-0.13788513839244843,-0.29178929328918457,0.03526737913489342
1761315699500544500,2.58954443359375,-0.11653829365968704,-0.09658648818731308,0.10937729477882385
1761315699510526700,2.599526611328125,-0.07524615526199341,0.12372535467147827,0.1569032371044159
1761315699520509700,2.609509765625,-0.014076806604862213,0.31412753462791443,0.16868479549884796
1761315699530491600,2.61949169921875,0.0558507926762104,0.4444594383239746,0.14714594185352325
1761315699540473600,2.6294736328125,0.12594705820083618,0.5094326138496399,0.12610110640525818
1761315699550456800,2.639456787109375,0.2150242030620575,0.534530758857727,0.13209615647792816
1761315699560438500,2.6494384765625,0.31758466362953186,0.5170684456825256,0.17932012677192688
1761315699570420700,2.659420654296875,0.42416247725486755,0.48340708017349243,0.2560710310935974
1761315699580403500,2.669403564453125,0.5293530225753784,0.46540412306785583,0.3596181869506836
1761315699590385700,2.6793857421875,0.6222410798072815,0.47273534536361694,0.4797414243221283
1761315699600367600,2.68936767578125,0.7103363275527954,0.4772754907608032,0.5977620482444763
1761315699610350600,2.6993505859375,0.7795532941818237,0.438754141330719,0.6975823044776917
1761315699620332800,2.709332763671875,0.8247223496437073,0.32471492886543274,0.7594406008720398
1761315699630314500,2.719314453125,0.8457505702972412,0.1644723266363144,0.7703590393066406
1761315699640297700,2.729297607421875,0.8398979902267456,-0.025907477363944054,0.7388021349906921
1761315699650279700,2.73927978515625,0.8235612511634827,-0.18587447702884674,0.6634554266929626
1761315699660261600,2.74926171875,0.8013691306114197,-0.28777554631233215,0.5593346357345581
1761315699670244600,2.75924462890625,0.7756949067115784,-0.32622259855270386,0.43377238512039185
1761315699680226600,2.7692265625,0.7400977611541748,-0.3215372860431671,0.2963295876979828
1761315699690208800,2.779208740234375,0.6908906102180481,-0.30744946002960205,0.15829530358314514
1761315699700191700,2.789191650390625,0.633891761302948,-0.2916087210178375,0.029282189905643463
1761315699710173700,2.799173583984375,0.5738106966018677,-0.2760204076766968,-0.07808603346347809
1761315699720155600,2.80915576171875,0.516858696937561,-0.2706141769886017,-0.15240740776062012
1761315699730138600,2.819138671875,0.46555042266845703,-0.24309469759464264,-0.18650765717029572
1761315699740120600,2.82912060546875,0.4322896897792816,-0.1848718672990799,-0.18210650980472565
1761315699750102800,2.839102783203125,0.4280936121940613,-0.08583424240350723,-0.14205896854400635
1761315699760085500,2.84908544921875,0.43388357758522034,0.02826383337378502,-0.08454028517007828
1761315699770067700,2.859067626953125,0.44611409306526184,0.13475635647773743,-0.018986498937010765
1761315699780049700,2.869049560546875,0.4740684926509857,0.2303241640329361,0.0436989851295948
1761315699790032600,2.87903271484375,0.5201837420463562,0.28044360876083374,0.08741512149572372
1761315699800014800,2.889014892578125,0.5571652054786682,0.2683773636817932,0.10390008240938187
1761315699809997600,2.89899755859375,0.577746570110321,0.22475168108940125,0.09922520816326141
1761315699819979800,2.908979736328125,0.5836185812950134,0.19723936915397644,0.09792345762252808
1761315699829961700,2.918961669921875,0.5836390256881714,0.20404517650604248,0.09236490726470947
1761315699839944700,2.92894482421875,0.566121518611908,0.21463871002197266,0.08866178244352341
1761315699849926700,2.9389267578125,0.5344535112380981,0.2127911001443863,0.06011676415801048
1761315699859908600,2.94890869140625,0.48803970217704773,0.21083980798721313,0.02358352020382881
1761315699869891600,2.9588916015625,0.44739678502082825,0.21149954199790955,-0.02064557373523712
1761315699879873800,2.968873779296875,0.4106406271457672,0.20671996474266052,-0.07669126242399216
1761315699889855700,2.978855712890625,0.3766499161720276,0.1866190880537033,-0.14995387196540833
1761315699899838700,2.988838623046875,0.3530462980270386,0.17757311463356018,-0.204987570643425
1761315699909820700,2.998820556640625,0.3454439342021942,0.17988894879817963,-0.23665806651115417
1761315699919802600,3.008802734375,0.3507809042930603,0.16160155832767487,-0.25109532475471497
1761315699929785900,3.018785888671875,0.3514038622379303,0.15629790723323822,-0.24524083733558655
1761315699939767600,3.028767578125,0.33975571393966675,0.1706816405057907,-0.2239011824131012
1761315699949749800,3.038749755859375,0.3109172582626343,0.168529212474823,-0.20501583814620972
1761315699959732700,3.048732666015625,0.2820483148097992,0.1402866691350937,-0.18559153378009796
1761315699969714700,3.058714599609375,0.25892147421836853,0.09637784212827682,-0.17236191034317017
1761315699979696600,3.068696533203125,0.24539048969745636,0.05344528704881668,-0.15171468257904053
1761315699989679600,3.0786796875,0.23880904912948608,0.007073577027767897,-0.13591358065605164
1761315699999661600,3.08866162109375,0.2241632640361786,-0.034439243376255035,-0.11680326610803604
1761315700009643500,3.0986435546875,0.20508211851119995,-0.059537872672080994,-0.10208404809236526
1761315700019626500,3.10862646484375,0.1763753741979599,-0.10077185928821564,-0.10159589350223541
1761315700029608700,3.118608642578125,0.13517770171165466,-0.16522234678268433,-0.11987636238336563
1761315700039590700,3.128590576171875,0.08950981497764587,-0.26320937275886536,-0.15165533125400543
1761315700049573600,3.13857373046875,0.026235437020659447,-0.36268171668052673,-0.19706185162067413
1761315700059555800,3.148555908203125,-0.04493753984570503,-0.455312579870224,-0.24497318267822266
1761315700069537500,3.15853759765625,-0.12395715713500977,-0.5320917963981628,-0.2881803512573242
1761315700079520800,3.168520751953125,-0.20525947213172913,-0.5707627534866333,-0.3283029794692993
1761315700089502500,3.17850244140625,-0.27367401123046875,-0.5495773553848267,-0.35660791397094727
1761315700099484700,3.188484619140625,-0.3247228264808655,-0.46119293570518494,-0.3759712278842926
1761315700109467600,3.198467529296875,-0.35463768243789673,-0.31424957513809204,-0.3698361814022064
1761315700119449600,3.20844970703125,-0.3680720031261444,-0.14268261194229126,-0.3467540144920349
1761315700129431800,3.218431884765625,-0.36153069138526917,0.042078278958797455,-0.3083002269268036
1761315700139414800,3.228414794921875,-0.3384709060192108,0.20634470880031586,-0.258395791053772
1761315700149397000,3.23839697265625,-0.28964173793792725,0.29482904076576233,-0.20743219554424286
1761315700159379700,3.248379638671875,-0.2607368528842926,0.26566314697265625,-0.17998139560222626
1761315700169362000,3.25836181640625,-0.2597610354423523,0.12441351264715195,-0.20370380580425262
1761315700179343600,3.268343505859375,-0.28119391202926636,-0.058397840708494186,-0.27211856842041016
1761315700189326800,3.278326904296875,-0.3295738101005554,-0.25099265575408936,-0.3921453356742859
1761315700199308800,3.288308837890625,-0.3899375796318054,-0.4491389989852905,-0.5487669110298157
1761315700209290800,3.298290771484375,-0.470254123210907,-0.590899646282196,-0.7246190309524536
1761315700219273700,3.308273681640625,-0.5592500567436218,-0.6844141483306885,-0.8701578378677368
1761315700229255700,3.318255615234375,-0.6378254890441895,-0.6766772270202637,-0.9255419969558716
1761315700239238000,3.32823779296875,-0.6843549013137817,-0.5639711618423462,-0.8848046660423279
1761315700249220900,3.338220947265625,-0.6756905913352966,-0.379165381193161,-0.7683214545249939
1761315700259202800,3.348202880859375,-0.6094481348991394,-0.14799287915229797,-0.5862635374069214
1761315700269184800,3.358184814453125,-0.496245414018631,0.08959230035543442,-0.37886708974838257
1761315700279168000,3.36816796875,-0.37875500321388245,0.22867988049983978,-0.17540399730205536
1761315700289149700,3.378149658203125,-0.27567970752716064,0.23817330598831177,-0.0001575341448187828
1761315700299132000,3.3881318359375,-0.20399460196495056,0.18757031857967377,0.1618950217962265
1761315700309114600,3.398114501953125,-0.1268319934606552,0.12849260866641998,0.3248603940010071
1761315700319096800,3.408096923828125,-0.05489523336291313,0.0824958086013794,0.4929068982601166
1761315700329078800,3.418078857421875,0.01743049919605255,0.06446041911840439,0.6610883474349976
1761315700339061800,3.428061767578125,0.07238882035017014,0.0514596663415432,0.8226439952850342
1761315700349044000,3.4380439453125,0.11593440920114517,0.028001032769680023,0.9480366110801697
1761315700359025700,3.448025634765625,0.1482292264699936,-0.03431081026792526,1.0308458805084229
1761315700369009000,3.4580087890625,0.1799333542585373,-0.1357869654893875,1.0535874366760254
1761315700378990800,3.467990966796875,0.20427943766117096,-0.2629571855068207,1.034408688545227
1761315700388972800,3.477972900390625,0.19976064562797546,-0.39026033878326416,0.9914286136627197
1761315700398955800,3.487955810546875,0.16300316154956818,-0.48911499977111816,0.9422346949577332
1761315700408937700,3.497937744140625,0.08724667876958847,-0.5554039478302002,0.8870384097099304
1761315700418919700,3.507919677734375,-0.015873577445745468,-0.594124436378479,0.8167368173599243
1761315700428903000,3.51790283203125,-0.15128643810749054,-0.6093663573265076,0.7225552201271057
1761315700438884600,3.527884521484375,-0.3193390965461731,-0.6084017753601074,0.6079642176628113
1761315700448866800,3.53786669921875,-0.5038231611251831,-0.5832353830337524,0.46048006415367126
1761315700458849800,3.547849853515625,-0.6906601786613464,-0.5087076425552368,0.2980988621711731
1761315700468831700,3.557831787109375,-0.8345617651939392,-0.37474194169044495,0.1401536911725998
1761315700478814700,3.567814697265625,-0.9237747192382812,-0.17354440689086914,0.010369332507252693
1761315700488796700,3.577796630859375,-0.9603551626205444,0.04768607020378113,-0.08614704757928848
1761315700498779000,3.58777880859375,-0.942453145980835,0.2507134974002838,-0.15129436552524567
1761315700508761900,3.597761962890625,-0.8898718953132629,0.3879757821559906,-0.20039765536785126
1761315700518743800,3.607743896484375,-0.8153982162475586,0.4682149589061737,-0.2327505350112915
1761315700528725800,3.617725830078125,-0.7336156964302063,0.4953707158565521,-0.25322961807250977
1761315700538708700,3.627708740234375,-0.66378253698349,0.44630199670791626,-0.2688826024532318
1761315700548690700,3.637690673828125,-0.6082768440246582,0.3408408761024475,-0.2792070806026459
1761315700558672600,3.647672607421875,-0.5673177242279053,0.21585074067115784,-0.2864503562450409
1761315700568655600,3.657655517578125,-0.5403546094894409,0.09540816396474838,-0.2805624306201935
1761315700578637800,3.667637939453125,-0.5225839018821716,-0.021925926208496094,-0.27249252796173096
1761315700588619800,3.677619873046875,-0.5104912519454956,-0.1302427351474762,-0.2694482207298279
1761315700598602800,3.687602783203125,-0.5118098258972168,-0.19701671600341797,-0.2767511308193207
1761315700608585000,3.6975849609375,-0.5139708518981934,-0.2270662933588028,-0.2990575432777405
1761315700618566700,3.707566650390625,-0.5229033827781677,-0.22380311787128448,-0.325168251991272
1761315700628550000,3.7175498046875,-0.5261761546134949,-0.17856033146381378,-0.36042726039886475
1761315700638531600,3.727531494140625,-0.5136169195175171,-0.10219632834196091,-0.39359691739082336
1761315700648513800,3.737513671875,-0.503466784954071,-0.035729482769966125,-0.4326116144657135
1761315700658496800,3.747496826171875,-0.4926935136318207,0.02069864049553871,-0.4689251482486725
1761315700668478700,3.757478759765625,-0.47043779492378235,0.07921937108039856,-0.48797011375427246
1761315700678461000,3.7674609375,-0.4410306513309479,0.13104741275310516,-0.49241626262664795
1761315700688444000,3.77744384765625,-0.4157644808292389,0.18686988949775696,-0.4639008045196533
1761315700698425900,3.78742578125,-0.36826857924461365,0.26671358942985535,-0.4088554084300995
1761315700708407800,3.79740771484375,-0.31369954347610474,0.37259140610694885,-0.32554891705513
1761315700718390800,3.807390869140625,-0.24595430493354797,0.46433037519454956,-0.2317609339952469
1761315700728372700,3.817372802734375,-0.17280296981334686,0.5379911661148071,-0.13912630081176758
1761315700738354700,3.827354736328125,-0.11126451939344406,0.5624826550483704,-0.059675946831703186
1761315700748337700,3.837337646484375,-0.05849785730242729,0.5226874351501465,-0.011456907726824284
1761315700758319900,3.84731982421875,-0.025009939447045326,0.4310254454612732,0.005454697646200657
1761315700768302600,3.857302490234375,0.010869698598980904,0.3003661632537842,-0.0013735322281718254
1761315700778284800,3.867284912109375,0.028337905183434486,0.16729676723480225,-0.01262645237147808
1761315700788267000,3.87726708984375,0.03266873583197594,0.073703832924366,-0.025652660056948662
1761315700798249700,3.887249755859375,0.022667236626148224,0.04388574883341789,-0.01823602244257927
1761315700808232000,3.89723193359375,0.010203142650425434,0.042941443622112274,0.0010016636224463582
1761315700818213600,3.907213623046875,-0.0033885659649968147,0.04408500716090202,0.013829044997692108
1761315700828196900,3.91719677734375,-0.010854733176529408,0.05132148042321205,0.019824201241135597
1761315700838178800,3.9271787109375,-0.019363265484571457,0.05750720202922821,0.011417134664952755
1761315700848160800,3.937160888671875,-0.03273390233516693,0.06492961943149567,-0.0186513252556324
1761315700858143700,3.947143798828125,-0.04621189460158348,0.06485558301210403,-0.05806237831711769
1761315700868125700,3.957125732421875,-0.05587390065193176,0.07385377585887909,-0.09139175713062286
1761315700878108000,3.96710791015625,-0.058835867792367935,0.10508733242750168,-0.11588724702596664
1761315700888091000,3.9770908203125,-0.04700480028986931,0.19490943849086761,-0.12247347086668015
1761315700898072800,3.98707275390625,-0.02277163416147232,0.3265572190284729,-0.10709824413061142
1761315700908054800,3.9970546875,0.021875590085983276,0.39917704463005066,-0.10669896751642227
1761315700918038000,4.0070380859375,0.061157215386629105,0.35924771428108215,-0.12481538206338882
1761315700928019700,4.017019775390625,0.07412762194871902,0.22190171480178833,-0.17696289718151093
1761315700938002000,4.027001953125,0.06748276203870773,0.0143879484385252,-0.2441994547843933
1761315700947984600,4.036984619140625,0.03886193782091141,-0.22804974019527435,-0.31581544876098633
1761315700957966800,4.046966796875,-0.0011440651724115014,-0.45119014382362366,-0.3590049743652344
1761315700967948800,4.05694873046875,-0.034333959221839905,-0.5545002222061157,-0.3593803942203522
1761315700977931800,4.066931884765625,-0.03883923217654228,-0.5079655051231384,-0.2994520664215088
1761315700987913700,4.076913818359375,0.003427663818001747,-0.31916263699531555,-0.18117327988147736
1761315700997895700,4.086895751953125,0.06938191503286362,-0.07179305702447891,-0.03792823478579521
1761315701007878700,4.096878662109375,0.15220630168914795,0.13830289244651794,0.0703473761677742
1761315701017860900,4.10686083984375,0.23583488166332245,0.2701093852519989,0.12276637554168701
1761315701027842800,4.1168427734375,0.3154832422733307,0.35826465487480164,0.13301585614681244
1761315701037825800,4.12682568359375,0.389837384223938,0.42202794551849365,0.14839373528957367
1761315701047807700,4.136807861328125,0.4590059816837311,0.4472487270832062,0.1949428766965866
1761315701057790700,4.146790771484375,0.5184104442596436,0.4519020617008209,0.2773788869380951
1761315701067773000,4.15677294921875,0.5812430381774902,0.4774644374847412,0.40336811542510986
1761315701077754600,4.166754638671875,0.6507605910301208,0.5476539134979248,0.5514491200447083
1761315701087737900,4.17673779296875,0.7059925198554993,0.6157829761505127,0.6947149634361267
1761315701097719600,4.186719482421875,0.7564886808395386,0.629046618938446,0.8072159290313721
1761315701107701800,4.19670166015625,0.7789865732192993,0.5510300397872925,0.8622859716415405
1761315701117684700,4.206684814453125,0.7911795973777771,0.3877590596675873,0.8652503490447998
1761315701127666700,4.216666748046875,0.7815911769866943,0.17210949957370758,0.8306697607040405
1761315701137649000,4.22664892578125,0.7466816902160645,-0.037143055349588394,0.7720788717269897
1761315701147631900,4.2366318359375,0.7122423648834229,-0.2056797593832016,0.6963143944740295
1761315701157613800,4.24661376953125,0.6636039614677429,-0.3171274662017822,0.6060662269592285
1761315701167595800,4.256595703125,0.5978145599365234,-0.3680672347545624,0.501052737236023
1761315701177578800,4.266578857421875,0.5063810348510742,-0.3506278097629547,0.3731032907962799
1761315701187560700,4.276560791015625,0.4098864197731018,-0.2902224361896515,0.2265717089176178
1761315701197542700,4.286542724609375,0.31628936529159546,-0.23052741587162018,0.07033737003803253
1761315701207525600,4.296525634765625,0.24268722534179688,-0.1572999507188797,-0.08097279071807861
1761315701217507800,4.3065078125,0.19226773083209991,-0.08905645459890366,-0.20474106073379517
1761315701227489800,4.31648974609375,0.16492313146591187,-0.04099607467651367,-0.29481470584869385
1761315701237472800,4.32647265625,0.15662312507629395,-0.01065920852124691,-0.35190486907958984
1761315701247455000,4.336455078125,0.17672191560268402,0.021519258618354797,-0.3746834397315979
1761315701257436700,4.346436767578125,0.22204971313476562,0.060138553380966187,-0.36355915665626526
1761315701267420000,4.356419921875,0.28345194458961487,0.0944593995809555,-0.3165439963340759
1761315701277401600,4.366401611328125,0.34255361557006836,0.13452187180519104,-0.2508917450904846
1761315701287383800,4.3763837890625,0.39520591497421265,0.18220274150371552,-0.17381060123443604
1761315701297366800,4.38636669921875,0.4423326849937439,0.21921482682228088,-0.09778133034706116
1761315701307348700,4.3963486328125,0.47027823328971863,0.2150254100561142,-0.05329204350709915
1761315701317331000,4.4063310546875,0.4777505099773407,0.1926220953464508,-0.03896183893084526
1761315701327314000,4.41631396484375,0.4795823097229004,0.18273812532424927,-0.06727930903434753
1761315701337296000,4.4262958984375,0.4742740988731384,0.17925870418548584,-0.11457359045743942
1761315701347277800,4.43627783203125,0.46291714906692505,0.17401354014873505,-0.17940151691436768
1761315701357260800,4.4462607421875,0.439942866563797,0.15813817083835602,-0.2537042200565338
1761315701367242800,4.45624267578125,0.4083467423915863,0.14175115525722504,-0.3343563973903656
1761315701377226000,4.46622607421875,0.37890708446502686,0.13491161167621613,-0.4077765643596649
1761315701387207700,4.476207763671875,0.3443973660469055,0.1275337040424347,-0.47208428382873535
1761315701397190000,4.48618994140625,0.31738731265068054,0.10465394705533981,-0.5248409509658813
1761315701407172600,4.496172607421875,0.302642822265625,0.07540139555931091,-0.5686728358268738
1761315701417154800,4.50615478515625,0.3123748004436493,0.04862944036722183,-0.5816206336021423
1761315701427137000,4.516136962890625,0.33744338154792786,0.02865196019411087,-0.5543936491012573
1761315701437119700,4.52611962890625,0.36068132519721985,-0.007623222656548023,-0.4904405176639557
1761315701447102000,4.53610205078125,0.378150999546051,-0.0494229719042778,-0.4016094505786896
1761315701457083600,4.546083740234375,0.39290809631347656,-0.08543822914361954,-0.2947879433631897
1761315701467067000,4.55606689453125,0.39907220005989075,-0.12077125161886215,-0.1897052377462387
1761315701477048800,4.566048828125,0.40034013986587524,-0.14321105182170868,-0.09717158228158951
1761315701487030800,4.57603076171875,0.4012802839279175,-0.14296570420265198,-0.025676583871245384
1761315701497013800,4.586013671875,0.39464423060417175,-0.12928664684295654,0.025754649192094803
1761315701506995700,4.59599560546875,0.3699011206626892,-0.10984521359205246,0.05417422577738762
1761315701516977700,4.605977783203125,0.3367639183998108,-0.09781838208436966,0.062220435589551926
1761315701526961000,4.6159609375,0.29627010226249695,-0.09381554275751114,0.05070987343788147
1761315701536942800,4.62594287109375,0.24137888848781586,-0.1129748597741127,0.028189651668071747
1761315701546924800,4.6359248046875,0.1848956197500229,-0.13388507068157196,0.0051254937425255775
1761315701556907800,4.64590771484375,0.11755520850419998,-0.16131722927093506,-0.009789539501070976
1761315701566889700,4.6558896484375,0.054831940680742264,-0.20344571769237518,-0.022104986011981964
1761315701576872000,4.665871826171875,-0.01744971238076687,-0.24853090941905975,-0.029617231339216232
1761315701586854700,4.675854736328125,-0.08813247829675674,-0.27196070551872253,-0.023990390822291374
1761315701596836900,4.6858369140625,-0.16284427046775818,-0.27689075469970703,-0.014773989096283913
1761315701606818600,4.695818603515625,-0.23856066167354584,-0.26840469241142273,-0.005837638862431049
1761315701616801800,4.7058017578125,-0.3048155903816223,-0.2437797635793686,-0.0022476972080767155
1761315701626783700,4.71578369140625,-0.36031606793403625,-0.20448444783687592,-0.004563429392874241
1761315701636765700,4.725765625,-0.395677775144577,-0.15961231291294098,-0.0019396829884499311
1761315701646748700,4.735748779296875,-0.4043072462081909,-0.10876592248678207,0.017066003754734993
1761315701656731000,4.74573095703125,-0.38294363021850586,-0.05513785034418106,0.06714461743831635
1761315701666712800,4.755712890625,-0.34362301230430603,0.022076528519392014,0.1447899490594864
1761315701676695800,4.76569580078125,-0.28298789262771606,0.089561827480793,0.2272922843694687
1761315701686677800,4.775677734375,-0.22568269073963165,0.0801246389746666,0.2779642641544342
1761315701696660700,4.78566064453125,-0.20405356585979462,-0.023076852783560753,0.2692463994026184
1761315701706643000,4.795642822265625,-0.21107080578804016,-0.2021242082118988,0.2011803835630417
1761315701716624600,4.805624755859375,-0.24088862538337708,-0.3800206780433655,0.11139402538537979
1761315701726608000,4.81560791015625,-0.28942736983299255,-0.5414677262306213,0.00434024166315794
1761315701736589600,4.825589599609375,-0.36018407344818115,-0.6470066905021667,-0.10918845236301422
1761315701746571800,4.83557177734375,-0.43973034620285034,-0.6348618268966675,-0.19814208149909973
1761315701756554800,4.8455546875,-0.514473021030426,-0.5053091645240784,-0.23175464570522308
1761315701766536700,4.85553662109375,-0.5567542314529419,-0.30513277649879456,-0.2099384069442749
1761315701776519000,4.865518798828125,-0.5554008483886719,-0.07049709558486938,-0.13143108785152435
1761315701786502000,4.875501953125,-0.4965926706790924,0.13233764469623566,-0.02884148806333542
1761315701796483800,4.88548388671875,-0.40016093850135803,0.2582063674926758,0.07534057646989822
1761315701806465800,4.8954658203125,-0.2931423783302307,0.3155848979949951,0.17377066612243652
1761315701816448800,4.90544873046875,-0.1946789175271988,0.3531820774078369,0.26016518473625183
1761315701826430700,4.9154306640625,-0.11584882438182831,0.373420387506485,0.34808269143104553
1761315701836412700,4.92541259765625,-0.049226127564907074,0.37915951013565063,0.4347158670425415
1761315701846395600,4.935395751953125,0.007833513431251049,0.3613154888153076,0.5210166573524475
1761315701856377900,4.9453779296875,0.057774707674980164,0.33955907821655273,0.6079283952713013
1761315701866359800,4.95535986328125,0.10943647474050522,0.28890758752822876,0.6918649673461914
1761315701876342800,4.9653427734375,0.1547432392835617,0.19753718376159668,0.7609122395515442
1761315701886325000,4.975324951171875,0.19139383733272552,0.05618954449892044,0.8010424375534058
1761315701896306700,4.985306640625,0.22052696347236633,-0.09981630742549896,0.8174853324890137
1761315701906290000,4.9952900390625,0.24603597819805145,-0.24412259459495544,0.8080987930297852
1761315701916271600,5.005271728515625,0.25308161973953247,-0.35543763637542725,0.7780769467353821
1761315701926253800,5.01525390625,0.22099493443965912,-0.42546743154525757,0.730808675289154
1761315701936236800,5.02523681640625,0.15180280804634094,-0.45354488492012024,0.6647263765335083
1761315701946218800,5.03521875,0.048529330641031265,-0.44503873586654663,0.5856459140777588
1761315701956201000,5.045200927734375,-0.08396292477846146,-0.41588935256004333,0.4820968806743622
1761315701966184000,5.055183837890625,-0.22484906017780304,-0.3680388033390045,0.3438839316368103
1761315701976166000,5.065165771484375,-0.35022589564323425,-0.28797993063926697,0.17550316452980042
1761315701986147800,5.07514794921875,-0.45153871178627014,-0.1954369992017746,-0.004742315039038658
1761315701996130800,5.085130859375,-0.5100680589675903,-0.08741385489702225,-0.1640307754278183
1761315702006112800,5.09511279296875,-0.5126504302024841,0.05949847027659416,-0.2731435000896454
1761315702016094700,5.1050947265625,-0.4770527780056,0.21946470439434052,-0.33735817670822144
1761315702026077700,5.11507763671875,-0.4067412316799164,0.3665393888950348,-0.36541181802749634
1761315702036060000,5.125059814453125,-0.3323332965373993,0.47298458218574524,-0.36363521218299866
1761315702046041600,5.13504150390625,-0.2523256838321686,0.5242762565612793,-0.3550436794757843
1761315702056024800,5.14502490234375,-0.1806996911764145,0.5229009985923767,-0.34909018874168396
1761315702066006800,5.1550068359375,-0.11382494866847992,0.4849623143672943,-0.3509539067745209
1761315702075989800,5.16498974609375,-0.05246412009000778,0.4379042387008667,-0.35815906524658203
1761315702085971700,5.1749716796875,-0.0004517663037404418,0.36103469133377075,-0.3707481324672699
1761315702095953700,5.18495361328125,0.047929614782333374,0.26222527027130127,-0.4020858108997345
1761315702105936000,5.194935791015625,0.08548732846975327,0.1545429229736328,-0.4489997327327728
1761315702115918800,5.2049189453125,0.12267198413610458,0.062380243092775345,-0.507229208946228
1761315702125900800,5.21490087890625,0.15336771309375763,-0.004356252029538155,-0.5635406374931335
1761315702135884300,5.22488427734375,0.182387113571167,-0.050208162516355515,-0.609303891658783
1761315702145866500,5.234866455078125,0.18820244073867798,-0.0732160434126854,-0.6541064381599426
1761315702155848200,5.24484814453125,0.19505102932453156,-0.0704391673207283,-0.6939593553543091
1761315702165831400,5.25483154296875,0.19132648408412933,-0.05518686771392822,-0.7428138852119446
1761315702175813000,5.264813232421875,0.18406245112419128,-0.031675681471824646,-0.7991863489151001
1761315702185795300,5.27479541015625,0.17814071476459503,-0.0014389827847480774,-0.8551225066184998
1761315702195778300,5.2847783203125,0.1825929880142212,0.021924927830696106,-0.9001381993293762
1761315702205760300,5.29476025390625,0.20043857395648956,0.025276780128479004,-0.9320197701454163
1761315702215742500,5.304742431640625,0.23682373762130737,0.025656014680862427,-0.9300716519355774
1761315702225725200,5.31472509765625,0.2907436788082123,0.04310248792171478,-0.8923031687736511
1761315702235707400,5.324707275390625,0.37879765033721924,0.10024566948413849,-0.807790994644165
1761315702245689300,5.334689453125,0.4905973970890045,0.22326824069023132,-0.6640564203262329
1761315702255672300,5.34467236328125,0.6256585121154785,0.39114245772361755,-0.4732547402381897
1761315702265654300,5.354654296875,0.7639381289482117,0.5392926931381226,-0.2702111601829529
1761315702275636200,5.36463623046875,0.8676772713661194,0.609184980392456,-0.09623084217309952
1761315702285619200,5.374619140625,0.9207620620727539,0.5888538360595703,0.019657263532280922
1761315702295601400,5.384601318359375,0.9519359469413757,0.5290957093238831,0.09108883142471313
1761315702305583400,5.394583251953125,0.9677574634552002,0.44016075134277344,0.11698400229215622
1761315702315566300,5.40456640625,0.9760436415672302,0.3306390345096588,0.10963021963834763
1761315702325548300,5.41454833984375,0.9723818302154541,0.2231283038854599,0.07601485401391983
1761315702335530200,5.4245302734375,0.9481878280639648,0.1359177678823471,0.029260925948619843
1761315702345513200,5.43451318359375,0.9173195958137512,0.08963218331336975,-0.016234008595347404
1761315702355495200,5.4444951171875,0.8902150392532349,0.07358211278915405,-0.05708103999495506
1761315702365477400,5.454477294921875,0.8742774724960327,0.08217467367649078,-0.09737560898065567
1761315702375460400,5.46446044921875,0.852511465549469,0.11430197954177856,-0.14310741424560547
1761315702385442300,5.4744423828125,0.8404956459999084,0.1288156360387802,-0.18566933274269104
1761315702395424300,5.48442431640625,0.8251768946647644,0.13259252905845642,-0.21479712426662445
1761315702405407200,5.4944072265625,0.8036739230155945,0.13275107741355896,-0.22219721972942352
1761315702415389200,5.50438916015625,0.7861436605453491,0.12262040376663208,-0.21078024804592133
1761315702425371100,5.51437109375,0.7703266739845276,0.11184771358966827,-0.18081428110599518
1761315702435354000,5.52435400390625,0.7515822649002075,0.10731182247400284,-0.1352049857378006
1761315702445336300,5.53433642578125,0.7483264803886414,0.12420367449522018,-0.08017133176326752
1761315702455318300,5.544318359375,0.7539963722229004,0.19292601943016052,-0.017017662525177002
1761315702465301200,5.55430126953125,0.7720272541046143,0.3208550214767456,0.044467270374298096
1761315702475283500,5.564283447265625,0.8036419153213501,0.41573306918144226,0.09242041409015656
1761315702485265200,5.57426513671875,0.8240297436714172,0.4030822813510895,0.09259748458862305
1761315702495248400,5.584248291015625,0.816278338432312,0.2904873192310333,0.05495556816458702
1761315702505230000,5.59422998046875,0.7833077311515808,0.09537020325660706,-0.005990002304315567
1761315702515212300,5.60421240234375,0.7283337116241455,-0.0795973464846611,-0.049714576452970505
1761315702525195300,5.6141953125,0.6883611679077148,-0.161215677857399,-0.04336157441139221
1761315702535177200,5.62417724609375,0.6619532108306885,-0.12610243260860443,0.008347958326339722
1761315702545160200,5.63416015625,0.6694343090057373,0.0421680212020874,0.1138886883854866
1761315702555142400,5.644142333984375,0.7134822010993958,0.2988296151161194,0.25395098328590393
1761315702565124400,5.654124267578125,0.7743537425994873,0.5516675114631653,0.3821682035923004
1761315702575107300,5.664107421875,0.8363007307052612,0.7187475562095642,0.4569396376609802
1761315702585089300,5.67408935546875,0.8778825402259827,0.7604260444641113,0.4621744751930237
1761315702595071200,5.6840712890625,0.9021125435829163,0.7048916220664978,0.43543633818626404
1761315702605054500,5.694054443359375,0.9079120755195618,0.5987412333488464,0.41418713331222534
1761315702615036200,5.7040361328125,0.9105685949325562,0.4814548194408417,0.4229702353477478
1761315702625018400,5.714018310546875,0.9185497164726257,0.36156177520751953,0.46008971333503723
1761315702635001000,5.7240009765625,0.9198179244995117,0.2393847554922104,0.5207371115684509
1761315702644983300,5.7339833984375,0.9187495708465576,0.13623854517936707,0.6009551882743835
1761315702654965500,5.743965576171875,0.9259235858917236,0.07078203558921814,0.6945211291313171
1761315702664948200,5.7539482421875,0.9279894232749939,0.058597199618816376,0.7989145517349243
1761315702674930400,5.763930419921875,0.9158028364181519,0.06448119133710861,0.8912266492843628
1761315702684912000,5.773912109375,0.8989228010177612,0.05540454760193825,0.931363046169281
1761315702694895400,5.783895263671875,0.866731584072113,0.023306801915168762,0.9078923463821411
1761315702704877300,5.793877197265625,0.8164206743240356,-0.043359920382499695,0.8203242421150208
1761315702714859300,5.803859375,0.7346624135971069,-0.13144397735595703,0.685061514377594
1761315702724842200,5.81384228515625,0.628908097743988,-0.2310095578432083,0.5245267152786255
1761315702734824200,5.82382421875,0.5156846046447754,-0.3090241849422455,0.35794782638549805
1761315702744806400,5.833806396484375,0.4120161533355713,-0.3394602835178375,0.19988681375980377
1761315702754789400,5.843789306640625,0.3234471380710602,-0.3368232250213623,0.05351733788847923
1761315702764771300,5.853771240234375,0.24582476913928986,-0.3167959153652191,-0.08252711594104767
1761315702774753300,5.863753173828125,0.18603600561618805,-0.2851210832595825,-0.18309633433818817
1761315702784736500,5.873736572265625,0.15276825428009033,-0.2382335513830185,-0.2576228380203247
1761315702794718200,5.88371826171875,0.13665719330310822,-0.17708390951156616,-0.29123538732528687
1761315702804700400,5.893700439453125,0.1288461983203888,-0.12455336004495621,-0.29451873898506165
1761315702814683100,5.90368310546875,0.1334952861070633,-0.08848616480827332,-0.27957040071487427
1761315702824665300,5.913665283203125,0.14491145312786102,-0.07858479768037796,-0.2608814239501953
1761315702834647300,5.923647216796875,0.16696429252624512,-0.07466143369674683,-0.2306681126356125
1761315702844630300,5.93363037109375,0.18921910226345062,-0.0673886388540268,-0.1986682116985321
1761315702854612200,5.9436123046875,0.20953021943569183,-0.040671542286872864,-0.16583997011184692
1761315702864594200,5.95359423828125,0.22202083468437195,-0.021363142877817154,-0.14581947028636932
1761315702874577400,5.963577392578125,0.24708357453346252,-0.006676343269646168,-0.13139712810516357
1761315702884559400,5.973559326171875,0.28745436668395996,0.01693178340792656,-0.12012047320604324
1761315702894541300,5.983541259765625,0.3252992331981659,0.03516564518213272,-0.10807952284812927
1761315702904524300,5.993524169921875,0.3469623327255249,0.049633800983428955,-0.10596218705177307
1761315702914506200,6.00350634765625,0.3545938730239868,0.046937353909015656,-0.11726623773574829
1761315702924488200,6.01348828125,0.3465265929698944,0.023015189915895462,-0.13170836865901947
1761315702934471400,6.023471435546875,0.32196372747421265,-0.015139652416110039,-0.15898633003234863
1761315702944453000,6.033453125,0.28885868191719055,-0.050088852643966675,-0.18876995146274567
1761315702954435300,6.043435302734375,0.24888837337493896,-0.07848773151636124,-0.22002214193344116
1761315702964418000,6.05341796875,0.20746883749961853,-0.10051792860031128,-0.2514052093029022
1761315702974400300,6.063400146484375,0.17320913076400757,-0.10464423149824142,-0.2915970981121063
1761315702984382500,6.073382568359375,0.13633494079113007,-0.10200516879558563,-0.3284827172756195
1761315702994365200,6.083365234375,0.10457408428192139,-0.09765436500310898,-0.3624630570411682
1761315703004347400,6.093347412109375,0.07684223353862762,-0.08666375279426575,-0.38146284222602844
1761315703014329000,6.1033291015625,0.06033942475914955,-0.08547491580247879,-0.3872584104537964
1761315703024312300,6.113312255859375,0.05551326647400856,-0.09252132475376129,-0.37512120604515076
1761315703034294300,6.123294189453125,0.05492737144231796,-0.10437212139368057,-0.345663458108902
1761315703044277200,6.13327734375,0.05937333032488823,-0.12411016970872879,-0.3048268258571625
1761315703054259200,6.14325927734375,0.05559457093477249,-0.14437177777290344,-0.25408241152763367
1761315703064241200,6.1532412109375,0.03742474317550659,-0.1635557860136032,-0.20451009273529053
1761315703074224000,6.16322412109375,0.006686272565275431,-0.16663971543312073,-0.16126835346221924
1761315703084206300,6.173206298828125,-0.019520558416843414,-0.14921611547470093,-0.12351740896701813
1761315703094188300,6.183188232421875,-0.04033049941062927,-0.11149697750806808,-0.10175032168626785
1761315703104171300,6.193171142578125,-0.06583918631076813,-0.07476034015417099,-0.09304756671190262
1761315703114153500,6.203153564453125,-0.09158822894096375,-0.06979753822088242,-0.10347703844308853
1761315703124135200,6.21313525390625,-0.13619254529476166,-0.08257582783699036,-0.13780955970287323
1761315703134118400,6.223118408203125,-0.18569032847881317,-0.1188797727227211,-0.18238793313503265
1761315703144100000,6.23310009765625,-0.2336883395910263,-0.15312379598617554,-0.2138947993516922
1761315703154082000,6.24308203125,-0.27627015113830566,-0.16942447423934937,-0.22947269678115845
1761315703164065000,6.25306494140625,-0.3097536861896515,-0.17595039308071136,-0.2299553006887436
1761315703174047200,6.263047119140625,-0.3301721513271332,-0.19285453855991364,-0.22450967133045197
1761315703184029200,6.273029296875,-0.3376888632774353,-0.20882941782474518,-0.20442156493663788
1761315703194012200,6.28301220703125,-0.34029608964920044,-0.18749696016311646,-0.1727461814880371
1761315703203994400,6.292994384765625,-0.3196040987968445,-0.11548555642366409,-0.10912053287029266
1761315703213976000,6.30297607421875,-0.2744416892528534,-0.04651501029729843,-0.038673266768455505
1761315703223959300,6.312959228515625,-0.23210816085338593,-0.030657736584544182,0.020525604486465454
1761315703233941000,6.32294091796875,-0.2363918572664261,-0.10635755956172943,0.03321077302098274
1761315703243923200,6.332923095703125,-0.2879517078399658,-0.2611965537071228,-0.01767120137810707
1761315703253906200,6.34290625,-0.3827948570251465,-0.43348440527915955,-0.11625876277685165
1761315703263888100,6.35288818359375,-0.4915574789047241,-0.5508535504341125,-0.21985317766666412
1761315703273870300,6.362870361328125,-0.5806418061256409,-0.5655661821365356,-0.2979639768600464
1761315703283853000,6.37285302734375,-0.6413075923919678,-0.4734618663787842,-0.3118494749069214
1761315703293835300,6.382835205078125,-0.6590312123298645,-0.2949562966823578,-0.2598208785057068
1761315703303817200,6.392817138671875,-0.6207512021064758,-0.10002277791500092,-0.16003009676933289
1761315703313800200,6.40280029296875,-0.5289459228515625,0.02660227008163929,-0.041730087250471115
1761315703323782100,6.4127822265625,-0.4048472046852112,0.031269341707229614,0.08759751170873642
1761315703333764000,6.42276416015625,-0.2891389727592468,-0.054826393723487854,0.19882656633853912
1761315703343747000,6.4327470703125,-0.1943701058626175,-0.1816154271364212,0.2859260141849518
1761315703353729300,6.442729248046875,-0.1409713327884674,-0.3003769814968109,0.3474673926830292
1761315703363711200,6.452711181640625,-0.13537544012069702,-0.37631016969680786,0.36318662762641907
1761315703373694200,6.462694091796875,-0.18149393796920776,-0.38047802448272705,0.34306883811950684
1761315703383676200,6.47267626953125,-0.24609729647636414,-0.31252336502075195,0.31616657972335815
1761315703393658000,6.482658203125,-0.30708956718444824,-0.1970319300889969,0.29402637481689453
1761315703403641300,6.492641357421875,-0.33610185980796814,-0.09143055230379105,0.297726571559906
1761315703413623000,6.502623046875,-0.33416491746902466,-0.04062516242265701,0.32576221227645874
1761315703423605200,6.512605224609375,-0.2827019989490509,-0.026173489168286324,0.3780510723590851
1761315703433588200,6.522588134765625,-0.20727168023586273,-0.05716336518526077,0.4403932988643646
1761315703443570200,6.532570068359375,-0.1391264945268631,-0.12853457033634186,0.503150224685669
1761315703453552000,6.54255224609375,-0.08158624172210693,-0.21313388645648956,0.5660136342048645
1761315703463535000,6.55253515625,-0.0739312395453453,-0.3047081232070923,0.6072192192077637
1761315703473517000,6.56251708984375,-0.10008001327514648,-0.3876836895942688,0.6231571435928345
1761315703483500300,6.572500244140625,-0.1553923636674881,-0.45868247747421265,0.6073603630065918
1761315703493482200,6.582482177734375,-0.23722277581691742,-0.50467449426651,0.5547573566436768
1761315703503464200,6.592464111328125,-0.34165728092193604,-0.5465144515037537,0.4730897843837738
1761315703513447200,6.602447265625,-0.46351316571235657,-0.5518469214439392,0.354464590549469
1761315703523429000,6.61242919921875,-0.5730727314949036,-0.5212470293045044,0.22586049139499664
1761315703533411300,6.622411376953125,-0.6521790027618408,-0.46966075897216797,0.0998074859380722
1761315703543394000,6.63239404296875,-0.7010239362716675,-0.38779208064079285,-0.014287028461694717
1761315703553376300,6.642376220703125,-0.7287389039993286,-0.3150941729545593,-0.11420270800590515
1761315703563358000,6.65235791015625,-0.7330542802810669,-0.22499127686023712,-0.18295906484127045
1761315703573341200,6.662341064453125,-0.7037187218666077,-0.1158144548535347,-0.22168755531311035
1761315703583323100,6.6723232421875,-0.6436577439308167,-0.011625506915152073,-0.23597459495067596
1761315703593305000,6.68230517578125,-0.5793737769126892,0.07087788730859756,-0.23572824895381927
1761315703603288000,6.6922880859375,-0.5079695582389832,0.1230139285326004,-0.21704962849617004
1761315703613270000,6.70227001953125,-0.44316554069519043,0.17315912246704102,-0.18484587967395782
1761315703623252200,6.712252197265625,-0.3855496048927307,0.18983618915081024,-0.1439318209886551
1761315703633235200,6.722235107421875,-0.3503311574459076,0.20378956198692322,-0.11558832973241806
1761315703643217200,6.732217041015625,-0.3225391209125519,0.20401304960250854,-0.10094938427209854
1761315703653199000,6.74219921875,-0.30089932680130005,0.16000111401081085,-0.10112728178501129
1761315703663182300,6.752182373046875,-0.2999783158302307,0.1197330430150032,-0.12153374403715134
1761315703673164000,6.7621640625,-0.3109143078327179,0.06535742431879044,-0.1588587462902069
1761315703683146200,6.772146240234375,-0.3281998038291931,-0.020452681928873062,-0.20629151165485382
1761315703693129000,6.78212890625,-0.3452190160751343,-0.10197204351425171,-0.25913476943969727
1761315703703111200,6.792111083984375,-0.34190860390663147,-0.14068450033664703,-0.3062423765659332
1761315703713093000,6.802093017578125,-0.31062495708465576,-0.13914331793785095,-0.3387385606765747
1761315703723076000,6.812076171875,-0.2673010528087616,-0.1183057427406311,-0.365853488445282
1761315703733058300,6.822058349609375,-0.22851450741291046,-0.086109459400177,-0.38667646050453186
1761315703743040000,6.8320400390625,-0.200056254863739,-0.05276988446712494,-0.40284663438796997
1761315703753023200,6.842023193359375,-0.18246740102767944,-0.02678249403834343,-0.4170988202095032
1761315703763005200,6.852005126953125,-0.1715054214000702,-0.011186549440026283,-0.41697731614112854
1761315703772987100,6.861987060546875,-0.1572471261024475,0.01945844478905201,-0.4001956880092621
1761315703782970000,6.87197021484375,-0.1459619253873825,0.06122170016169548,-0.3665512502193451
1761315703792952000,6.8819521484375,-0.13012570142745972,0.10539848357439041,-0.32307007908821106
1761315703802934300,6.891934326171875,-0.10389894992113113,0.1574282944202423,-0.2618788182735443
1761315703812917200,6.901917236328125,-0.06906906515359879,0.23371614515781403,-0.19225792586803436
1761315703822899200,6.911899169921875,-0.039952266961336136,0.31046339869499207,-0.1347871720790863
1761315703832881200,6.921881103515625,-0.008102993480861187,0.3682292401790619,-0.09495001286268234
1761315703842864400,6.931864501953125,0.024920189753174782,0.3864362835884094,-0.07107476890087128
1761315703852846000,6.94184619140625,0.06148991733789444,0.374468594789505,-0.06401713192462921
1761315703862828300,6.951828369140625,0.09629996120929718,0.35848501324653625,-0.061117932200431824
1761315703872811000,6.96181103515625,0.13353653252124786,0.35143643617630005,-0.057447031140327454
1761315703882793200,6.971793212890625,0.15113408863544464,0.3530050218105316,-0.05400208383798599
1761315703892775200,6.981775146484375,0.16057978570461273,0.36360493302345276,-0.05265266075730324
1761315703902758100,6.991758056640625,0.16049593687057495,0.3715093731880188,-0.04787246137857437
1761315703912740400,7.001740234375,0.15677310526371002,0.35827717185020447,-0.043202076107263565
1761315703922723000,7.01172314453125,0.14752979576587677,0.33191415667533875,-0.03971175104379654
1761315703932705300,7.021705322265625,0.1429009586572647,0.30428335070610046,-0.029644470661878586
1761315703942687200,7.031687255859375,0.13394972681999207,0.2983076572418213,-0.01921834610402584
1761315703952670200,7.041670166015625,0.12354820966720581,0.28045886754989624,-0.028283480554819107
1761315703962652200,7.051652099609375,0.11826954036951065,0.25108909606933594,-0.052128054201602936
1761315703972634000,7.061634033203125,0.11187049746513367,0.2358803004026413,-0.08682611584663391
1761315703982617000,7.0716171875,0.11502877622842789,0.2716311514377594,-0.12052514404058456
1761315703992599300,7.081599365234375,0.14057382941246033,0.33636727929115295,-0.14317452907562256
1761315704002581000,7.0915810546875,0.1788131445646286,0.40508851408958435,-0.14420859515666962
1761315704012564200,7.101564208984375,0.21459271013736725,0.48459237813949585,-0.115779347717762
1761315704022546200,7.111546142578125,0.23665942251682281,0.5729461312294006,-0.06271537393331528
1761315704032528100,7.121528076171875,0.2639443278312683,0.7129077911376953,0.02366691641509533
1761315704042511000,7.131510986328125,0.31499090790748596,0.8482717275619507,0.12079624831676483
1761315704052493000,7.1414931640625,0.36398589611053467,0.9042242169380188,0.19710034132003784
1761315704062475300,7.151475341796875,0.39328697323799133,0.850861668586731,0.2359616905450821
1761315704072458200,7.161458251953125,0.36142227053642273,0.7448260188102722,0.22897621989250183
1761315704082440200,7.171440185546875,0.3037991225719452,0.5939030647277832,0.19583846628665924
1761315704092422100,7.181422119140625,0.2484080195426941,0.4244341254234314,0.15123291313648224
1761315704102405000,7.191405029296875,0.20759369432926178,0.28753504157066345,0.10451075434684753
1761315704112387000,7.201386962890625,0.1822744905948639,0.20844635367393494,0.061357952654361725
1761315704122369000,7.211369140625,0.19630438089370728,0.197061225771904,0.025648420676589012
1761315704132352000,7.22135205078125,0.23157183825969696,0.2674435079097748,0.0019377665594220161
1761315704142334200,7.231334228515625,0.2781445384025574,0.3948323130607605,-0.012896917760372162
1761315704152316400,7.24131640625,0.32371628284454346,0.5310578346252441,-0.027457749471068382
1761315704162299400,7.25129931640625,0.3474118411540985,0.627825140953064,-0.03324948251247406
1761315704172281300,7.26128125,0.34750986099243164,0.6604680418968201,-0.025936173275113106
1761315704182263300,7.27126318359375,0.35703393816947937,0.6486203670501709,0.0005477918311953545
1761315704192246300,7.281246337890625,0.38031554222106934,0.5896156430244446,0.033378709107637405
1761315704202228200,7.291228271484375,0.40316978096961975,0.4945652186870575,0.0702558383345604
1761315704212210200,7.301210205078125,0.4285656809806824,0.37794700264930725,0.111958809196949
1761315704222193200,7.311193115234375,0.4578305780887604,0.2840648889541626,0.1569061279296875
1761315704232175400,7.32117529296875,0.48707953095436096,0.24636517465114594,0.21035736799240112
1761315704242157300,7.3311572265625,0.5338311195373535,0.25850048661231995,0.2659880220890045
1761315704252140300,7.341140380859375,0.6062517762184143,0.31368306279182434,0.3333430886268616
1761315704262122500,7.35112255859375,0.7065290808677673,0.38998615741729736,0.4037984311580658
1761315704272104200,7.361104248046875,0.7941817045211792,0.45219549536705017,0.4706653356552124
1761315704282087400,7.37108740234375,0.8402881026268005,0.45790863037109375,0.5150730013847351
1761315704292069000,7.381069091796875,0.8468573093414307,0.40845346450805664,0.5273722410202026
1761315704302051300,7.39105126953125,0.8287128210067749,0.3295534551143646,0.5085123181343079
1761315704312034300,7.401034423828125,0.8050040602684021,0.23745283484458923,0.45985153317451477
1761315704322016300,7.411016357421875,0.7756263017654419,0.13209618628025055,0.39236462116241455
1761315704331998500,7.42099853515625,0.7420086860656738,0.026666168123483658,0.3026432693004608
1761315704341981200,7.430981201171875,0.6842174530029297,-0.07330850511789322,0.19598659873008728
1761315704351963400,7.44096337890625,0.6110407114028931,-0.13899163901805878,0.07140819728374481
1761315704361946400,7.4509462890625,0.5664792060852051,-0.17663413286209106,-0.04496240243315697
1761315704371928300,7.46092822265625,0.5413999557495117,-0.1834464967250824,-0.1381075233221054
1761315704381910300,7.47091015625,0.5462118983268738,-0.15606984496116638,-0.19949212670326233
1761315704391893500,7.4808935546875,0.5664119720458984,-0.11698448657989502,-0.2357308268547058
1761315704401875200,7.490875244140625,0.5953050255775452,-0.05877229943871498,-0.23843660950660706
1761315704411857400,7.500857421875,0.6247981786727905,-0.003813443472608924,-0.2103133648633957
1761315704421840100,7.510840087890625,0.6310473680496216,0.017411574721336365,-0.16726872324943542
1761315704431822300,7.520822265625,0.6241772174835205,0.02459838055074215,-0.12595883011817932
1761315704441804300,7.53080419921875,0.6165704727172852,0.038236215710639954,-0.07845860719680786
1761315704451787300,7.540787353515625,0.6389777660369873,0.06944873183965683,-0.04073893278837204
1761315704461769200,7.550769287109375,0.6696162819862366,0.10121958702802658,-0.009222285822033882
1761315704471751200,7.560751220703125,0.6875161528587341,0.10721994936466217,0.014272120781242847
1761315704481734400,7.570734375,0.6785870790481567,0.12456545233726501,0.032716307789087296
1761315704491716400,7.58071630859375,0.6623148918151855,0.16572247445583344,0.04477483406662941
1761315704501698300,7.5906982421875,0.6463728547096252,0.21887527406215668,0.03842402622103691
1761315704511681300,7.600681396484375,0.6297309994697571,0.26093268394470215,0.017868151888251305
1761315704521663200,7.610663330078125,0.6174258589744568,0.2696055471897125,-0.025601260364055634
1761315704531645200,7.620645263671875,0.5992404818534851,0.23712590336799622,-0.0880766212940216
1761315704541628400,7.63062841796875,0.5705392956733704,0.1891506016254425,-0.1502348780632019
1761315704551610000,7.640610107421875,0.5411113500595093,0.11913955956697464,-0.20866675674915314
1761315704561592300,7.65059228515625,0.5123330354690552,0.018099971115589142,-0.2675573527812958
1761315704571575000,7.660574951171875,0.4873722791671753,-0.10079898685216904,-0.3148582875728607
1761315704581557200,7.67055712890625,0.4595835208892822,-0.19888079166412354,-0.3373088538646698
1761315704591539500,7.68053955078125,0.4458296298980713,-0.24969284236431122,-0.33685052394866943
1761315704601522200,7.690522216796875,0.43973270058631897,-0.2543894946575165,-0.3150252103805542
1761315704611504400,7.70050439453125,0.4507656693458557,-0.22503533959388733,-0.28685271739959717
1761315704621486000,7.710486083984375,0.46432530879974365,-0.17379415035247803,-0.24945205450057983
1761315704631469300,7.72046923828125,0.48383456468582153,-0.12373311817646027,-0.20328295230865479
1761315704641451300,7.730451171875,0.4924654960632324,-0.08803717792034149,-0.1511915624141693
1761315704651433200,7.74043310546875,0.4947662055492401,-0.06965737044811249,-0.09121423959732056
1761315704661416200,7.750416259765625,0.4747377336025238,-0.0783262550830841,-0.04735711216926575
1761315704671398400,7.7603984375,0.43712082505226135,-0.1280035376548767,-0.022864552214741707
1761315704681380400,7.77038037109375,0.3797546625137329,-0.22265625,-0.009298681281507015
1761315704691363300,7.78036328125,0.31309598684310913,-0.3079080283641815,0.007218509912490845
1761315704701345300,7.79034521484375,0.26982972025871277,-0.3492680490016937,0.0330074205994606
1761315704711327200,7.8003271484375,0.2536797821521759,-0.3518174886703491,0.07274816930294037
1761315704721310500,7.810310546875,0.24945533275604248,-0.32305240631103516,0.09350919723510742
1761315704731292200,7.820292236328125,0.237537682056427,-0.2983534336090088,0.08954295516014099
1761315704741274400,7.8302744140625,0.20674343407154083,-0.2760055661201477,0.06533530354499817
1761315704751257000,7.840257080078125,0.17013216018676758,-0.2708563208580017,0.02774025686085224
1761315704761239300,7.8502392578125,0.14109636843204498,-0.26574623584747314,-0.00801769644021988
1761315704771221500,7.860221435546875,0.12235197424888611,-0.2546885013580322,-0.042235054075717926
1761315704781204200,7.870204345703125,0.10939669609069824,-0.26094478368759155,-0.08091378211975098
1761315704791186400,7.8801865234375,0.07859590649604797,-0.27977919578552246,-0.12026304751634598
1761315704801168100,7.890168212890625,0.040102265775203705,-0.3199145495891571,-0.1554718166589737
1761315704811151400,7.9001513671875,-0.009835734032094479,-0.37218600511550903,-0.18944230675697327
1761315704821133300,7.91013330078125,-0.0665929839015007,-0.43785417079925537,-0.21645814180374146
1761315704831116300,7.9201162109375,-0.12349648028612137,-0.5104343891143799,-0.2311611771583557
1761315704841098200,7.93009814453125,-0.16266562044620514,-0.5655494928359985,-0.23397524654865265
1761315704851080200,7.940080078125,-0.16270822286605835,-0.5731544494628906,-0.21797123551368713
1761315704861063200,7.950063232421875,-0.11638283729553223,-0.48467350006103516,-0.16922388970851898
1761315704871045400,7.96004541015625,-0.02469286322593689,-0.3642038106918335,-0.09432648122310638
1761315704881027300,7.97002734375,0.061814840883016586,-0.3214172124862671,-0.012746904045343399
1761315704891010300,7.98001025390625,0.08404079079627991,-0.3689575791358948,0.04340478032827377
1761315704900992500,7.989992431640625,0.03306908905506134,-0.48544299602508545,0.06467591971158981
1761315704910974200,7.99997412109375,-0.03608947619795799,-0.6263636350631714,0.06199704110622406
1761315704920957400,8.00995751953125,-0.07673893123865128,-0.7462096214294434,0.05164003744721413
1761315704930939100,8.019939208984376,-0.09386198967695236,-0.8177900910377502,0.03679904341697693
1761315704940921300,8.02992138671875,-0.10703322291374207,-0.7991732954978943,0.01890731416642666
1761315704950904300,8.039904296875,-0.11172864586114883,-0.7107206583023071,0.010252573527395725
1761315704960886300,8.04988623046875,-0.10168839246034622,-0.5506415963172913,0.02988307550549507
1761315704970868200,8.0598681640625,-0.07701820135116577,-0.32363027334213257,0.07530568540096283
1761315704980851200,8.069851318359374,-0.010215677320957184,-0.06321272999048233,0.13395333290100098
1761315704990833400,8.07983349609375,0.07674824446439743,0.1426895707845688,0.19638954102993011
1761315705000815400,8.0898154296875,0.1583472639322281,0.25200212001800537,0.2528144419193268
1761315705010798300,8.09979833984375,0.22359390556812286,0.2669461667537689,0.306856632232666
1761315705020780300,8.1097802734375,0.2747489809989929,0.20461595058441162,0.35991397500038147
1761315705030762200,8.11976220703125,0.3084597885608673,0.10628193616867065,0.4088793992996216
1761315705040745200,8.1297451171875,0.32343828678131104,0.009568443521857262,0.4505833089351654
1761315705050727400,8.1397275390625,0.3219389319419861,-0.07003477215766907,0.4815886318683624
1761315705060709000,8.149709228515626,0.32280048727989197,-0.11474866420030594,0.4971514344215393
1761315705070692400,8.1596923828125,0.32430145144462585,-0.12699094414710999,0.4967261254787445
1761315705080674000,8.169674072265625,0.33197441697120667,-0.09406281262636185,0.4868565797805786
1761315705090656300,8.17965625,0.34871983528137207,-0.02927022986114025,0.4620188772678375
1761315705100639200,8.18963916015625,0.37544476985931396,0.037142906337976456,0.43259677290916443
1761315705110621200,8.19962109375,0.40237197279930115,0.09571646898984909,0.3905031085014343
1761315705120603400,8.209603271484376,0.4226236343383789,0.13464926183223724,0.34753361344337463
1761315705130586400,8.21958642578125,0.43957147002220154,0.15147936344146729,0.3025517761707306
1761315705140568600,8.229568603515625,0.45101386308670044,0.1521710604429245,0.2588132619857788
1761315705150550500,8.239550537109375,0.4507550001144409,0.14452113211154938,0.21175575256347656
1761315705160533500,8.249533447265625,0.4303436875343323,0.11497564613819122,0.15858584642410278
1761315705170515500,8.259515380859375,0.38708940148353577,0.07299437373876572,0.09367955476045609
1761315705180497700,8.26949755859375,0.3273889720439911,0.046904306858778,0.02434256114065647
1761315705190480400,8.27948046875,0.26336872577667236,0.05869146063923836,-0.03420330211520195
1761315705200462600,8.289462646484376,0.23126380145549774,0.1233273521065712,-0.09298649430274963
1761315705210444500,8.299444580078125,0.23971854150295258,0.22216792404651642,-0.1404712051153183
1761315705220427500,8.309427490234375,0.2956370711326599,0.34812965989112854,-0.1670733243227005
1761315705230409700,8.31940966796875,0.37754496932029724,0.4834456741809845,-0.16560831665992737
1761315705240392400,8.329392333984375,0.48118725419044495,0.5764418244361877,-0.13421501219272614
1761315705250374700,8.339374755859374,0.593367874622345,0.6239805817604065,-0.0703689232468605
1761315705260356400,8.3493564453125,0.6981267333030701,0.6424891948699951,0.015034507028758526
1761315705270339600,8.359339599609376,0.7763453722000122,0.630546510219574,0.11345801502466202
1761315705280321500,8.369321533203125,0.8205761909484863,0.5919489860534668,0.2035941779613495
1761315705290303500,8.379303466796875,0.8456516861915588,0.5405400991439819,0.2759264409542084
1761315705300286500,8.389286376953125,0.8455660939216614,0.4690757393836975,0.32258468866348267
1761315705310268700,8.3992685546875,0.8248368501663208,0.39309656620025635,0.331863135099411
1761315705320250600,8.409250732421874,0.7981700897216797,0.3226867914199829,0.3090136647224426
1761315705330233600,8.419233642578124,0.7637676000595093,0.2578769028186798,0.2547312378883362
1761315705340215600,8.429215576171876,0.7183736562728882,0.20659229159355164,0.1744362860918045
1761315705350197500,8.439197509765625,0.6753438711166382,0.17656674981117249,0.07247555255889893
1761315705360180700,8.4491806640625,0.6334373354911804,0.17934349179267883,-0.042399488389492035
1761315705370162400,8.459162353515625,0.6000410318374634,0.2168802171945572,-0.16377173364162445
1761315705380144600,8.46914453125,0.5813962817192078,0.2848566174507141,-0.28358975052833557
1761315705390127400,8.47912744140625,0.5826117396354675,0.3762850761413574,-0.38800618052482605
1761315705400109600,8.489109619140624,0.5930267572402954,0.4535406827926636,-0.4814527630805969
1761315705410091500,8.499091552734376,0.6124641299247742,0.5070145726203918,-0.5493249893188477
1761315705420074500,8.509074462890625,0.6213639974594116,0.5540185570716858,-0.5863755941390991
1761315705430056400,8.519056396484375,0.657799243927002,0.5917172431945801,-0.5829609036445618
1761315705440038400,8.529038330078125,0.6995118260383606,0.611224889755249,-0.5598546266555786
1761315705450021600,8.539021728515625,0.740134060382843,0.6081430912017822,-0.5191676616668701
1761315705460003600,8.549003662109374,0.7654998302459717,0.5837376117706299,-0.4705548584461212
1761315705469985500,8.558985595703126,0.7880620956420898,0.5584381222724915,-0.4164644479751587
1761315705479968500,8.568968505859376,0.8103243112564087,0.5153598189353943,-0.3657889664173126
1761315705489950500,8.578950439453125,0.8306061625480652,0.4466627538204193,-0.32630547881126404
1761315705499932400,8.588932373046875,0.8610146045684814,0.3875620663166046,-0.28626900911331177
1761315705509915600,8.59891552734375,0.9113158583641052,0.3711276948451996,-0.24257107079029083
1761315705519897300,8.6088974609375,0.9519777894020081,0.37075549364089966,-0.20898404717445374
1761315705529879600,8.618879638671874,0.9835567474365234,0.3630075454711914,-0.19519926607608795
1761315705539862500,8.628862548828126,0.9999809861183167,0.3447328805923462,-0.20676849782466888
1761315705549844500,8.638844482421876,0.9889443516731262,0.3317968249320984,-0.23297053575515747
1761315705559826700,8.64882666015625,0.986243724822998,0.3302037715911865,-0.2711945176124573
1761315705569809400,8.658809326171875,0.9899618029594421,0.34177252650260925,-0.298492968082428
1761315705579791600,8.66879150390625,0.992364764213562,0.3566121757030487,-0.316692590713501
1761315705589773300,8.678773193359374,0.9957402944564819,0.3705386519432068,-0.31978318095207214
1761315705599756500,8.688756591796874,1.000483512878418,0.39184242486953735,-0.3128701448440552
1761315705609738500,8.698738525390626,1.011980652809143,0.4039669930934906,-0.2931368947029114
1761315705619720400,8.708720458984375,1.037215232849121,0.4062414765357971,-0.26456040143966675
1761315705629703400,8.718703369140625,1.060436725616455,0.3937872052192688,-0.22797361016273499
1761315705639685600,8.728685546875,1.073792815208435,0.3719712793827057,-0.18672938644886017
1761315705649668400,8.73866845703125,1.0807068347930908,0.35959264636039734,-0.15912652015686035
1761315705659650600,8.748650634765625,1.08287513256073,0.35554012656211853,-0.14498278498649597
1761315705669632500,8.758632568359374,1.0909795761108398,0.33645325899124146,-0.14153185486793518
1761315705679615500,8.768615478515626,1.0906416177749634,0.3072836101055145,-0.1355644315481186
1761315705689597700,8.77859765625,1.0929337739944458,0.2759355306625366,-0.1407453417778015
1761315705699579400,8.788579345703125,1.0853970050811768,0.2522687017917633,-0.14916588366031647
1761315705709562600,8.798562744140625,1.0767822265625,0.22524665296077728,-0.1550235003232956
1761315705719544600,8.808544677734375,1.0644084215164185,0.20229530334472656,-0.17093871533870697
1761315705729526500,8.818526611328124,1.0524548292160034,0.20667007565498352,-0.18165633082389832
1761315705739509500,8.828509521484374,1.0519919395446777,0.22343696653842926,-0.18425068259239197
1761315705749491500,8.838491455078126,1.0629234313964844,0.23154523968696594,-0.17183448374271393
1761315705759473700,8.8484736328125,1.0795978307724,0.26015621423721313,-0.1434377282857895
1761315705769456600,8.85845654296875,1.124634861946106,0.3704880475997925,-0.10052381455898285
1761315705779438600,8.8684384765625,1.1972779035568237,0.5167574882507324,-0.05161987617611885
1761315705789420500,8.878420654296875,1.2602156400680542,0.5426961183547974,-0.02833745814859867
1761315705799403500,8.888403564453125,1.287081003189087,0.44098252058029175,-0.04468923434615135
1761315705809385500,8.898385498046874,1.248905897140503,0.2908998131752014,-0.09313905984163284
1761315705819367700,8.90836767578125,1.1980786323547363,0.13464513421058655,-0.14682377874851227
1761315705829350400,8.918350341796875,1.1445392370224,-0.06305702775716782,-0.2009354829788208
1761315705839332600,8.92833251953125,1.0569125413894653,-0.2845221757888794,-0.2461756318807602
1761315705849314600,8.938314453125,0.9451771974563599,-0.42244753241539,-0.24953360855579376
1761315705859297500,8.948297607421875,0.8567066788673401,-0.40851765871047974,-0.2137412577867508
1761315705869279700,8.95827978515625,0.8241199851036072,-0.2521815896034241,-0.13965292274951935
1761315705879261400,8.968261474609376,0.858523964881897,0.03769722953438759,-0.03479132801294327
1761315705889244700,8.97824462890625,0.9607821702957153,0.36703649163246155,0.06553393602371216
1761315705899226400,8.988226318359375,1.0665042400360107,0.5808104872703552,0.12893441319465637
1761315705909208600,8.99820849609375,1.156669020652771,0.6752645969390869,0.15163546800613403
1761315705919191600,9.008191650390625,1.2099595069885254,0.6835997104644775,0.15090392529964447
1761315705929173500,9.018173583984375,1.2589797973632812,0.6727811694145203,0.14471499621868134
1761315705939155500,9.028155517578124,1.3016597032546997,0.6484022736549377,0.13478891551494598
1761315705949138700,9.038138671875,1.3439525365829468,0.6024646162986755,0.13302670419216156
1761315705959120600,9.04812060546875,1.3828554153442383,0.5672125816345215,0.13742800056934357
1761315705969102600,9.0581025390625,1.4167907238006592,0.5513939261436462,0.14212101697921753
1761315705979085600,9.06808544921875,1.435796856880188,0.5316916704177856,0.13426105678081512
1761315705989067500,9.078067626953125,1.451941967010498,0.5237002968788147,0.11567911505699158
1761315705999049500,9.088049560546875,1.4797682762145996,0.5251497626304626,0.09985774755477905
1761315706009032400,9.098032470703124,1.4855092763900757,0.4912980794906616,0.10374490171670914
1761315706019014700,9.1080146484375,1.3956866264343262,0.5082707405090332,0.41426214575767517
1761315706028997400,9.117997314453126,1.3014410734176636,0.1434570550918579,0.49360382556915283
1761315706038979600,9.1279794921875,1.2393317222595215,-0.07948579639196396,0.5265098810195923
1761315706048961500,9.13796142578125,1.2232496738433838,-0.20666080713272095,0.46663698554039
1761315706058944500,9.147944580078125,1.2179721593856812,-0.291922926902771,0.3548913598060608
1761315706068926500,9.157926513671875,1.2122721672058105,-0.2710067331790924,0.21198055148124695
1761315706078908400,9.167908447265624,1.214430332183838,-0.18524836003780365,0.04930158704519272
1761315706088891400,9.177891357421874,1.2343864440917969,-0.041207555681467056,-0.09006189554929733
1761315706098873600,9.18787353515625,1.2696155309677124,0.09573657810688019,-0.175301194190979
