time,seconds_elapsed,z,y,x
1761315226444481000,0.06848095703125,0.012896270491182804,-0.1781616061925888,-0.010633843019604683
1761315226454462000,0.0784619140625,0.042233921587467194,-0.21899746358394623,0.0792907178401947
1761315226464444200,0.088444091796875,0.06287935376167297,-0.24988774955272675,0.15693555772304535
1761315226474425000,0.098425048828125,0.08128898590803146,-0.28484174609184265,0.20634624361991882
1761315226484407000,0.108406982421875,0.09325631707906723,-0.32966727018356323,0.23099711537361145
1761315226494389000,0.118388916015625,0.09298281371593475,-0.35142022371292114,0.22923436760902405
1761315226504370000,0.128369873046875,0.08204388618469238,-0.30236244201660156,0.2258361428976059
1761315226514352000,0.13835205078125,0.07874450087547302,-0.21267513930797577,0.2165723294019699
1761315226524334000,0.148333984375,0.0806366354227066,-0.12407229095697403,0.18450333178043365
1761315226534315000,0.15831494140625,0.08534564077854156,-0.05709272623062134,0.13112026453018188
1761315226544297000,0.168296875,0.09717132151126862,0.009114246815443039,0.09032400697469711
1761315226554278100,0.178278076171875,0.12088383734226227,0.06634904444217682,0.07534851878881454
1761315226564260000,0.188260009765625,0.14217829704284668,0.08596190810203552,0.06923160701990128
1761315226574242000,0.198241943359375,0.16252164542675018,0.06214286386966705,0.0673583373427391
1761315226584223000,0.208222900390625,0.16975219547748566,0.012243734672665596,0.05830762907862663
1761315226594205200,0.218205078125,0.1722201406955719,-0.040649041533470154,0.050621479749679565
1761315226604187100,0.228187255859375,0.1713915914297104,-0.0700221136212349,0.023202596232295036
1761315226614168000,0.23816796875,0.17242196202278137,-0.0723704919219017,-0.021399494260549545
1761315226624150000,0.24814990234375,0.17511305212974548,-0.05554569140076637,-0.0714363232254982
1761315226634132200,0.25813232421875,0.1738342046737671,-0.04986676573753357,-0.1056307777762413
1761315226644113200,0.268113037109375,0.16873614490032196,-0.04714290052652359,-0.11657314747571945
1761315226654094800,0.2780947265625,0.1518612951040268,-0.04442115128040314,-0.10808058828115463
1761315226664076000,0.288075927734375,0.1291743814945221,-0.057240549474954605,-0.0899716168642044
1761315226674058000,0.29805810546875,0.1099916324019432,-0.08073228597640991,-0.06850787252187729
1761315226684040000,0.3080400390625,0.0891871452331543,-0.10987338423728943,-0.05571870133280754
1761315226694020900,0.318020751953125,0.07577306777238846,-0.11406786739826202,-0.04548550397157669
1761315226704002800,0.3280029296875,0.07757563889026642,-0.10964807868003845,-0.03025766648352146
1761315226713985000,0.337985107421875,0.08780510723590851,-0.0924840047955513,-0.008463156409561634
1761315226723966000,0.347966064453125,0.09489843994379044,-0.06534665822982788,0.024955254048109055
1761315226733948000,0.357947998046875,0.1013728454709053,-0.05030219256877899,0.05674061179161072
1761315226743928800,0.3679287109375,0.1061205267906189,-0.04253028333187103,0.08032646775245667
1761315226753911000,0.3779111328125,0.09989192336797714,-0.03702579438686371,0.08784057945013046
1761315226763893000,0.38789306640625,0.09751250594854355,-0.010683141648769379,0.08282646536827087
1761315226773874000,0.3978740234375,0.09118563681840897,0.015078946948051453,0.05725159868597984
1761315226783855900,0.40785595703125,0.08526507019996643,0.03680792823433876,0.02522483840584755
1761315226793838000,0.417838134765625,0.08337342739105225,0.0536995604634285,-0.001938606146723032
1761315226803819000,0.427819091796875,0.08872725814580917,0.05995773524045944,-0.014128031209111214
1761315226813800700,0.43780078125,0.09111584722995758,0.05160979554057121,-0.005492997821420431
1761315226823783000,0.447782958984375,0.09135017544031143,0.028208596631884575,0.011277938261628151
1761315226833763800,0.457763916015625,0.08503049612045288,-0.015319706872105598,0.03882008418440819
1761315226843746000,0.46774609375,0.07494373619556427,-0.049646541476249695,0.07281766831874847
1761315226853727000,0.47772705078125,0.06935429573059082,-0.06821223348379135,0.10859111696481705
1761315226863709000,0.487708984375,0.07155472785234451,-0.07437478005886078,0.12321892380714417
1761315226873691000,0.49769091796875,0.07096163928508759,-0.06953208148479462,0.12503200769424438
1761315226883672000,0.507672119140625,0.07518907636404037,-0.047446224838495255,0.11745871603488922
1761315226893653800,0.51765380859375,0.07514061033725739,-0.009854372590780258,0.09664317965507507
1761315226903636000,0.527635986328125,0.07430215924978256,0.02919982746243477,0.07275962084531784
1761315226913617000,0.537616943359375,0.0714230164885521,0.06489896774291992,0.04428323358297348
1761315226923599000,0.54759912109375,0.061869118362665176,0.09251033514738083,0.004859820939600468
1761315226933580000,0.557580078125,0.06364863365888596,0.097457155585289,-0.029665667563676834
1761315226943562000,0.56756201171875,0.061144646257162094,0.09084881097078323,-0.05295480042695999
1761315226953544000,0.5775439453125,0.04980091378092766,0.08076129108667374,-0.059173014014959335
1761315226963524900,0.58752490234375,0.03575380519032478,0.061780668795108795,-0.056821443140506744
1761315226973506800,0.5975068359375,0.019524497911334038,0.031464312225580215,-0.044192999601364136
1761315226983489000,0.607489013671875,0.003188798204064369,-0.005597056820988655,-0.022554712370038033
1761315226993470000,0.617469970703125,-0.014753716997802258,-0.048311762511730194,0.0015993581619113684
1761315227003452000,0.627451904296875,-0.03549443930387497,-0.08609828352928162,0.023197848349809647
1761315227013433900,0.637433837890625,-0.050198283046483994,-0.0976572036743164,0.048636093735694885
1761315227023414800,0.647414794921875,-0.05500330403447151,-0.0767926499247551,0.06888610869646072
1761315227033397000,0.65739697265625,-0.04211653396487236,-0.023377366364002228,0.08012065291404724
1761315227043378000,0.6673779296875,-0.02422579750418663,0.02456486225128174,0.07235318422317505
1761315227053359900,0.67735986328125,-0.00036414130590856075,0.06181023642420769,0.06298338621854782
1761315227063341800,0.687341796875,0.028857368975877762,0.0857914462685585,0.04906057193875313
1761315227073323000,0.697322998046875,0.04989900439977646,0.09864252805709839,0.03071112558245659
1761315227083305000,0.707304931640625,0.06551917642354965,0.09220647811889648,0.012417564168572426
1761315227093287000,0.717286865234375,0.08073088526725769,0.06619459390640259,-0.004741715267300606
1761315227103267800,0.727267822265625,0.0848143920302391,0.029486913233995438,-0.0018457055557519197
1761315227113250000,0.73725,0.07178487628698349,0.01102694682776928,0.017910955473780632
1761315227123232000,0.74723193359375,0.05103684589266777,-0.00565616087988019,0.04425612837076187
1761315227133213000,0.757212890625,0.019901562482118607,-0.016200680285692215,0.059448398649692535
1761315227143195000,0.76719482421875,0.0002816480118781328,-0.007321438752114773,0.06357508152723312
1761315227153175800,0.77717578125,-0.007595716509968042,0.0157625749707222,0.05935503542423248
1761315227163158000,0.787157958984375,0.003308268263936043,0.02593478560447693,0.047192323952913284
1761315227173139700,0.7971396484375,0.021431611850857735,0.03357166796922684,0.03067752905189991
1761315227183121000,0.807120849609375,0.036550361663103104,0.03392026573419571,0.016257278621196747
1761315227193102800,0.817102783203125,0.04747118428349495,0.020700067281723022,0.002669831970706582
1761315227203085000,0.8270849609375,0.05879200994968414,0.010600576177239418,-0.0006439243443310261
1761315227213066000,0.83706591796875,0.0686800554394722,0.0015652687288820744,0.013107308186590672
1761315227223048000,0.8470478515625,0.07265245169401169,-0.013634726405143738,0.03886781260371208
1761315227233028900,0.85702880859375,0.06301740556955338,-0.04276544600725174,0.06581101566553116
1761315227243011000,0.867010986328125,0.04779772832989693,-0.07170524448156357,0.08327415585517883
1761315227252992800,0.87699267578125,0.03176124021410942,-0.07167249172925949,0.09152143448591232
1761315227262974000,0.886973876953125,0.020379118621349335,-0.06049197167158127,0.09038481116294861
1761315227272956000,0.896955810546875,0.013171806000173092,-0.054223425686359406,0.07960113883018494
1761315227282938000,0.906938232421875,-0.002805589232593775,-0.04133133217692375,0.061678849160671234
1761315227292919000,0.9169189453125,-0.02707311138510704,-0.024265794083476067,0.042428456246852875
1761315227302901000,0.92690087890625,-0.05130992829799652,0.023538965731859207,0.018582522869110107
1761315227312882000,0.9368818359375,-0.06577488780021667,0.05628545954823494,-0.007066380698233843
1761315227322863900,0.94686376953125,-0.07481438666582108,0.06498336791992188,-0.026184868067502975
1761315227332845800,0.956845703125,-0.07232832908630371,0.051565032452344894,-0.02682296186685562
1761315227342826800,0.96682666015625,-0.06631132960319519,0.04927579313516617,-0.011454256251454353
1761315227352809000,0.97680908203125,-0.04230399802327156,0.04127086326479912,0.006750046741217375
1761315227362791000,0.986791015625,-0.0154112558811903,0.023495066910982132,0.02684108167886734
1761315227372772000,0.996772216796875,0.008374234661459923,-0.007769912481307983,0.040414683520793915
1761315227382753800,1.00675390625,0.017802637070417404,-0.04728003591299057,0.050226859748363495
1761315227392736000,1.016736083984375,0.017507825046777725,-0.06188720464706421,0.04996853321790695
1761315227402717000,1.026717041015625,0.011053655296564102,-0.05070166289806366,0.040304720401763916
1761315227412699000,1.036698974609375,0.009828867390751839,-0.04492153972387314,0.01777064986526966
1761315227422679800,1.0466796875,0.01067549642175436,-0.027239777147769928,-0.001814268995076418
1761315227432662000,1.056662109375,0.006103914696723223,0.015090901404619217,-0.011841070838272572
1761315227442644000,1.06664404296875,-0.002019574400037527,0.04480701684951782,-0.012240555137395859
1761315227452625200,1.076625244140625,-0.019519470632076263,0.06063098460435867,-0.01029351819306612
1761315227462606800,1.08660693359375,-0.028805742040276527,0.06671442836523056,-0.009300543926656246
1761315227472589000,1.096589111328125,-0.029272329062223434,0.062304235994815826,-0.005367055535316467
1761315227482570000,1.106570068359375,-0.013161823153495789,0.03774295374751091,0.005964129697531462
1761315227492552000,1.116552001953125,0.008687016554176807,0.01643926091492176,0.03889837488532066
1761315227502532900,1.126532958984375,0.029610102996230125,0.0011745849624276161,0.07698772102594376
1761315227512514800,1.136514892578125,0.044594112783670425,-0.021590115502476692,0.10691765695810318
1761315227522497000,1.1464970703125,0.058477580547332764,-0.033825505524873734,0.11878611892461777
1761315227532478000,1.15647802734375,0.07029668241739273,-0.044672027230262756,0.1129508689045906
1761315227542460000,1.1664599609375,0.07566250115633011,-0.06161689758300781,0.08687064051628113
1761315227552441900,1.17644189453125,0.06466551125049591,-0.0746954157948494,0.04819275438785553
1761315227562423000,1.186423095703125,0.051814209669828415,-0.07258778810501099,0.0044520022347569466
1761315227572404700,1.19640478515625,0.03951120376586914,-0.05713292956352234,-0.035689827054739
1761315227582387000,1.206386962890625,0.02822798117995262,-0.02216457389295101,-0.06346950680017471
1761315227592367900,1.216367919921875,0.015628300607204437,0.0012278328649699688,-0.07354424148797989
1761315227602350000,1.22635009765625,0.003126275260001421,0.015039774589240551,-0.05559596046805382
1761315227612331000,1.2363310546875,-0.008500286377966404,0.024831417948007584,-0.01620035246014595
1761315227622313000,1.24631298828125,-0.01270591001957655,0.022199688479304314,0.026685107499361038
1761315227632295000,1.256294921875,-0.010523715987801552,0.014584645628929138,0.05689627304673195
1761315227642275800,1.26627587890625,0.005151894874870777,0.01816047914326191,0.073383629322052
1761315227652257800,1.2762578125,0.03840598836541176,0.02116585709154606,0.07017505168914795
1761315227662240000,1.286239990234375,0.06572354584932327,0.019042793661355972,0.056173671036958694
1761315227672221000,1.296220947265625,0.08394861966371536,0.019362904131412506,0.03628278896212578
1761315227682202600,1.30620263671875,0.08433746546506882,0.011585138738155365,0.02163195237517357
1761315227692183600,1.31618359375,0.06856436282396317,0.0004379446618258953,0.0057118427939713
1761315227702165500,1.32616552734375,0.04722565785050392,-0.0018558315932750702,0.010751756839454174
1761315227712147500,1.3361474609375,0.029729755595326424,0.007923295721411705,0.019515421241521835
1761315227722128600,1.346128662109375,0.01749652437865734,0.022133924067020416,0.03399715945124626
1761315227732110600,1.356110595703125,0.019033968448638916,0.039634887129068375,0.04317254573106766
1761315227742092500,1.366092529296875,0.022948570549488068,0.04706190526485443,0.04438216984272003
1761315227752073500,1.376073486328125,0.0258500836789608,0.03003631718456745,0.03612876683473587
1761315227762055700,1.3860556640625,0.0258623119443655,0.0056633371859788895,0.021913331001996994
1761315227772036600,1.39603662109375,0.023978127166628838,-0.015623575076460838,0.004968170076608658
1761315227782018600,1.4060185546875,0.030291933566331863,-0.02546503022313118,-0.006511148996651173
1761315227792000500,1.41600048828125,0.04236510768532753,-0.03409580513834953,-0.014077190309762955
1761315227801981400,1.4259814453125,0.04855910316109657,-0.03887856379151344,-0.0213710255920887
1761315227811963600,1.435963623046875,0.04672924429178238,-0.019261186942458153,-0.020335322245955467
1761315227821945600,1.445945556640625,0.04990723356604576,0.00250003719702363,-0.00973536353558302
1761315227831926500,1.455926513671875,0.04856713116168976,0.010519079864025116,0.009442325681447983
1761315227841908500,1.465908447265625,0.04909130558371544,0.0056382580660283566,0.02277120016515255
1761315227851889700,1.4758896484375,0.045700304210186005,-0.0012601278722286224,0.03350693732500076
1761315227861871400,1.485871337890625,0.046735577285289764,-0.005480408202856779,0.038459476083517075
1761315227871853600,1.495853515625,0.05157880485057831,-0.017150113359093666,0.047066811472177505
1761315227881834500,1.50583447265625,0.054473161697387695,-0.04174545407295227,0.05381718650460243
1761315227891816700,1.515816650390625,0.047138284891843796,-0.06522095203399658,0.05510722100734711
1761315227901798400,1.52579833984375,0.03722309321165085,-0.0630187839269638,0.03872373700141907
1761315227911779600,1.535779541015625,0.03373541682958603,-0.03710383549332619,0.016995271667838097
1761315227921761500,1.545761474609375,0.044507719576358795,-0.015427840873599052,-0.00023850263096392155
1761315227931743700,1.55574365234375,0.04876717925071716,-0.00009522400796413422,-0.008236241526901722
1761315227941724400,1.565724365234375,0.047429390251636505,0.0009665866382420063,-0.005875422619283199
1761315227951706600,1.57570654296875,0.037440672516822815,-0.00820667203515768,-0.0017693608533591032
1761315227961687600,1.5856875,0.0161325391381979,-0.017798321321606636,0.004922171123325825
1761315227971669500,1.59566943359375,0.00009498279541730881,-0.009321479126811028,0.012001385912299156
1761315227981651500,1.6056513671875,-0.01076874416321516,-0.0016528931446373463,0.013171191327273846
1761315227991632400,1.61563232421875,-0.00934848003089428,-0.007508918177336454,0.01361806970089674
1761315228001614600,1.625614501953125,-0.014288444072008133,-0.03533842787146568,0.008404298685491085
1761315228011596500,1.635596435546875,-0.017748689278960228,-0.05783601477742195,0.001987678464502096
1761315228021577500,1.645577392578125,-0.022949740290641785,-0.0595628060400486,0.002907105488702655
1761315228031559400,1.655559326171875,-0.015593556687235832,-0.04520357400178909,0.009759418666362762
1761315228041540600,1.66554052734375,-0.011531641706824303,-0.025593657046556473,0.012217575684189796
1761315228051522600,1.6755224609375,-0.008334251120686531,-0.009894056245684624,0.008012710139155388
1761315228061504500,1.68550439453125,-0.0113290473818779,0.013639776036143303,-0.0017875011544674635
1761315228071485400,1.6954853515625,-0.008674940094351768,0.0352444052696228,-0.0017920287791639566
1761315228081467600,1.705467529296875,-0.009691396728157997,0.04181388020515442,0.00700070895254612
1761315228091449600,1.71544970703125,-0.01494474895298481,0.03195539116859436,0.016460789367556572
1761315228101430500,1.725430419921875,-0.02300972491502762,0.023940876126289368,0.02591382898390293
1761315228111412500,1.73541259765625,-0.02140011079609394,0.014728204347193241,0.039179299026727676
1761315228121393400,1.745393310546875,-0.019402064383029938,-0.00019241869449615479,0.04367326572537422
1761315228131375600,1.755375732421875,-0.013516212813556194,-0.0013836510479450226,0.04306633025407791
1761315228141357600,1.765357666015625,-0.002165200188755989,0.013176120817661285,0.040185973048210144
1761315228151338500,1.77533837890625,0.011951684020459652,0.017859023064374924,0.03517816215753555
1761315228161320400,1.785320556640625,0.01647120714187622,0.012939093634486198,0.034807026386260986
1761315228171302700,1.795302734375,0.014492213726043701,0.01631198637187481,0.03520037606358528
1761315228181283600,1.80528369140625,0.008475816808640957,0.031278423964977264,0.038523703813552856
1761315228191265500,1.815265625,0.011916354298591614,0.03855098783969879,0.043625254184007645
1761315228201247500,1.82524755859375,0.01885812357068062,0.03692805767059326,0.041770078241825104
1761315228211228700,1.835228759765625,0.02710273675620556,0.024429839104413986,0.030331801623106003
1761315228221210400,1.84521044921875,0.03242078050971031,0.009382707066833973,0.021914027631282806
1761315228231191600,1.855191650390625,0.03825736418366432,0.0006504682824015617,0.026134870946407318
1761315228241173500,1.865173583984375,0.04195794835686684,-0.0012156134471297264,0.03005409613251686
1761315228251155700,1.87515576171875,0.04443202540278435,-0.0014779348857700825,0.03313430771231651
1761315228261136600,1.88513671875,0.043167535215616226,-0.013882400467991829,0.042679596692323685
1761315228271118600,1.89511865234375,0.04248176887631416,-0.03272080421447754,0.04897557571530342
1761315228281100500,1.9051005859375,0.03801663592457771,-0.05066865310072899,0.04824737831950188
1761315228291081700,1.915081787109375,0.030258579179644585,-0.04222962632775307,0.04890171438455582
1761315228301063400,1.9250634765625,0.024371253326535225,0.00047628534957766533,0.054183684289455414
1761315228311044400,1.93504443359375,0.01573888398706913,0.03450456261634827,0.04820461943745613
1761315228321026600,1.945026611328125,0.010951007716357708,0.05655740946531296,0.030901765450835228
1761315228331008500,1.955008544921875,0.005599651951342821,0.06868331134319305,0.010564536787569523
1761315228340989700,1.96498974609375,-0.0021607475355267525,0.0591295026242733,-0.0009663456585258245
1761315228350971400,1.974971435546875,-0.00719864945858717,0.04457559064030647,-0.009105764329433441
1761315228360953600,1.98495361328125,-0.011012881062924862,0.03739676624536514,-0.01011890359222889
1761315228370934500,1.9949345703125,-0.010364933870732784,0.029452022165060043,0.0005438609514385462
1761315228380916500,2.00491650390625,-0.00870610773563385,0.02019645832479,0.01114316564053297
1761315228390897400,2.0148974609375,-0.005391804501414299,-0.0015826057642698288,0.01427530962973833
1761315228400879600,2.024879638671875,-0.0034699835814535618,-0.026118021458387375,0.01927339658141136
1761315228410861600,2.034861572265625,-0.00864716898649931,-0.05305562913417816,0.020208431407809258
1761315228420842800,2.0448427734375,-0.01554584689438343,-0.07419687509536743,0.01942380890250206
1761315228430824400,2.054824462890625,-0.011023267172276974,-0.05842616781592369,0.01912606693804264
1761315228440806700,2.064806640625,-0.005432250909507275,-0.017339181154966354,0.0178727675229311
1761315228450787600,2.07478759765625,0.0015998262679204345,0.018937600776553154,0.01474674977362156
1761315228460769500,2.08476953125,0.004144194535911083,0.03356633707880974,0.008543686009943485
1761315228470750500,2.09475048828125,-0.005351039581000805,0.032392147928476334,0.003303650300949812
1761315228480732400,2.104732421875,-0.016308020800352097,0.0312280785292387,0.0020688013173639774
1761315228490714600,2.114714599609375,-0.023569928482174873,0.026341447606682777,-0.005830134265124798
1761315228500695600,2.124695556640625,-0.024958092719316483,0.0167255736887455,-0.011384541168808937
1761315228510677500,2.134677490234375,-0.018222160637378693,0.00969562865793705,-0.01122262142598629
1761315228520659500,2.144659423828125,-0.008009353652596474,-0.006321681197732687,-0.005394693464040756
1761315228530640600,2.154640625,0.002335696015506983,-0.01357746310532093,0.008442824706435204
1761315228540622600,2.16462255859375,0.009803668595850468,-0.020121648907661438,0.027428707107901573
1761315228550604500,2.1746044921875,0.013163778930902481,-0.030563903972506523,0.040669411420822144
1761315228560585500,2.18458544921875,0.008102002553641796,-0.025189129635691643,0.04134165495634079
1761315228570567700,2.194567626953125,0.007801065221428871,-0.018834829330444336,0.03140673041343689
1761315228580548600,2.204548583984375,0.0052537694573402405,-0.021138183772563934,0.00681486539542675
1761315228590530600,2.214530517578125,0.0005775251192972064,-0.027266917750239372,-0.023852232843637466
1761315228600512500,2.224512451171875,-0.00882150698453188,-0.021270811557769775,-0.04568210616707802
1761315228610493700,2.23449365234375,-0.01811141148209572,-0.013068809174001217,-0.052104316651821136
1761315228620475600,2.2444755859375,-0.02411567233502865,-0.0076418183743953705,-0.0482783168554306
1761315228630457600,2.25445751953125,-0.03164789080619812,-0.010145190171897411,-0.030616501346230507
1761315228640438500,2.2644384765625,-0.03385704383254051,-0.02470550686120987,-0.003363384399563074
1761315228650420700,2.274420654296875,-0.03259390592575073,-0.03991828113794327,0.020713189616799355
1761315228660401700,2.284401611328125,-0.030558086931705475,-0.044064804911613464,0.03384828940033913
1761315228670383400,2.29438330078125,-0.02704644203186035,-0.037443652749061584,0.03432925418019295
1761315228680365800,2.30436572265625,-0.012523936107754707,-0.021635932847857475,0.03064398653805256
1761315228690347000,2.314346923828125,0.006096087861806154,0.00465905386954546,0.02216874249279499
1761315228700328700,2.32432861328125,0.01974685862660408,0.024232469499111176,0.00786163192242384
1761315228710311000,2.334310791015625,0.023067554458975792,0.03796213120222092,-0.0018245512619614601
1761315228720291800,2.344291748046875,0.02608908712863922,0.04725392907857895,-0.009674008004367352
1761315228730273800,2.354273681640625,0.018606670200824738,0.05804692208766937,-0.0010863787028938532
1761315228740255000,2.3642548828125,0.015347697772085667,0.06927241384983063,0.018957575783133507
1761315228750236700,2.374236572265625,0.00760508980602026,0.06492959707975388,0.03619622066617012
1761315228760219000,2.384218994140625,0.005583737976849079,0.05054450407624245,0.05477544665336609
1761315228770199800,2.39419970703125,0.01680123805999756,0.029400601983070374,0.05979177728295326
1761315228780181800,2.404181640625,0.025893714278936386,0.0005982751026749611,0.0475291982293129
1761315228790163700,2.414163818359375,0.03231459856033325,-0.025361154228448868,0.012698512524366379
1761315228800145000,2.424144775390625,0.029201336205005646,-0.05084014683961868,-0.023120753467082977
1761315228810126800,2.434126953125,0.018791835755109787,-0.04933306574821472,-0.05771468207240105
1761315228820108000,2.44410791015625,0.012579552829265594,-0.03743460029363632,-0.07284379005432129
1761315228830089700,2.45408984375,0.008481215685606003,-0.035468392074108124,-0.07332129776477814
1761315228840072000,2.464072021484375,0.0027828302700072527,-0.027550827711820602,-0.06496486067771912
1761315228850052900,2.474052978515625,0.006812725216150284,-0.0021152417175471783,-0.05392578989267349
1761315228860034800,2.484034912109375,0.016336310654878616,0.005087024997919798,-0.043254900723695755
1761315228870016800,2.494016845703125,0.028057148680090904,-0.0003612698055803776,-0.03670299053192139
1761315228879997700,2.503997802734375,0.03309287875890732,-0.005050592124462128,-0.027476800605654716
1761315228889980000,2.51397998046875,0.04236174747347832,-0.013802538625895977,-0.01667342148721218
1761315228899961900,2.5239619140625,0.04497500881552696,-0.029654966667294502,-0.0066107092425227165
1761315228909942800,2.53394287109375,0.0431336984038353,-0.034853190183639526,0.010959762148559093
1761315228919924700,2.5439248046875,0.042018402367830276,-0.023496417328715324,0.016643216833472252
1761315228929906000,2.553906005859375,0.03218947350978851,-0.014060838147997856,0.01571723446249962
1761315228939887900,2.563887939453125,0.02823912538588047,-0.0022539887577295303,0.007774267345666885
1761315228949869800,2.573869873046875,0.02354850061237812,0.006236968096345663,-0.008055562153458595
1761315228959850800,2.583850830078125,0.021070236340165138,0.00028988253325223923,-0.02906886488199234
1761315228969833000,2.5938330078125,0.015611021779477596,0.006980807986110449,-0.04255830869078636
1761315228979814700,2.603814697265625,0.013140948489308357,0.02171473577618599,-0.04163660109043121
1761315228989795800,2.6137958984375,0.016670167446136475,0.023135265335440636,-0.03408787027001381
1761315228999777800,2.62377783203125,0.02026115171611309,0.01174759492278099,-0.01860107108950615
1761315229009759000,2.633759033203125,0.027035968378186226,0.0024925777688622475,-0.003429309232160449
1761315229019741000,2.643740966796875,0.0260334350168705,-0.025257039815187454,0.007466880138963461
1761315229029723000,2.653722900390625,0.0228461641818285,-0.05639365315437317,0.01686224713921547
1761315229039703800,2.663703857421875,0.019198691472411156,-0.0673711895942688,0.018142975866794586
1761315229049686000,2.67368603515625,0.011117063462734222,-0.06197136268019676,0.013260336592793465
1761315229059667700,2.683667724609375,0.013881158083677292,-0.040789645165205,-0.004115990363061428
1761315229069648600,2.693648681640625,0.015007409267127514,-0.02260531485080719,-0.016045354306697845
1761315229079630800,2.703630859375,0.015541808679699898,-0.014819313772022724,-0.03215360268950462
1761315229089611800,2.71361181640625,0.009949170984327793,-0.013632875867187977,-0.03507881984114647
1761315229099594000,2.723593994140625,0.0045348405838012695,-0.018269699066877365,-0.03126395866274834
1761315229109575700,2.73357568359375,-0.0009033343521878123,-0.027768129482865334,-0.02124408259987831
1761315229119556900,2.743556884765625,-0.002113905269652605,-0.030235813930630684,-0.009294640272855759
1761315229129538800,2.753538818359375,-0.006122495047748089,-0.028689049184322357,0.009459339082241058
1761315229139520800,2.763520751953125,-0.009078622795641422,-0.031072059646248817,0.013767237775027752
1761315229149501700,2.773501708984375,-0.007249563932418823,-0.03551527485251427,0.006589219439774752
1761315229159484000,2.78348388671875,-0.007136174943298101,-0.025575291365385056,-0.009646800346672535
1761315229169465900,2.7934658203125,-0.0002702793572098017,-0.01891978457570076,-0.022535700350999832
1761315229179447000,2.803447021484375,0.001089815516024828,-0.017043575644493103,-0.022915970534086227
1761315229189428700,2.8134287109375,0.0017121962737292051,-0.016378318890929222,-0.01408093236386776
1761315229199409700,2.82340966796875,-0.005030089523643255,-0.0068402038887143135,0.011261220090091228
1761315229209391900,2.833391845703125,-0.002928855363279581,0.010744914412498474,0.029639694839715958
1761315229219373800,2.843373779296875,-0.0033062491565942764,0.02264365553855896,0.03652208670973778
1761315229229354800,2.853354736328125,-0.002075602300465107,0.029660020023584366,0.025664113461971283
1761315229239336700,2.863336669921875,-0.0048662396147847176,0.033314917236566544,0.008955761790275574
1761315229249319000,2.87331884765625,-0.008937680162489414,0.029150530695915222,-0.000480882590636611
1761315229259299800,2.8832998046875,-0.010685577988624573,0.026890862733125687,-0.004447169601917267
1761315229269281800,2.89328173828125,-0.012664306908845901,0.019891541451215744,-0.0029861589428037405
1761315229279262700,2.9032626953125,-0.01474929228425026,0.00802634283900261,-0.0014479346573352814
1761315229289245000,2.913244873046875,-0.012753519229590893,0.005569309461861849,0.004909563809633255
1761315229299227000,2.923226806640625,-0.006058069411665201,0.015686942264437675,0.011280660517513752
1761315229309207800,2.933207763671875,0.005963173229247332,0.017418796196579933,0.007671012543141842
1761315229319189800,2.943189697265625,0.01508935634046793,0.02336803823709488,0.006620760075747967
1761315229329172000,2.953171875,0.01932191662490368,0.02793375961482525,0.00949484296143055
1761315229339153000,2.96315283203125,0.014280226081609726,0.034758638590574265,0.015469546429812908
1761315229349134800,2.973134765625,0.010988025926053524,0.037165869027376175,0.02183823101222515
1761315229359115800,2.98311572265625,0.0022164322435855865,0.03634849190711975,0.02206461690366268
1761315229369098000,2.993097900390625,-0.00028081389609724283,0.03748486563563347,0.01879691891372204
1761315229379080000,3.003079833984375,0.0011890092864632607,0.03575172275304794,0.012049589306116104
1761315229389060600,3.013060546875,0.005450599826872349,0.03144272789359093,0.006814613007009029
1761315229399042800,3.023042724609375,0.005876644514501095,0.027904966846108437,0.0031699989922344685
1761315229409025000,3.03302490234375,0.00352161074988544,0.03483264520764351,0.0012810189509764314
1761315229419006000,3.043005859375,0.0006732736947014928,0.02023748867213726,0.0012292992323637009
1761315229428987600,3.052987548828125,0.000008815084584057331,-0.0009908354841172695,0.005340154282748699
1761315229438969900,3.062969970703125,-0.008695374242961407,-0.020434871315956116,0.013902803882956505
1761315229448950800,3.07295068359375,-0.01868009753525257,-0.03305079787969589,0.02500578947365284
1761315229458933000,3.08293310546875,-0.02123480662703514,-0.021694790571928024,0.028187546879053116
1761315229468914000,3.092913818359375,-0.015289566479623318,0.009279903024435043,0.025149676948785782
1761315229478895900,3.102895751953125,-0.011903396807610989,0.03438311815261841,0.011983497068285942
1761315229488877800,3.1128779296875,-0.009864747524261475,0.045248813927173615,-0.006326801143586636
1761315229498859000,3.12285888671875,-0.014521018601953983,0.0487775057554245,-0.034269485622644424
1761315229508840700,3.1328408203125,-0.017447300255298615,0.04705683887004852,-0.05778093636035919
1761315229518823000,3.142822998046875,-0.02022547461092472,0.03208056837320328,-0.06845589727163315
1761315229528803800,3.152803955078125,-0.026998959481716156,0.02113817073404789,-0.07137472182512283
1761315229538786000,3.1627861328125,-0.029225273057818413,0.023526735603809357,-0.06115451455116272
1761315229548767000,3.17276708984375,-0.015896150842308998,0.0406242311000824,-0.04167056083679199
1761315229558748700,3.182748779296875,0.001679338631220162,0.04905259609222412,-0.019408974796533585
1761315229568731000,3.19273095703125,0.0248525682836771,0.03829235956072807,0.0014592884108424187
1761315229578711800,3.2027119140625,0.039376500993967056,0.013063732534646988,0.01932046376168728
1761315229588693800,3.21269384765625,0.04355047270655632,-0.014240591786801815,0.036864303052425385
1761315229598675700,3.22267578125,0.04145871102809906,-0.04170897603034973,0.05300265923142433
1761315229608657000,3.232656982421875,0.03818648308515549,-0.04891389235854149,0.06035032123327255
1761315229618638800,3.242638916015625,0.034762848168611526,-0.03990735486149788,0.059572529047727585
1761315229628620800,3.252620849609375,0.031014181673526764,-0.01571759395301342,0.05272820219397545
1761315229638601700,3.262601806640625,0.02797972969710827,0.002015074249356985,0.04045207053422928
1761315229648584000,3.272583984375,0.020539656281471252,-0.0010038851760327816,0.02920953370630741
1761315229658564900,3.28256494140625,0.011415774002671242,-0.011818463914096355,0.015369705855846405
1761315229668546800,3.292546875,0.010522816330194473,-0.017020415514707565,0.012228773906826973
1761315229678528500,3.302528564453125,0.013533247634768486,-0.02320213057100773,0.013480210676789284
1761315229688509400,3.312509521484375,0.01722412183880806,-0.028833918273448944,0.009866300038993359
1761315229698491600,3.32249169921875,0.018899066373705864,-0.032712072134017944,0.008376292884349823
1761315229708473300,3.332473388671875,0.017837263643741608,-0.0259415190666914,0.006874270271509886
1761315229718454500,3.34245458984375,0.014323078095912933,-0.00885408278554678,0.004809430800378323
1761315229728436500,3.3524365234375,0.01406182162463665,0.012069575488567352,0.0011936569353565574
1761315229738418700,3.362418701171875,0.013816365040838718,0.04115021973848343,0.0027484847232699394
1761315229748399600,3.372399658203125,0.010632289573550224,0.05436030030250549,0.010935574769973755
1761315229758381600,3.382381591796875,0.0032753096893429756,0.05597575381398201,0.018546337261795998
1761315229768362500,3.392362548828125,-0.0039059040136635303,0.042780324816703796,0.01790345087647438
1761315229778344700,3.4023447265625,-0.011503656394779682,0.01538173109292984,0.014948926866054535
1761315229788326400,3.412326416015625,-0.01542835682630539,-0.014759126119315624,0.0025159593205899
1761315229798307600,3.4223076171875,-0.02274307981133461,-0.03506625071167946,-0.007674964610487223
1761315229808289500,3.43228955078125,-0.031318724155426025,-0.04610186070203781,-0.01029338501393795
1761315229818271700,3.442271728515625,-0.04002317413687706,-0.03852888196706772,-0.007437294814735651
1761315229828252700,3.452252685546875,-0.04429301992058754,-0.016718927770853043,0.005791958421468735
1761315229838234600,3.462234619140625,-0.04626107215881348,0.008972318843007088,0.009989116340875626
1761315229848215600,3.472215576171875,-0.04243836924433708,0.0359320305287838,0.012615526095032692
1761315229858197500,3.482197509765625,-0.03112799860537052,0.03887586668133736,0.00415429100394249
1761315229868179500,3.492179443359375,-0.01764627918601036,0.034178316593170166,-0.010611073113977909
1761315229878160400,3.502160400390625,-0.009571601636707783,0.022127002477645874,-0.02093268372118473
1761315229888142600,3.512142578125,0.0013987574493512511,0.009037566371262074,-0.021821115165948868
1761315229898124500,3.52212451171875,0.009735297411680222,0.005830045789480209,-0.013112548738718033
1761315229908105700,3.532105712890625,0.01658760942518711,0.00354665145277977,0.005518659949302673
1761315229918087400,3.54208740234375,0.021817179396748543,-0.005114223808050156,0.02073081210255623
1761315229928069600,3.552069580078125,0.01999424584209919,-0.012691449373960495,0.030584506690502167
1761315229938050600,3.562050537109375,0.019532471895217896,-0.009171804413199425,0.03744218125939369
1761315229948032500,3.572032470703125,0.017596354708075523,0.0027282643131911755,0.04068697616457939
1761315229958013400,3.582013427734375,0.02173197641968727,0.020135482773184776,0.04715526103973389
1761315229967995600,3.59199560546875,0.017178237438201904,0.03501296788454056,0.050041597336530685
1761315229977977600,3.6019775390625,0.009057057090103626,0.044775061309337616,0.041409917175769806
1761315229987958500,3.61195849609375,0.005992557853460312,0.05516698211431503,0.033818043768405914
1761315229997940500,3.6219404296875,-0.0011810227297246456,0.06484277546405792,0.03219632804393768
1761315230007922700,3.631922607421875,-0.0030614808201789856,0.06570988893508911,0.03887100890278816
1761315230017903600,3.641903564453125,-0.009923890233039856,0.06565047800540924,0.04238664358854294
1761315230027885300,3.65188525390625,-0.007851151749491692,0.06990248709917068,0.035509828478097916
1761315230037866500,3.661866455078125,0.0029522478580474854,0.06959304213523865,0.03664250671863556
1761315230047848400,3.671848388671875,0.012804878875613213,0.05580558627843857,0.04585358127951622
1761315230057830700,3.68183056640625,0.014580469578504562,0.03576982393860817,0.05899713933467865
1761315230067811600,3.6918115234375,0.004552336409687996,0.01327170617878437,0.07295982539653778
1761315230077793500,3.70179345703125,-0.007245856802910566,-0.0026340170297771692,0.08397454023361206
1761315230087775500,3.711775390625,-0.011959118768572807,-0.012572135776281357,0.08952297270298004
1761315230097756700,3.721756591796875,-0.014422792010009289,-0.014601454138755798,0.0827774778008461
1761315230107738400,3.73173828125,-0.01716558076441288,-0.016999363899230957,0.05900370702147484
1761315230117720600,3.741720458984375,-0.020204830914735794,-0.004951218143105507,0.028958426788449287
1761315230127701500,3.751701416015625,-0.014664656482636929,0.020881177857518196,0.002141193952411413
1761315230137683700,3.76168359375,-0.008436063304543495,0.03668009489774704,-0.019946042448282242
1761315230147664600,3.77166455078125,0.000024266191758215427,0.02989356219768524,-0.033014439046382904
1761315230157646600,3.781646484375,0.010473212227225304,0.02047131583094597,-0.03652016445994377
1761315230167628500,3.791628662109375,0.026255903765559196,0.0077254269272089005,-0.029458526521921158
1761315230177609500,3.801609375,0.04352770000696182,-0.0010204142890870571,-0.017044899985194206
1761315230187591700,3.811591796875,0.062129076570272446,-0.008104689419269562,0.0007095960900187492
1761315230197573600,3.82157373046875,0.07132060825824738,-0.016125846654176712,0.02513096295297146
1761315230207554600,3.831554443359375,0.07073897123336792,-0.0206295195966959,0.04901392385363579
1761315230217536500,3.84153662109375,0.0613270066678524,-0.03620794042944908,0.061459071934223175
1761315230227517700,3.851517578125,0.05121871456503868,-0.04162215068936348,0.05995944142341614
1761315230237499400,3.86149951171875,0.040523711591959,-0.036792509257793427,0.0468452088534832
1761315230247481600,3.871481689453125,0.03209081292152405,-0.028165999799966812,0.021965160965919495
1761315230257462500,3.881462646484375,0.025716129690408707,-0.0072929696179926395,-0.0042333221063017845
1761315230267444700,3.89144482421875,0.025214655324816704,0.01776284910738468,-0.023660549893975258
1761315230277426400,3.901426513671875,0.025292707607150078,0.018200155347585678,-0.030235862359404564
1761315230287407600,3.91140771484375,0.014765497297048569,-0.007214657496660948,-0.027539944276213646
1761315230297389600,3.9213896484375,0.008007972501218319,-0.030644364655017853,-0.019615206867456436
1761315230307371500,3.93137158203125,-0.0038747861981391907,-0.046301089227199554,-0.013494464568793774
1761315230317352400,3.9413525390625,-0.010106378234922886,-0.051160018891096115,-0.0133166229352355
1761315230327334700,3.951334716796875,-0.009023536927998066,-0.05179465189576149,-0.01761869341135025
1761315230337315600,3.961315673828125,-0.01837758533656597,-0.052918482571840286,-0.024229396134614944
1761315230347297500,3.971297607421875,-0.02414333075284958,-0.04796793311834335,-0.027789777144789696
1761315230357279500,3.981279541015625,-0.036582112312316895,-0.03372642397880554,-0.027425162494182587
1761315230367260400,3.991260498046875,-0.044099416583776474,-0.0037706573493778706,-0.029036907479166985
1761315230377242600,4.00124267578125,-0.054082103073596954,0.025985660031437874,-0.029415136203169823
1761315230387224300,4.011224365234375,-0.057020366191864014,0.0486382395029068,-0.02699219062924385
1761315230397205500,4.02120556640625,-0.055780574679374695,0.05515175312757492,-0.028795646503567696
1761315230407187500,4.0311875,-0.052052415907382965,0.04826774820685387,-0.033052172511816025
1761315230417169700,4.041169677734375,-0.04085960239171982,0.03056761622428894,-0.03742417320609093
1761315230427150600,4.051150634765625,-0.026454828679561615,0.004264374729245901,-0.04002022370696068
1761315230437132500,4.061132568359375,-0.014711291529238224,-0.018279820680618286,-0.029440492391586304
1761315230447113500,4.071113525390625,-0.011960512958467007,-0.02226071245968342,-0.01049263495951891
1761315230457095700,4.081095703125,-0.01153293065726757,-0.01953098736703396,0.003655273001641035
1761315230467077400,4.091077392578125,-0.01068817637860775,-0.014344481751322746,0.008172793313860893
1761315230477058600,4.10105859375,-0.0017064643325284123,-0.008505744859576225,0.0032696062698960304
1761315230487040500,4.11104052734375,0.011292691342532635,-0.00008323183283209801,-0.008699438534677029
1761315230497022700,4.121022705078125,0.015104823745787144,0.003781781531870365,-0.019509421661496162
1761315230507003600,4.131003662109375,0.014915739186108112,0.008939258754253387,-0.0254535973072052
1761315230516985600,4.140985595703125,0.013066298328340054,0.018050484359264374,-0.028202641755342484
1761315230526966500,4.150966552734375,0.009616706520318985,0.019612694159150124,-0.03219578415155411
1761315230536948500,4.160948486328125,0.011705112643539906,0.016467779874801636,-0.042304374277591705
1761315230546930400,4.170930419921875,0.02608351968228817,0.009900958277285099,-0.04610656946897507
1761315230556911400,4.180911376953125,0.0424187146127224,-0.008213598281145096,-0.04146398603916168
1761315230566893600,4.1908935546875,0.05665277689695358,-0.02038344368338585,-0.029388943687081337
1761315230576875500,4.20087548828125,0.05803468078374863,-0.030265096575021744,-0.005202369764447212
1761315230586856700,4.210856689453125,0.06577755510807037,-0.025213878601789474,0.025957414880394936
1761315230596838400,4.22083837890625,0.056943509727716446,-0.011564115062355995,0.059198904782533646
1761315230606820600,4.230820556640625,0.048329517245292664,-0.007231418509036303,0.07958992570638657
1761315230616801500,4.240801513671875,0.039725031703710556,-0.0066133220680058,0.08476381003856659
1761315230626783500,4.250783447265625,0.03415103629231453,-0.013770833611488342,0.06974677741527557
1761315230636764400,4.260764404296875,0.02679714560508728,-0.021882005035877228,0.04094273969531059
1761315230646746600,4.27074658203125,0.020324066281318665,-0.017224403098225594,0.01484882365912199
1761315230656728600,4.280728515625,0.012759866192936897,0.0023293285630643368,0.006826568394899368
1761315230666709800,4.290709716796875,0.0009157231543213129,0.03136657550930977,0.010709457099437714
1761315230676691500,4.30069140625,-0.008692690171301365,0.050321340560913086,0.026794932782649994
1761315230686674400,4.31067431640625,-0.01759324036538601,0.04867364466190338,0.03508801758289337
1761315230696655400,4.3206552734375,-0.024945270270109177,0.026462892070412636,0.03758997097611427
1761315230706637300,4.33063720703125,-0.03212861344218254,-0.01852322369813919,0.026054220274090767
1761315230716619300,4.340619384765625,-0.03029012866318226,-0.06012397259473801,0.010100355371832848
1761315230726600400,4.350600341796875,-0.028648823499679565,-0.07978235930204391,0.0037239487282931805
1761315230736582400,4.36058251953125,-0.032079506665468216,-0.07329383492469788,-0.005550776142627001
1761315230746563000,4.37056298828125,-0.03864819556474686,-0.04375911504030228,-0.008042162284255028
1761315230756545300,4.380545166015625,-0.034600045531988144,0.002893908880650997,-0.01329161785542965
1761315230766527500,4.390527587890625,-0.03358884155750275,0.048704005777835846,-0.010209540836513042
1761315230776508400,4.40050830078125,-0.025004101917147636,0.08175674825906754,-0.011262261308729649
1761315230786490000,4.410489990234375,-0.017844991758465767,0.0905907154083252,-0.010450529865920544
1761315230796472300,4.420472412109375,-0.010829996317625046,0.06536927819252014,-0.014757911674678326
1761315230806453200,4.430453369140625,0.0021691585425287485,0.021835654973983765,-0.019061312079429626
1761315230816435500,4.440435546875,0.00982322171330452,-0.022185606881976128,-0.015045691281557083
1761315230826417200,4.450417236328125,0.020644977688789368,-0.05167878419160843,-0.0028239137027412653
1761315230836398300,4.4603984375,0.03776688873767853,-0.060994818806648254,0.01153174601495266
1761315230846380300,4.47038037109375,0.04632629081606865,-0.06363295018672943,0.02663799561560154
1761315230856361500,4.480361572265625,0.053179383277893066,-0.054000794887542725,0.03425677493214607
1761315230866343200,4.49034326171875,0.05291040241718292,-0.04975997656583786,0.040415335446596146
1761315230876325400,4.500325439453125,0.046169184148311615,-0.03728998824954033,0.035468023270368576
1761315230886306300,4.510306396484375,0.03339453041553497,-0.027689825743436813,0.015646114945411682
1761315230896288500,4.52028857421875,0.02659304440021515,-0.009586991742253304,-0.01335974968969822
1761315230906270200,4.530270263671875,0.02846764400601387,0.014454428106546402,-0.03955007344484329
1761315230916251100,4.540251220703125,0.03672313690185547,0.026879645884037018,-0.04813084378838539
1761315230926233300,4.5502333984375,0.04238954186439514,0.018084025010466576,-0.042732883244752884
1761315230936214300,4.56021435546875,0.042920906096696854,-0.0038207215256989002,-0.025258472189307213
1761315230946196200,4.5701962890625,0.04614999145269394,-0.026142004877328873,0.007078162394464016
1761315230956178200,4.58017822265625,0.04076231271028519,-0.04064267873764038,0.03696989268064499
1761315230966159400,4.590159423828125,0.030624987557530403,-0.058536190539598465,0.044038720428943634
1761315230976141300,4.600141357421875,0.01587502844631672,-0.06695839762687683,0.02888665720820427
1761315230986123300,4.610123291015625,0.0035914634354412556,-0.044787321239709854,-0.0021261211950331926
1761315230996104200,4.620104248046875,-0.0068126218393445015,-0.032411642372608185,-0.04169877618551254
1761315231006086400,4.63008642578125,-0.017462335526943207,-0.00819445215165615,-0.07045000046491623
1761315231016068000,4.640068115234375,-0.026325993239879608,0.031160971149802208,-0.07980924099683762
1761315231026049300,4.65004931640625,-0.027674885466694832,0.06992194801568985,-0.07930457592010498
1761315231036031200,4.66003125,-0.023091070353984833,0.06867557764053345,-0.07015744596719742
1761315231046012400,4.670012451171875,-0.01620626635849476,0.051214829087257385,-0.051545944064855576
1761315231055994400,4.679994384765625,-0.014128325507044792,0.012698601931333542,-0.0279224906116724
1761315231065976300,4.689976318359375,-0.00506159383803606,-0.030302926898002625,-0.008766107261180878
1761315231075957200,4.699957275390625,-0.0034922738559544086,-0.07797592133283615,0.0030925925821065903
1761315231085939500,4.709939453125,0.004360588733106852,-0.11442287266254425,0.01338358037173748
1761315231095921200,4.719921142578125,0.0013486900134012103,-0.11778216063976288,0.01933164894580841
1761315231105902000,4.729902099609375,-0.002043378073722124,-0.08225026726722717,0.027351757511496544
1761315231115884300,4.73988427734375,-0.004841130692511797,-0.03254742920398712,0.021747563034296036
1761315231125866500,4.749866455078125,-0.004850718192756176,0.014020074158906937,-0.003013442037627101
1761315231135847400,4.759847412109375,0.0013892168644815683,0.04554124176502228,-0.022512441501021385
1761315231145829000,4.7698291015625,0.008666571229696274,0.06610403954982758,-0.04216470569372177
1761315231155810300,4.779810302734375,0.011696901172399521,0.06416365504264832,-0.05277509614825249
1761315231165792300,4.789792236328125,0.01247081533074379,0.037127505987882614,-0.04094160720705986
1761315231175774200,4.799774169921875,0.010434746742248535,-0.0042492407374084,-0.01696765422821045
1761315231185755100,4.809755126953125,0.01070931926369667,-0.04675648733973503,0.014354581013321877
1761315231195737300,4.8197373046875,0.020042182877659798,-0.07858763635158539,0.04431070759892464
1761315231205719300,4.82971923828125,0.028674019500613213,-0.10660009831190109,0.06257519870996475
1761315231215700500,4.839700439453125,0.031689513474702835,-0.11620237678289413,0.055707987397909164
1761315231225682200,4.84968212890625,0.03027643822133541,-0.1012473925948143,0.033025845885276794
1761315231235664400,4.859664306640625,0.030529234558343887,-0.0684838593006134,-0.0014556406531482935
1761315231245645300,4.869645263671875,0.029383011162281036,-0.029485594481229782,-0.03293074294924736
1761315231255627500,4.87962744140625,0.024193907156586647,0.0045176236890256405,-0.05328923463821411
1761315231265608200,4.889608154296875,0.016978338360786438,0.02215973287820816,-0.06056579202413559
1761315231275590100,4.899590087890625,0.0026319881435483694,0.02384149096906185,-0.051895786076784134
1761315231285572400,4.909572265625,-0.011395147070288658,0.005820679012686014,-0.03645504638552666
1761315231295553300,4.91955322265625,-0.019991153851151466,-0.02001676708459854,-0.016402358189225197
1761315231305535200,4.92953515625,-0.017882995307445526,-0.05569593608379364,0.005828378722071648
1761315231315517200,4.93951708984375,-0.02230355516076088,-0.07732369750738144,0.023100361227989197
1761315231325498400,4.949498291015625,-0.022166403010487556,-0.09320838749408722,0.02794198878109455
1761315231335480300,4.959480224609375,-0.025108681991696358,-0.09787718206644058,0.02328701689839363
1761315231345462300,4.969462158203125,-0.02800407074391842,-0.09768570214509964,-0.0010031415149569511
1761315231355443200,4.979443115234375,-0.03350159153342247,-0.06632433831691742,-0.03413523733615875
1761315231365425400,4.98942529296875,-0.03842338174581528,-0.022008538246154785,-0.06328726559877396
1761315231375406300,4.99940625,-0.04289181903004646,0.02010779082775116,-0.08660153299570084
1761315231385388300,5.00938818359375,-0.040556225925683975,0.04888750612735748,-0.09086418896913528
1761315231395370200,5.019370361328125,-0.041487887501716614,0.056021854281425476,-0.07916819304227829
1761315231405351400,5.029351318359375,-0.029983296990394592,0.05279570072889328,-0.04781399667263031
1761315231415333400,5.03933349609375,-0.0162583626806736,0.03745132312178612,-0.008501187898218632
1761315231425315300,5.0493154296875,0.0002340601058676839,0.007288893219083548,0.02812047302722931
1761315231435296300,5.059296142578125,0.011448814533650875,-0.014364700764417648,0.053710199892520905
1761315231445278500,5.069278564453125,0.028268542140722275,-0.026496730744838715,0.0732804387807846
1761315231455260200,5.07926025390625,0.038628336042165756,-0.023237602785229683,0.08014906197786331
1761315231465241000,5.089240966796875,0.04310351237654686,-0.013288034126162529,0.08032163232564926
1761315231475223300,5.099223388671875,0.03687000274658203,0.004413236863911152,0.06323203444480896
1761315231485204200,5.109204345703125,0.02734627015888691,0.019699780270457268,0.03705582767724991
1761315231495186400,5.1191865234375,0.023569149896502495,0.03995256870985031,0.011152083985507488
1761315231505168100,5.129168212890625,0.02010863833129406,0.0540100634098053,-0.005875635892152786
1761315231515149300,5.1391494140625,0.022486288100481033,0.05513392761349678,-0.01555783674120903
1761315231525131300,5.14913134765625,0.022000793367624283,0.039028994739055634,-0.010051751509308815
1761315231535113200,5.15911328125,0.022061677649617195,0.024421287700533867,0.0017800373025238514
1761315231545094100,5.16909423828125,0.02515254355967045,0.000781739130616188,0.018224790692329407
1761315231555076400,5.179076416015625,0.026346491649746895,-0.034706518054008484,0.03798387944698334
1761315231565058300,5.189058349609375,0.028403516858816147,-0.05490473285317421,0.04828339070081711
1761315231575039500,5.19903955078125,0.029151253402233124,-0.07171160727739334,0.04965249449014664
1761315231585021200,5.209021240234375,0.02058679424226284,-0.07339632511138916,0.04451179504394531
1761315231595002400,5.21900244140625,0.012554903514683247,-0.046830493956804276,0.0347328707575798
1761315231604984300,5.228984375,0.006718586198985577,-0.011828567832708359,0.018194640055298805
1761315231614966300,5.23896630859375,0.007169827818870544,0.02402397245168686,0.002932701027020812
1761315231624947200,5.248947265625,0.006048636510968208,0.06273888051509857,-0.012577015906572342
1761315231634929200,5.25892919921875,0.0085066556930542,0.08845781534910202,-0.021172989159822464
1761315231644911400,5.268911376953125,0.011650783941149712,0.09331142902374268,-0.013285239227116108
1761315231654892300,5.278892333984375,0.010233575478196144,0.07448820769786835,0.008913923986256123
1761315231664874200,5.288874267578125,0.011282859370112419,0.0391661673784256,0.04188918322324753
1761315231674856200,5.298856201171875,0.016375083476305008,-0.0009682625532150269,0.07171734422445297
1761315231684836400,5.30883642578125,0.02204388938844204,-0.03414991870522499,0.08360542356967926
1761315231694818300,5.318818359375,0.024700351059436798,-0.05529535189270973,0.08062083274126053
1761315231704799500,5.328799560546875,0.027255121618509293,-0.05353020876646042,0.06449779123067856
1761315231714781200,5.33878125,0.019661718979477882,-0.04053639620542526,0.04087533429265022
1761315231724763400,5.348763427734375,0.01628429815173149,-0.03312188759446144,0.014781147241592407
1761315231734744300,5.358744384765625,0.012474482879042625,-0.022688154131174088,-0.0021266252733767033
1761315231744726300,5.368726318359375,0.011230253614485264,-0.0009261332452297211,-0.013005638495087624
1761315231754708200,5.378708251953125,0.007238093763589859,0.013742281123995781,-0.010689310729503632
1761315231764689200,5.388689208984375,0.005386397708207369,0.015628596767783165,-0.010614743456244469
1761315231774671400,5.39867138671875,0.0007784325862303376,0.015308222733438015,-0.005011880770325661
1761315231784653300,5.4086533203125,-0.0030764932744205,0.004388995468616486,0.00418055197224021
1761315231794634200,5.41863427734375,-0.006056229583919048,-0.02512519806623459,0.0012591707054525614
1761315231804616200,5.4286162109375,-0.0067614344879984856,-0.04979192838072777,0.0010415903525426984
1761315231814597400,5.438597412109375,-0.012116212397813797,-0.062323302030563354,0.004630431532859802
1761315231824579300,5.448579345703125,-0.009981688112020493,-0.05128343403339386,0.0037643718533217907
1761315231834561300,5.458561279296875,-0.009254474192857742,-0.02485915832221508,-0.005290682427585125
1761315231844542200,5.468542236328125,0.0003784450236707926,0.0011119875125586987,-0.010357080027461052
1761315231854524400,5.4785244140625,0.005372344050556421,0.013218432664871216,-0.012111381627619267
1761315231864506400,5.48850634765625,0.0074410876259207726,0.01794607564806938,-0.007667364552617073
1761315231874487300,5.4984873046875,0.005651914514601231,0.024709710851311684,0.0001308454666286707
1761315231884469200,5.50846923828125,0.005133397411555052,0.02823946252465248,0.010342470370233059
1761315231894451500,5.518451416015625,0.008430246263742447,0.02075783722102642,0.012213191017508507
1761315231904432400,5.528432373046875,0.00823317188769579,0.010868189856410027,0.015600199811160564
1761315231914414300,5.538414306640625,0.006422528997063637,0.01209460198879242,0.02291596680879593
1761315231924396300,5.548396240234375,-0.002209574682638049,0.01227862574160099,0.03213902562856674
1761315231934377200,5.558377197265625,-0.012168857268989086,-0.00013383058831095695,0.03828229010105133
1761315231944359400,5.568359375,-0.014915907755494118,-0.008669528178870678,0.04497135058045387
1761315231954340000,5.578340087890625,-0.01920027658343315,-0.009497242979705334,0.049425072968006134
1761315231964322300,5.588322265625,-0.019902018830180168,0.0006627165712416172,0.04187687486410141
1761315231974304300,5.59830419921875,-0.018841464072465897,0.007778939791023731,0.02718402072787285
1761315231984285400,5.608285400390625,-0.015944212675094604,0.010219726711511612,0.00730645377188921
1761315231994267100,5.61826708984375,-0.021329082548618317,0.014225926250219345,-0.006041796877980232
1761315232004249300,5.628249267578125,-0.031363874673843384,0.010794708505272865,-0.017316821962594986
1761315232014230300,5.638230224609375,-0.03278772160410881,0.005342935677617788,-0.01863069459795952
1761315232024212500,5.64821240234375,-0.021190455183386803,0.0003769388422369957,-0.011436165310442448
1761315232034194200,5.658194091796875,-0.013434940949082375,-0.007087377831339836,0.003349554492160678
1761315232044175400,5.66817529296875,-0.006977840792387724,-0.0037509696558117867,0.014445348642766476
1761315232054157300,5.6781572265625,0.0012135887518525124,0.014904988929629326,0.023131050169467926
1761315232064138500,5.688138427734375,0.004797138273715973,0.03681880608201027,0.028139924630522728
1761315232074120200,5.6981201171875,0.01170656830072403,0.05786288529634476,0.031025351956486702
1761315232084102400,5.708102294921875,0.022528590634465218,0.07493747770786285,0.034472014755010605
1761315232094083300,5.718083251953125,0.03764072060585022,0.06994377821683884,0.038540542125701904
1761315232104065300,5.728065185546875,0.04818657040596008,0.05569107085466385,0.04048704355955124
1761315232114047200,5.738047119140625,0.06606744229793549,0.040499813854694366,0.03822079673409462
1761315232124028200,5.748028076171875,0.0820181667804718,0.020036086440086365,0.039215486496686935
1761315232134010400,5.75801025390625,0.09337467700242996,-0.004469743929803371,0.050273213535547256
1761315232143992000,5.767991943359375,0.08522727340459824,-0.016906972974538803,0.06571821123361588
1761315232153973200,5.77797314453125,0.0746578574180603,-0.01999436877667904,0.07450226694345474
1761315232163955200,5.787955078125,0.059690363705158234,-0.01982792094349861,0.06777618825435638
1761315232173936400,5.797936279296875,0.05008065328001976,-0.01974964328110218,0.04724590480327606
1761315232183918300,5.80791845703125,0.04062536358833313,-0.011873077601194382,0.01498277485370636
1761315232193900300,5.817900390625,0.028497613966464996,0.0016850619576871395,-0.01423235796391964
1761315232203881200,5.827881103515625,0.01780289225280285,0.015478638932108879,-0.03973185643553734
1761315232213863400,5.837863525390625,0.00964405294507742,0.02418508566915989,-0.03718635439872742
1761315232223845000,5.84784521484375,0.0021270145662128925,0.02106359601020813,-0.028280213475227356
1761315232233826300,5.857826416015625,0.0013911185087636113,0.011079620569944382,-0.021600039675831795
1761315232243808300,5.867808349609375,0.006474826484918594,-0.006737193092703819,-0.013330124318599701
1761315232253790500,5.87779052734375,0.013039952144026756,-0.025131596252322197,-0.0008490169420838356
1761315232263771400,5.887771484375,0.01985444873571396,-0.03597092628479004,0.024768462404608727
1761315232273753300,5.89775341796875,0.021778440102934837,-0.03542980179190636,0.044558778405189514
1761315232283734300,5.907734375,0.01734241284430027,-0.02889280766248703,0.051061950623989105
1761315232293716200,5.91771630859375,0.0057259914465248585,-0.010852271690964699,0.03262518346309662
1761315232303698200,5.9276982421875,0.005394428037106991,0.008760044351220131,0.012450674548745155
1761315232313679000,5.93767919921875,-0.0005592941306531429,0.021905412897467613,-0.00930730625987053
1761315232323661300,5.947661376953125,-0.019061338156461716,0.019931478425860405,-0.02958647720515728
1761315232333643300,5.957643310546875,-0.022952694445848465,0.027357449755072594,-0.03572578728199005
1761315232343624400,5.96762451171875,-0.025367913767695427,0.03165419027209282,-0.028660690411925316
1761315232353606100,5.977606201171875,-0.014902669936418533,0.027704162523150444,-0.009928492829203606
1761315232363588400,5.98758837890625,-0.006287077441811562,0.014726579189300537,0.011422868818044662
1761315232373569300,5.9975693359375,0.005091623868793249,-0.006213873624801636,0.03432426229119301
1761315232383551200,6.00755126953125,0.01781700737774372,-0.026233121752738953,0.05713317170739174
1761315232393533200,6.017533203125,0.020310649648308754,-0.03308834135532379,0.06579390913248062
1761315232403514400,6.027514404296875,0.0204739011824131,-0.015962352976202965,0.060095272958278656
1761315232413496300,6.037496337890625,0.016995156183838844,0.005591652821749449,0.03787238895893097
1761315232423477500,6.0474775390625,0.013021985068917274,0.025198910385370255,0.0063669271767139435
1761315232433459200,6.057459228515625,0.010809863917529583,0.043311893939971924,-0.016383741050958633
1761315232443441400,6.06744140625,0.0013351356610655785,0.04965527728199959,-0.028740007430315018
1761315232453422300,6.07742236328125,0.00013062870129942894,0.04810798913240433,-0.028322380036115646
1761315232463404500,6.087404541015625,0.002747184596955776,0.034725598990917206,-0.015693670138716698
1761315232473386200,6.09738623046875,0.006928835064172745,0.017710678279399872,-0.002349663758650422
1761315232483367200,6.1073671875,0.013689003884792328,-0.0026779493782669306,0.008338401094079018
1761315232493349400,6.117349365234375,0.018477944657206535,-0.017552517354488373,0.02100149355828762
1761315232503331000,6.1273310546875,0.024977389723062515,-0.021291861310601234,0.0311737023293972
1761315232513312300,6.137312255859375,0.03381184861063957,-0.007324366830289364,0.02887696586549282
1761315232523294200,6.147294189453125,0.039369065314531326,0.0003838869743049145,0.028906792402267456
1761315232533275400,6.157275390625,0.04020032659173012,-0.0008204272016882896,0.027181116864085197
1761315232543257300,6.16725732421875,0.02475319243967533,0.0013308743946254253,0.01666029915213585
1761315232553239300,6.1772392578125,0.008772770874202251,0.01830720342695713,0.0070573571138083935
1761315232563220200,6.18722021484375,-0.002299587707966566,0.03363902121782303,-0.01253392081707716
1761315232573202400,6.197202392578125,-0.0036688228137791157,0.03882714733481407,-0.030872266739606857
1761315232583184100,6.20718408203125,-0.004873903468251228,0.038952846080064774,-0.04603497311472893
1761315232593165300,6.217165283203125,-0.006183828692883253,0.030853096395730972,-0.044702786952257156
1761315232603147300,6.227147216796875,-0.012028135359287262,0.023720353841781616,-0.034897029399871826
1761315232613129500,6.23712939453125,-0.015709977596998215,0.023263895884156227,-0.019208095967769623
1761315232623110400,6.2471103515625,-0.01472034677863121,0.027685806155204773,-0.0056302351877093315
1761315232633092400,6.25709228515625,-0.007274046074599028,0.021696627140045166,-0.004478313960134983
1761315232643074300,6.26707421875,0.005053460132330656,0.0010235724039375782,-0.005877538584172726
1761315232653055200,6.27705517578125,0.008805173449218273,-0.025527602061629295,-0.01550153736025095
1761315232663037200,6.287037109375,0.00833938643336296,-0.03524148091673851,-0.027667123824357986
1761315232673018000,6.29701806640625,0.0033304572571069,-0.025600049644708633,-0.03799706697463989
1761315232683000300,6.307000244140625,0.0011535892263054848,-0.0034268382005393505,-0.05454861372709274
1761315232692982500,6.316982421875,-0.005207105074077845,0.024229001253843307,-0.06095513701438904
1761315232702963500,6.32696337890625,-0.002449668012559414,0.04064232483506203,-0.06220575422048569
1761315232712945400,6.3369453125,-0.002310836222022772,0.04572249576449394,-0.05010323226451874
1761315232722927400,6.34692724609375,0.009025441482663155,0.04252057522535324,-0.030713822692632675
1761315232732908500,6.356908447265625,0.01994451880455017,0.03197450563311577,-0.019542528316378593
1761315232742890200,6.36689013671875,0.03262969106435776,0.015139334835112095,-0.0014002756215631962
1761315232752872400,6.37687255859375,0.04265913739800453,0.009294291026890278,0.017158789560198784
1761315232762853400,6.386853271484375,0.04509060084819794,0.002628665417432785,0.04086172208189964
1761315232772835600,6.396835693359375,0.0413656011223793,0.0004749433137476444,0.050462089478969574
1761315232782817300,6.4068173828125,0.03365787863731384,0.010343018919229507,0.04217619448900223
1761315232792798500,6.416798583984375,0.030208470299839973,0.021616701036691666,0.017245985567569733
1761315232802780400,6.426780517578125,0.01851160079240799,0.030045073479413986,-0.012264234945178032
1761315232812761300,6.43676123046875,0.010444152168929577,0.046174176037311554,-0.02712516486644745
1761315232822743300,6.446743408203125,-0.0048743500374257565,0.05055001750588417,-0.033597178757190704
1761315232832725500,6.4567255859375,-0.011188915930688381,0.045313760638237,-0.02693813666701317
1761315232842706400,6.46670654296875,-0.01674453541636467,0.0484943762421608,-0.01081802323460579
1761315232852688400,6.4766884765625,-0.007534465752542019,0.04284500703215599,0.003668033517897129
1761315232862670300,6.48667041015625,0.0002552804071456194,0.0273685771971941,0.014643719419836998
1761315232872651300,6.4966513671875,0.004770777188241482,0.009246068075299263,0.022779269143939018
1761315232882633500,6.506633544921875,0.007673356682062149,-0.004562688060104847,0.03249368071556091
1761315232892615400,6.516615478515625,0.003650834783911705,-0.014418527483940125,0.03471573442220688
1761315232902596400,6.526596435546875,-0.0036856411024928093,-0.01225950289517641,0.032277341932058334
1761315232912578300,6.536578369140625,-0.011507405899465084,-0.00947889219969511,0.019073598086833954
1761315232922559500,6.5465595703125,-0.017904851585626602,-0.004503841046243906,0.00361421424895525
1761315232932541400,6.55654150390625,-0.028932489454746246,0.008729416877031326,-0.014457210898399353
1761315232942523400,6.5665234375,-0.03875182941555977,0.030439771711826324,-0.02870751917362213
1761315232952504300,6.57650439453125,-0.034709446132183075,0.04044068977236748,-0.03773223236203194
1761315232962486500,6.586486572265625,-0.027000129222869873,0.04729273542761803,-0.04495872184634209
1761315232972468500,6.596468505859375,-0.019113969057798386,0.0515570268034935,-0.04318583011627197
1761315232982449400,6.606449462890625,-0.01583322137594223,0.03091619350016117,-0.036389440298080444
1761315232992431400,6.616431396484375,-0.009812593460083008,0.004371438175439835,-0.028009487316012383
1761315233002413600,6.62641357421875,-0.01124617364257574,-0.018139462918043137,-0.0034892300609499216
1761315233012394500,6.63639453125,-0.005228819325566292,-0.051733389496803284,0.01255437545478344
1761315233022376400,6.64637646484375,-0.0073617445304989815,-0.06763805449008942,0.02085305005311966
1761315233032357400,6.656357421875,-0.005176928360015154,-0.05786638706922531,0.020225830376148224
1761315233042339300,6.66633935546875,0.0011246433714404702,-0.01916826143860817,0.009735107421875
1761315233052321500,6.676321533203125,0.009463132359087467,0.017032824456691742,-0.007701571099460125
1761315233062302500,6.686302490234375,0.014239512383937836,0.041309937834739685,-0.03490256518125534
1761315233072284400,6.696284423828125,0.010476388968527317,0.0542643740773201,-0.05372026190161705
1761315233082266400,6.706266357421875,0.006341565866023302,0.053886737674474716,-0.060660455375909805
1761315233092247600,6.71624755859375,0.0035599195398390293,0.029991036280989647,-0.05088474228978157
1761315233102229200,6.726229248046875,-0.005961413960903883,0.0068881153129041195,-0.028941357508301735
1761315233112211500,6.73621142578125,-0.0071778083220124245,-0.007246661931276321,0.0034345313906669617
1761315233122192400,6.7461923828125,-0.007045981474220753,-0.024305008351802826,0.025785110890865326
1761315233132174600,6.756174560546875,-0.00363393547013402,-0.032940518110990524,0.04251193627715111
1761315233142156300,6.76615625,0.00033843552228063345,-0.028854163363575935,0.03351417928934097
1761315233152137500,6.776137451171875,0.0014481531688943505,-0.0136446263641119,0.012265562079846859
1761315233162119400,6.786119384765625,0.009702088311314583,0.011928645893931389,-0.012512221932411194
1761315233172100400,6.796100341796875,0.014639219269156456,0.026043396443128586,-0.04191229119896889
1761315233182082300,6.806082275390625,0.011246617883443832,0.029703911393880844,-0.060326721519231796
1761315233192064500,6.816064453125,0.005080601666122675,0.026949718594551086,-0.06457282602787018
1761315233202045400,6.82604541015625,-0.003934198524802923,0.0062292590737342834,-0.048601582646369934
1761315233212027400,6.83602734375,-0.015471766702830791,-0.011883711442351341,-0.02346770465373993
1761315233222009300,6.84600927734375,-0.0269145704805851,-0.012514348141849041,-0.0031203546095639467
1761315233231990300,6.855990234375,-0.025264067575335503,-0.006154980044811964,0.00962807983160019
1761315233241972500,6.865972412109375,-0.019698061048984528,-0.007994958199560642,0.017372818663716316
1761315233251954400,6.875954345703125,-0.010579252615571022,-0.004015943501144648,0.017400380223989487
1761315233261935400,6.885935302734375,-0.00178629404399544,0.010695092380046844,0.008891580626368523
1761315233271917300,6.895917236328125,0.007531983777880669,0.01615617610514164,-0.00796288438141346
1761315233281899500,6.9058994140625,0.00778045691549778,0.013057855889201164,-0.022997494786977768
1761315233291880400,6.91588037109375,0.004592816811054945,0.022862015292048454,-0.03282918781042099
1761315233301862400,6.9258623046875,-0.002521019196137786,0.025160055607557297,-0.038693204522132874
1761315233311843300,6.93584326171875,-0.013156680390238762,0.01826380379498005,-0.04400040954351425
1761315233321825500,6.945825439453125,-0.01801268942654133,0.0038276072591543198,-0.0426536463201046
1761315233331807500,6.955807373046875,-0.02164204604923725,-0.01675199717283249,-0.039852820336818695
1761315233341788400,6.965788330078125,-0.017276059836149216,-0.03530171141028404,-0.03607992082834244
1761315233351770400,6.975770263671875,-0.010599524714052677,-0.04873872920870781,-0.02804572507739067
1761315233361752600,6.985752685546875,-0.004952824674546719,-0.0393550805747509,-0.02028607204556465
1761315233371733500,6.9957333984375,-0.004491594620049,-0.014546876773238182,-0.01653367653489113
1761315233381715500,7.005715576171875,0.001601984491571784,0.017021967098116875,-0.011186582036316395
1761315233391697400,7.015697509765625,0.0062356991693377495,0.05019455403089523,-0.002922189887613058
1761315233401678300,7.02567822265625,0.015587122179567814,0.060747064650058746,-0.0070245228707790375
1761315233411660500,7.03566064453125,0.02184758521616459,0.043375737965106964,-0.007432105951011181
1761315233421642500,7.045642578125,0.025976549834012985,0.027314215898513794,-0.006917850114405155
1761315233431623400,7.05562353515625,0.02690199203789234,0.012220537289977074,-0.0035803611390292645
1761315233441605400,7.06560546875,0.024868402630090714,-0.003508358495309949,0.006863491144031286
1761315233451586600,7.075586669921875,0.021427005529403687,-0.008394455537199974,0.016428176313638687
1761315233461568300,7.085568359375,0.014593866653740406,-0.014859277755022049,0.02174890600144863
1761315233471550500,7.095550537109375,0.009271006099879742,-0.014230240136384964,0.01801462098956108
1761315233481531400,7.105531494140625,0.004329777788370848,-0.007499100174754858,0.010321281850337982
1761315233491513600,7.115513671875,-0.0050752111710608006,0.0014647706411778927,0.0016041602939367294
1761315233501495300,7.125495361328125,-0.008016672916710377,0.021830495446920395,-0.011731086298823357
1761315233511476500,7.1354765625,-0.009498899802565575,0.03719855472445488,-0.02228935807943344
1761315233521458400,7.14545849609375,-0.009462415240705013,0.04105507954955101,-0.027608489617705345
1761315233531440400,7.1554404296875,-0.012035474181175232,0.03676581010222435,-0.02549144998192787
1761315233541421300,7.16542138671875,-0.010204284451901913,0.02436666376888752,-0.015560522675514221
1761315233551403500,7.175403564453125,-0.01300891675055027,0.0016749692149460316,0.004003556445240974
1761315233561384400,7.185384521484375,-0.011692249216139317,-0.015608945861458778,0.016057822853326797
1761315233571366400,7.195366455078125,-0.013726342469453812,-0.027878988534212112,0.031010672450065613
1761315233581348400,7.205348388671875,-0.012107939459383488,-0.03110727295279503,0.03826538845896721
1761315233591329300,7.215329345703125,-0.012720948085188866,-0.015524538233876228,0.03528059273958206
1761315233601311500,7.2253115234375,-0.012938528321683407,0.0031146593391895294,0.016282130032777786
1761315233611293400,7.23529345703125,-0.00899602472782135,0.029745491221547127,-0.0024311284068971872
1761315233621274400,7.2452744140625,-0.0017916409997269511,0.054282791912555695,-0.01926763355731964
1761315233631256300,7.25525634765625,0.007418450899422169,0.0621899738907814,-0.01769576221704483
1761315233641238500,7.265238525390625,0.003877511713653803,0.05573047325015068,-0.014392911456525326
1761315233651219500,7.275219482421875,0.006672415882349014,0.06032947450876236,-0.0001514831092208624
1761315233661201400,7.285201416015625,0.011663711629807949,0.0419512614607811,0.009843360632658005
1761315233671183400,7.295183349609375,0.021630840376019478,0.017378821969032288,0.022515734657645226
1761315233681164500,7.30516455078125,0.02129341848194599,0.0013644341379404068,0.034247756004333496
1761315233691146500,7.315146484375,0.02745760791003704,-0.014753574505448341,0.031893812119960785
1761315233701127400,7.32512744140625,0.03155408054590225,-0.02076938934624195,0.007468097843229771
1761315233711109400,7.335109375,0.039035581052303314,-0.018219105899333954,-0.010553074069321156
1761315233721091600,7.345091552734375,0.04546605050563812,-0.02307937666773796,-0.02571578323841095
1761315233731072500,7.355072509765625,0.03441077843308449,-0.014180151745676994,-0.028225233778357506
1761315233741054500,7.365054443359375,0.02634805627167225,0.003544516395777464,-0.018582725897431374
1761315233751036400,7.375036376953125,0.012825466692447662,0.015492772683501244,-0.010432258248329163
1761315233761017600,7.385017578125,0.007509531453251839,0.02077115699648857,-0.00521219614893198
1761315233770999600,7.39499951171875,0.0030469130724668503,0.017451267689466476,0.0015991500113159418
1761315233780981500,7.4049814453125,0.00518330093473196,0.0091046541929245,0.0030939823482185602
1761315233790962400,7.41496240234375,0.013993140310049057,0.002130369655787945,-0.007129522040486336
1761315233800944600,7.424944580078125,0.019404416903853416,0.0004429910331964493,-0.008217689581215382
1761315233810926300,7.43492626953125,0.02452133037149906,0.004853995516896248,-0.006597229279577732
1761315233820907300,7.4449072265625,0.027652142569422722,0.006805825978517532,0.001286260667257011
1761315233830889500,7.454889404296875,0.01928994059562683,0.000639510340988636,0.0018472191877663136
1761315233840870400,7.464870361328125,0.009083375334739685,-0.0018446864560246468,-0.005306297447532415
1761315233850852600,7.4748525390625,0.003244454972445965,-0.004138472024351358,-0.015843037515878677
1761315233860834300,7.484834228515625,-0.0023492481559515,-0.011106632649898529,-0.023949166759848595
1761315233870815500,7.4948154296875,-0.005544854328036308,-0.012456572614610195,-0.026542888954281807
1761315233880797400,7.50479736328125,-0.008009077981114388,-0.0025783756282180548,-0.011663542129099369
1761315233890779400,7.514779296875,-0.006662153638899326,0.006644704379141331,-0.00047142570838332176
1761315233900760300,7.52476025390625,-0.001973126083612442,0.007025537081062794,0.004991250112652779
1761315233910742500,7.534742431640625,0.0026706052012741566,-0.001564749050885439,0.0020425845868885517
1761315233920724500,7.544724365234375,0.005349479150027037,-0.004029504489153624,0.001918214838951826
1761315233930705700,7.55470556640625,-0.0016059980262070894,0.0045487829484045506,-0.001442017499357462
1761315233940687400,7.564687255859375,-0.007721947506070137,0.007287577260285616,-0.007757171522825956
1761315233950668500,7.57466845703125,-0.005801317282021046,0.0139585230499506,-0.009482147172093391
1761315233960650500,7.584650390625,-0.0066308919340372086,0.034693095833063126,-0.005249851383268833
1761315233970632400,7.594632568359375,-0.009019384160637856,0.05779865011572838,0.0008739021141082048
1761315233980613400,7.60461328125,-0.009240159764885902,0.05945060774683952,-0.0006875090766698122
1761315233990595600,7.614595703125,-0.012772837653756142,0.040716636925935745,-0.010946781374514103
1761315234000577500,7.62457763671875,-0.019485069438815117,0.018525047227740288,-0.027828026562929153
1761315234010558500,7.634558349609375,-0.024898089468479156,0.004640648141503334,-0.05014865845441818
1761315234020540400,7.64454052734375,-0.027171628549695015,-0.010120188817381859,-0.06825656443834305
1761315234030522400,7.6545224609375,-0.027215182781219482,-0.008045329712331295,-0.07800015062093735
1761315234040503600,7.664503662109375,-0.027230096980929375,0.003710928838700056,-0.07901455461978912
1761315234050485200,7.6744853515625,-0.02868858352303505,0.02214721404016018,-0.0684717521071434
1761315234060467500,7.684467529296875,-0.028663817793130875,0.04610048606991768,-0.043685182929039
1761315234070448400,7.694448486328125,-0.020276088267564774,0.06285363435745239,-0.017999956384301186
1761315234080430600,7.7044306640625,-0.013054927811026573,0.07630845904350281,0.0646938607096672
1761315234090411500,7.71441162109375,0.016149276867508888,-0.03878829628229141,0.040703028440475464
1761315234100393500,7.7243935546875,0.06075083091855049,-0.06437169015407562,0.01683870702981949
1761315234110375400,7.73437548828125,0.08303967118263245,-0.04579834267497063,-0.005148075055330992
1761315234120356600,7.744356689453125,0.08164604008197784,-0.04917416349053383,-0.027189195156097412
1761315234130338300,7.75433837890625,0.06238619610667229,-0.038230374455451965,-0.019755613058805466
1761315234140320500,7.764320556640625,0.037939976900815964,-0.020189588889479637,-0.001294848509132862
1761315234150301400,7.774301513671875,0.014094739221036434,-0.012307482771575451,0.001199084334075451
1761315234160283600,7.78428369140625,0.0040133437141776085,0.0005896738730370998,-0.0070234257727861404
1761315234170265300,7.794265380859375,-0.003410055534914136,0.013117446564137936,-0.0072461701929569244
1761315234180246300,7.804246337890625,-0.011264782398939133,0.016499660909175873,-0.0004942577797919512
1761315234190228500,7.814228515625,-0.015499280765652657,0.011123878881335258,0.007636879570782185
1761315234200210700,7.824210693359375,-0.0012561631156131625,0.011841867119073868,0.013005811721086502
1761315234210191600,7.834191650390625,0.022767087444663048,0.004384467378258705,0.015099246054887772
1761315234220173300,7.84417333984375,0.04928018897771835,-0.013004641979932785,0.015729084610939026
1761315234230155500,7.854155517578125,0.06589570641517639,-0.034872375428676605,0.009740777313709259
1761315234240136400,7.864136474609375,0.07046569138765335,-0.05384446680545807,-0.002563559915870428
1761315234250118400,7.874118408203125,0.0690259113907814,-0.06628519296646118,-0.021714461967349052
1761315234260099300,7.884099365234375,0.051883406937122345,-0.06251682341098785,-0.048747144639492035
1761315234270081500,7.89408154296875,0.02179894782602787,-0.02517024055123329,-0.07580305635929108
1761315234280063500,7.9040634765625,-0.0028605936095118523,0.03333327919244766,-0.0902821272611618
1761315234290044700,7.914044677734375,-0.02887490764260292,0.054559189826250076,-0.06445909291505814
1761315234300026400,7.9240263671875,-0.05993854999542236,0.021084584295749664,-0.011263512074947357
1761315234310008600,7.934008544921875,-0.08771219849586487,-0.03517227619886398,0.04389794170856476
1761315234319989500,7.943989501953125,-0.08500083535909653,-0.05374356359243393,0.07213223725557327
1761315234329971500,7.953971435546875,-0.05599934980273247,-0.04986097663640976,0.06320737302303314
1761315234339953400,7.963953369140625,-0.018409363925457,-0.034665241837501526,0.0282917357981205
1761315234349934600,7.9739345703125,0.006619007792323828,-0.013605965301394463,-0.006330127827823162
1761315234359916500,7.98391650390625,0.013587967492640018,0.008988026529550552,-0.03174547478556633
1761315234369897500,7.9938974609375,0.009176783263683319,0.023022813722491264,-0.04112802818417549
1761315234379879400,8.00387939453125,-0.0031720283441245556,0.028561124578118324,-0.03821985796093941
1761315234389861600,8.013861572265625,-0.017937997356057167,0.025139547884464264,-0.016350023448467255
1761315234399842600,8.023842529296875,-0.028625795617699623,0.010116656310856342,0.0037256842479109764
1761315234409824300,8.03382421875,-0.035375893115997314,-0.005696169566363096,0.024687888100743294
1761315234419806500,8.043806396484374,-0.0340895839035511,-0.007885022088885307,0.039740607142448425
1761315234429787400,8.053787353515625,-0.02738972380757332,-0.002296898979693651,0.04735473915934563
1761315234439769600,8.06376953125,-0.018270794302225113,0.01312466710805893,0.05253591760993004
1761315234449751300,8.073751220703125,0.000022156047634780407,0.022003138437867165,0.039578549563884735
1761315234459732500,8.083732421875,0.018585454672574997,0.024345921352505684,0.02822868898510933
1761315234469714400,8.09371435546875,0.033205918967723846,0.02644527144730091,0.01834246702492237
1761315234479696600,8.103696533203125,0.03569970279932022,0.02318716049194336,0.00873990822583437
1761315234489677300,8.11367724609375,0.034292738884687424,0.02316935360431671,0.0027611192781478167
1761315234499659500,8.123659423828125,0.029973888769745827,0.02832656353712082,0.0035283761098980904
1761315234509641500,8.133641357421874,0.02012428268790245,0.045549169182777405,0.0018120295135304332
1761315234519622700,8.14362255859375,0.00432401429861784,0.06934557855129242,-0.011339192278683186
1761315234529604400,8.153604248046875,-0.002342281863093376,0.07855401188135147,-0.0372857004404068
1761315234539585300,8.163585205078125,-0.01656915433704853,0.08390883356332779,-0.07304849475622177
1761315234549567500,8.1735673828125,-0.03537455201148987,0.08776778727769852,-0.10770180076360703
1761315234559549700,8.1835498046875,-0.058285459876060486,0.10172515362501144,-0.12602967023849487
1761315234569530400,8.1935302734375,-0.07867234945297241,0.1411292850971222,-0.1261317878961563
1761315234579512300,8.20351220703125,-0.1013057604432106,0.15764939785003662,-0.1387418508529663
1761315234589494500,8.21349462890625,-0.11487482488155365,0.1616009622812271,-0.16327627003192902
1761315234599475500,8.223475341796876,-0.09957896173000336,0.17228183150291443,-0.1668395847082138
1761315234609457400,8.23345751953125,-0.12233909219503403,0.18218828737735748,0.09899536520242691
1761315234619439400,8.243439453125,-0.10659794509410858,-0.1446971595287323,0.11662735044956207
1761315234629420500,8.253420654296875,-0.02581276185810566,-0.26578205823898315,0.14981169998645782
1761315234639402500,8.263402587890624,0.04667848348617554,-0.22974923253059387,0.16437439620494843
1761315234649383400,8.273383544921876,0.09027028828859329,-0.2514060139656067,0.15380288660526276
1761315234659365400,8.283365478515625,0.09066177904605865,-0.22369475662708282,0.11870454251766205
1761315234669347600,8.29334765625,0.08933532238006592,-0.12165893614292145,0.05333331972360611
1761315234679328500,8.30332861328125,0.09244269877672195,-0.009352369233965874,-0.05726829171180725
1761315234689310700,8.313310791015626,0.07523906230926514,0.09840468317270279,-0.17324219644069672
1761315234699293000,8.32329296875,0.02321607433259487,0.1896248757839203,-0.24047823250293732
1761315234709273900,8.33327392578125,-0.020400935783982277,0.23342587053775787,-0.23111751675605774
1761315234719255800,8.343255859375,-0.040918461978435516,0.214756041765213,-0.19898621737957
