time,seconds_elapsed,z,y,x
1761316882446120000,0.069119873046875,0.3229195475578308,0.4419328570365906,0.04217494651675224
1761316882456103000,0.07910302734375,0.27014634013175964,0.43371114134788513,-0.06286758184432983
1761316882466086000,0.0890859375,0.20837752521038055,0.37047889828681946,-0.12441935390233994
1761316882476068900,0.09906884765625,0.11439776420593262,0.2964715361595154,-0.14603278040885925
1761316882486052000,0.109052001953125,0.03504914790391922,0.23431389033794403,-0.1298958957195282
1761316882496034800,0.119034912109375,-0.009454872459173203,0.14015920460224152,-0.1111934706568718
1761316882506017000,0.12901708984375,-0.03572962060570717,0.04630009084939957,-0.09498760104179382
1761316882516000000,0.139,-0.056478217244148254,-0.01138057466596365,-0.07049126923084259
1761316882525983000,0.14898291015625,-0.083189457654953,-0.05908817797899246,-0.037072595208883286
1761316882535966000,0.158966064453125,-0.10058178007602692,-0.0944104716181755,-0.024095607921481133
1761316882545949000,0.168948974609375,-0.10640904307365417,-0.11907746642827988,-0.03321666643023491
1761316882555932200,0.17893212890625,-0.1091793030500412,-0.1311522126197815,-0.06281985342502594
1761316882565915000,0.188914794921875,-0.1184990331530571,-0.14413060247898102,-0.1110323891043663
1761316882575897000,0.19889697265625,-0.1356043666601181,-0.15434277057647705,-0.1551821231842041
1761316882585880000,0.208880126953125,-0.15578952431678772,-0.1610773652791977,-0.17117200791835785
1761316882595862800,0.21886279296875,-0.17793777585029602,-0.16150236129760742,-0.13991235196590424
1761316882605846000,0.228845947265625,-0.19548481702804565,-0.19215746223926544,-0.07914725691080093
1761316882615829000,0.2388291015625,-0.20226237177848816,-0.23988711833953857,-0.01713293418288231
1761316882625812000,0.24881201171875,-0.20916502177715302,-0.2779242694377899,0.026986589655280113
1761316882635795000,0.258794921875,-0.2296636551618576,-0.31542494893074036,0.021994885057210922
1761316882645778000,0.26877783203125,-0.2577093839645386,-0.3648335039615631,-0.06919094920158386
1761316882655760100,0.278760009765625,-0.2659807503223419,-0.39542311429977417,-0.20423677563667297
1761316882665742800,0.288742919921875,-0.2851150333881378,-0.3877667784690857,-0.3036288917064667
1761316882675725800,0.298725830078125,-0.31153687834739685,-0.3588743507862091,-0.3961966633796692
1761316882685709000,0.308708984375,-0.31702297925949097,-0.3332318365573883,-0.46892598271369934
1761316882695692000,0.318692138671875,-0.2951144874095917,-0.3111955225467682,-0.5428329706192017
1761316882705675000,0.328675048828125,-0.2604675590991974,-0.28471410274505615,-0.6298946142196655
1761316882715658000,0.338657958984375,-0.22147756814956665,-0.2517286241054535,-0.7110000848770142
1761316882725641000,0.348640869140625,-0.18889406323432922,-0.22687546908855438,-0.7896608114242554
1761316882735623000,0.358622802734375,-0.1685277223587036,-0.217022106051445,-0.8496410250663757
1761316882745606000,0.36860595703125,-0.14996442198753357,-0.20260587334632874,-0.8889796137809753
1761316882755589000,0.378589111328125,-0.12924401462078094,-0.20992740988731384,-0.930903434753418
1761316882765571800,0.38857177734375,-0.09635051339864731,-0.2622031569480896,-0.9785931706428528
1761316882775554800,0.398554931640625,-0.06739140301942825,-0.31781500577926636,-1.03824782371521
1761316882785538000,0.4085380859375,-0.05007020756602287,-0.3558473587036133,-1.102053165435791
1761316882795521000,0.41852099609375,-0.054599061608314514,-0.39050766825675964,-1.1571569442749023
1761316882805503000,0.4285029296875,-0.036619529128074646,-0.41571077704429626,-1.2033473253250122
1761316882815486000,0.43848583984375,0.005747005343437195,-0.4089104235172272,-1.2437909841537476
1761316882825469000,0.448468994140625,0.050507284700870514,-0.40290260314941406,-1.2881147861480713
1761316882835452000,0.458451904296875,0.08704504370689392,-0.4210512042045593,-1.337020754814148
1761316882845435000,0.468434814453125,0.10749039798974991,-0.474719762802124,-1.384006381034851
1761316882855417900,0.47841796875,0.12089069187641144,-0.5481688976287842,-1.414224624633789
1761316882865401000,0.488401123046875,0.1370781809091568,-0.6143247485160828,-1.4069938659667969
1761316882875383800,0.4983837890625,0.1579587757587433,-0.6498956084251404,-1.372458815574646
1761316882885366000,0.508365966796875,0.18213841319084167,-0.66120445728302,-1.3402998447418213
1761316882895349000,0.518348876953125,0.18299412727355957,-0.6605215668678284,-1.3055154085159302
1761316882905332000,0.52833203125,0.15984885394573212,-0.6144518256187439,-1.2724628448486328
1761316882915315000,0.53831494140625,0.13303545117378235,-0.4941098988056183,-1.2405121326446533
1761316882925298000,0.5482978515625,0.1268816888332367,-0.33343127369880676,-1.206161618232727
1761316882935281200,0.55828125,0.12855441868305206,-0.158233180642128,-1.151038646697998
1761316882945263900,0.568263916015625,0.12853311002254486,-0.014151105657219887,-1.0682977437973022
1761316882955246800,0.578246826171875,0.13198664784431458,0.09150878340005875,-0.9542252421379089
1761316882965229000,0.58822900390625,0.1411503106355667,0.1596153974533081,-0.8151816129684448
1761316882975211800,0.598211669921875,0.1516653448343277,0.19531573355197906,-0.6537423729896545
1761316882985195000,0.608195068359375,0.15024109184741974,0.20268656313419342,-0.4694737195968628
1761316882995178000,0.618177978515625,0.13785044848918915,0.20288126170635223,-0.28165167570114136
1761316883005161000,0.628160888671875,0.12128372490406036,0.18266066908836365,-0.133121058344841
1761316883015144000,0.63814404296875,0.09685871750116348,0.16036927700042725,-0.042301978915929794
1761316883025127000,0.648126953125,0.07178506255149841,0.14914298057556152,-0.0015963604673743248
1761316883035110000,0.65810986328125,0.04792679473757744,0.14884813129901886,-0.0024068623315542936
1761316883045091800,0.668091796875,0.019943099468946457,0.1591111570596695,-0.017293933779001236
1761316883055074800,0.67807470703125,0.005959636531770229,0.17827855050563812,-0.04033734276890755
1761316883065058000,0.68805810546875,0.006827560719102621,0.21039679646492004,-0.07401993870735168
1761316883075041000,0.698041015625,0.014182440005242825,0.22373388707637787,-0.1078282818198204
1761316883085024000,0.70802392578125,0.014895633794367313,0.1990162879228592,-0.13512647151947021
1761316883095007000,0.718007080078125,0.017390834167599678,0.14871560037136078,-0.17162014544010162
1761316883104990000,0.727989990234375,0.029933523386716843,0.08524955064058304,-0.2066311240196228
1761316883114972000,0.737971923828125,0.03466472029685974,0.033129025250673294,-0.24279548227787018
1761316883124955000,0.747954833984375,0.03147611767053604,0.0072518908418715,-0.2635857164859772
1761316883134938000,0.757938232421875,0.02590012550354004,0.01865261420607567,-0.2586446702480316
1761316883144920800,0.7679208984375,0.028827471658587456,0.05451234430074692,-0.23633404076099396
1761316883154903800,0.77790380859375,0.04284539446234703,0.10827536880970001,-0.19726695120334625
1761316883164887000,0.787886962890625,0.06075355410575867,0.16639380156993866,-0.16048602759838104
1761316883174870000,0.7978701171875,0.06715784221887589,0.21293507516384125,-0.13253779709339142
1761316883184852700,0.807852783203125,0.06326723098754883,0.22964107990264893,-0.10919464379549026
1761316883194835000,0.8178349609375,0.06323570758104324,0.20350249111652374,-0.09479860216379166
1761316883204818000,0.82781787109375,0.06780116260051727,0.16067220270633698,-0.10204426199197769
1761316883214801000,0.83780078125,0.06956504285335541,0.11070647090673447,-0.11874709278345108
1761316883224784000,0.847783935546875,0.05516346916556358,0.062296319752931595,-0.14284391701221466
1761316883234766800,0.857766845703125,0.034062597900629044,0.030185863375663757,-0.16504934430122375
1761316883244750000,0.86775,0.026065658777952194,0.021263474598526955,-0.1819915771484375
1761316883254732800,0.87773291015625,0.0209830179810524,0.022793374955654144,-0.18701335787773132
1761316883264716000,0.887716064453125,0.023442711681127548,0.030787119641900063,-0.17712929844856262
1761316883274698000,0.897697998046875,0.024607336148619652,0.033504415303468704,-0.14401201903820038
1761316883284681000,0.907680908203125,0.028195146471261978,0.03235339745879173,-0.10090981423854828
1761316883294664200,0.917664306640625,0.031199483200907707,0.026822881773114204,-0.05919584259390831
1761316883304647000,0.92764697265625,0.026080355048179626,0.015099914744496346,-0.02598169818520546
1761316883314630100,0.937630126953125,0.023138489574193954,-0.0066277505829930305,-0.020557718351483345
1761316883324613000,0.947613037109375,0.023070311173796654,-0.01923142746090889,-0.024947673082351685
1761316883334596000,0.95759619140625,0.02498108707368374,-0.015041710808873177,-0.04006992280483246
1761316883344579000,0.9675791015625,0.023633794859051704,-0.0021485500037670135,-0.05294657126069069
1761316883354561000,0.97756103515625,0.022002490237355232,0.00787618663161993,-0.05004655942320824
1761316883364544300,0.987544189453125,0.029064925387501717,0.01410452090203762,-0.04886704683303833
1761316883374527000,0.99752685546875,0.021109027788043022,0.014710385352373123,-0.04361862689256668
1761316883384510000,1.007510009765625,0.016780592501163483,0.011788098141551018,-0.032934289425611496
1761316883394493200,1.0174931640625,0.018630316480994225,0.00719483895227313,-0.020293574780225754
1761316883404476200,1.02747607421875,0.024186203256249428,-0.0016239527612924576,-0.013463630340993404
1761316883414459000,1.037458984375,0.027105560526251793,-0.012365279719233513,-0.025433475151658058
1761316883424441000,1.047441162109375,0.022796565666794777,-0.027620932087302208,-0.041475560516119
1761316883434424000,1.057424072265625,0.014586925506591797,-0.027854548767209053,-0.042582329362630844
1761316883444407000,1.067406982421875,0.00801557581871748,-0.029252443462610245,-0.040533557534217834
1761316883454390000,1.07739013671875,0.006472186651080847,-0.02106396295130253,-0.018031219020485878
1761316883464373000,1.087373046875,0.010038692504167557,-0.00419550109654665,0.012816975824534893
1761316883474356200,1.097356201171875,0.01219949871301651,0.0019297297112643719,0.046686090528964996
1761316883484339000,1.1073388671875,0.015063461847603321,0.004025903530418873,0.057995203882455826
1761316883494322200,1.117322265625,0.011695710942149162,-0.000729663297533989,0.050574205815792084
1761316883504305200,1.12730517578125,0.006364594679325819,-0.004146232735365629,0.03447593003511429
1761316883514287000,1.137287109375,-0.003912835381925106,-0.010884465649724007,0.021156826987862587
1761316883524270000,1.14727001953125,-0.0024254596792161465,-0.015311703085899353,0.02106628008186817
1761316883534253000,1.157253173828125,-0.0000217328779399395,-0.014135792851448059,0.032040100544691086
1761316883544236300,1.167236328125,0.003907761536538601,-0.013203419744968414,0.04754422605037689
1761316883554219000,1.177218994140625,0.007928200997412205,-0.012410419061779976,0.04806813225150108
1761316883564202000,1.187201904296875,0.013519241474568844,-0.014496473595499992,0.040199022740125656
1761316883574185200,1.197185302734375,0.011615108698606491,-0.015747645869851112,0.020534999668598175
1761316883584167000,1.2071669921875,0.0003962763585150242,-0.016445927321910858,-0.006013520993292332
1761316883594150100,1.217150146484375,-0.006509660743176937,-0.017823338508605957,-0.017948269844055176
1761316883604133000,1.227133056640625,-0.005828690715134144,-0.02277548611164093,-0.02097788266837597
1761316883614115800,1.23711572265625,-0.004588944837450981,-0.025844542309641838,-0.009181656874716282
1761316883624099000,1.24709912109375,-0.007674749940633774,-0.02531830221414566,0.005648688413202763
1761316883634082000,1.25708203125,-0.008774855174124241,-0.026620173826813698,0.016870880499482155
1761316883644065000,1.26706494140625,-0.009095500223338604,-0.022765249013900757,0.025944001972675323
1761316883654048000,1.277048095703125,-0.00534274335950613,-0.02038729377090931,0.03199130296707153
1761316883664030000,1.287030029296875,-0.00494886189699173,-0.009522661566734314,0.03540866822004318
1761316883674013200,1.29701318359375,-0.009141301736235619,0.0022934055887162685,0.03860507905483246
1761316883683996000,1.306995849609375,-0.006443253718316555,0.00024250522255897522,0.04036889225244522
1761316883693979100,1.316979248046875,-0.004113480914384127,0.003422384150326252,0.025357862934470177
1761316883703962000,1.326962158203125,0.00008179689757525921,-0.0020541404373943806,0.0089762257412076
1761316883713945000,1.336945068359375,-0.003692613448947668,-0.015548436902463436,-0.004891345277428627
1761316883723928000,1.346927978515625,-0.0006294454797171056,-0.018828652799129486,-0.013400677591562271
1761316883733911000,1.3569111328125,-0.00191498885396868,-0.01858885958790779,-0.013866467401385307
1761316883743893200,1.366893310546875,-0.003315278794616461,-0.013698764145374298,-0.002230850514024496
1761316883753876000,1.3768759765625,-0.00006445462349802256,-0.009819090366363525,0.003743360284715891
1761316883763859000,1.38685888671875,0.004699141718447208,-0.00556202745065093,-0.0023835082538425922
1761316883773842200,1.39684228515625,0.006866530515253544,-0.00636779610067606,-0.006810767110437155
1761316883783825200,1.4068251953125,0.0033682025969028473,-0.011870153248310089,-0.008386027067899704
1761316883793808000,1.416807861328125,0.0044208853505551815,-0.012298788875341415,-0.0020372767467051744
1761316883803791000,1.426791015625,0.007547169923782349,0.0062479982152581215,0.010379712097346783
1761316883813773000,1.43677294921875,0.006561586633324623,0.01782667078077793,0.021232131868600845
1761316883823756000,1.446756103515625,0.004912557080388069,0.022894399240612984,0.029850654304027557
1761316883833739000,1.456739013671875,0.0024738083593547344,0.028954843059182167,0.03037324920296669
1761316883843722000,1.466721923828125,-0.0007781776948831975,0.03268859535455704,0.027864551171660423
1761316883853705200,1.476705322265625,-0.0016376476269215345,0.032213710248470306,0.0276588536798954
1761316883863688000,1.48668798828125,0.003377350978553295,0.02615875005722046,0.01550045795738697
1761316883873671200,1.496671142578125,0.00461663119494915,0.017510680481791496,-0.0042273178696632385
1761316883883654100,1.506654052734375,0.0007151002064347267,0.004619648214429617,-0.022970378398895264
1761316883893636000,1.516635986328125,-0.002889759838581085,-0.005318023730069399,-0.03136787936091423
1761316883903619000,1.526619140625,-0.0009232817683368921,-0.0045449077151715755,-0.028259435668587685
1761316883913602000,1.53660205078125,0.005175180267542601,-0.006711269728839397,-0.01779063232243061
1761316883923585300,1.546585205078125,0.006095302291214466,-0.005036141257733107,-0.0033539021387696266
1761316883933568000,1.556568115234375,0.004264493472874165,0.00048797717317938805,0.023166919127106667
1761316883943551000,1.566551025390625,0.005766782909631729,0.004811353050172329,0.04008118808269501
1761316883953534200,1.5765341796875,0.010314304381608963,0.0025183437392115593,0.04583701491355896
1761316883963516000,1.586515869140625,0.014928230084478855,-0.006762240547686815,0.0339856818318367
1761316883973499100,1.5964990234375,0.013466780073940754,-0.013223307207226753,0.0104330163449049
1761316883983482000,1.606482177734375,0.0030900395940989256,-0.016547199338674545,-0.006624531466513872
1761316883993465000,1.616465087890625,-0.005384118761867285,-0.006115431897342205,-0.014611146412789822
1761316884003448000,1.626447998046875,-0.00610876502469182,-0.0027955356054008007,-0.006408609449863434
1761316884013431000,1.63643115234375,-0.007393763400614262,-0.0015862672589719296,0.0075848884880542755
1761316884023414000,1.6464140625,-0.004688790999352932,0.0033546951599419117,0.024491967633366585
1761316884033397000,1.65639697265625,0.0024361084215343,0.009952038526535034,0.0385986864566803
1761316884043379000,1.66637890625,0.0057405587285757065,0.004797757137566805,0.042186230421066284
1761316884053362200,1.676362060546875,0.0077931140549480915,-0.0010809344239532948,0.032471369951963425
1761316884063345000,1.686344970703125,0.008294587954878807,-0.0003482988104224205,0.012209774926304817
1761316884073328000,1.696328125,0.002651437185704708,-0.0033334940671920776,-0.005475438199937344
1761316884083311000,1.70631103515625,0.005059201270341873,-0.005307961720973253,-0.01854250580072403
1761316884093294000,1.716294189453125,0.012489420361816883,-0.008263271301984787,-0.017401073127985
1761316884103277000,1.726277099609375,0.012305928394198418,-0.011393550783395767,-0.003977143671363592
1761316884113260000,1.736260009765625,0.008778619579970837,-0.013562284409999847,0.01035881508141756
1761316884123242200,1.7462421875,0.010559475049376488,-0.014108233153820038,0.022455692291259766
1761316884133225000,1.756224853515625,0.004494731780141592,-0.011819569393992424,0.023666607216000557
1761316884143208000,1.7662080078125,-0.0010949766729027033,-0.003860978176817298,0.018472909927368164
1761316884153191200,1.776191162109375,-0.0023653781972825527,0.007281744387000799,0.012463245540857315
1761316884163174100,1.786174072265625,-0.003630646038800478,0.012146275490522385,0.009912203066051006
1761316884173156900,1.796156982421875,-0.001103882328607142,0.012289848178625107,0.011898900382220745
1761316884183140000,1.80614013671875,-0.0014181353617459536,0.011231772601604462,0.0211161021143198
1761316884193122000,1.8161220703125,0.0011107312748208642,0.009436053223907948,0.030804703012108803
1761316884203105000,1.82610498046875,-0.00027890619821846485,0.010366828180849552,0.019579479470849037
1761316884213088000,1.836087890625,0.00038761866744607687,0.003147395793348551,0.0038482267409563065
1761316884223071000,1.846071044921875,-0.006313960067927837,-0.007764108013361692,-0.014083901420235634
1761316884233054200,1.85605419921875,-0.0095299631357193,-0.006907395552843809,-0.024744579568505287
1761316884243037000,1.866036865234375,-0.008526750840246677,-0.00456621078774333,-0.016729265451431274
1761316884253020200,1.876020263671875,-0.0005598664283752441,0.0023663328029215336,-0.003955265507102013
1761316884263003100,1.886003173828125,-0.001939117442816496,0.007573346141725779,0.009617801755666733
1761316884272985000,1.895985107421875,0.001265019061975181,0.014005089178681374,0.019726669415831566
1761316884282968300,1.90596826171875,0.0010548956925049424,0.013227446004748344,0.01752130500972271
1761316884292951300,1.915951416015625,-0.005012361332774162,0.011527311988174915,0.012774733826518059
1761316884302934300,1.925934326171875,-0.004870681092143059,0.009950720705091953,0.007089949678629637
1761316884312917200,1.935917236328125,-0.0024040178395807743,0.008115774020552635,0.0033684689551591873
1761316884322900200,1.945900146484375,-0.002793372143059969,0.005670992657542229,0.00033912318758666515
1761316884332883200,1.95588330078125,0.0038423126097768545,0.003493401687592268,0.0011314140865579247
1761316884342866200,1.9658662109375,0.0017562585417181253,0.005724331829696894,0.006529109086841345
1761316884352848400,1.975848388671875,0.004845082759857178,0.011804979294538498,0.014029819518327713
1761316884362831400,1.985831298828125,0.012643084861338139,0.0153091661632061,0.01612066850066185
1761316884372814000,1.99581396484375,0.01358018722385168,0.01286371611058712,0.013995504938066006
1761316884382797300,2.00579736328125,0.009777992032468319,0.007947253063321114,-0.002082530874758959
1761316884392780300,2.0157802734375,0.002454435219988227,0.00036318879574537277,-0.02172873355448246
1761316884402763000,2.025762939453125,-0.008013918064534664,-0.007398594170808792,-0.039809998124837875
1761316884412746200,2.035746337890625,-0.01405885349959135,-0.010838180780410767,-0.04811551421880722
1761316884422728200,2.045728271484375,-0.01625676080584526,-0.015651844441890717,-0.04902525246143341
1761316884432711200,2.055711181640625,-0.016529357060790062,-0.019336579367518425,-0.03348984569311142
1761316884442694100,2.065694091796875,-0.013911735266447067,-0.02118081785738468,-0.014743054285645485
1761316884452677400,2.075677490234375,-0.005970809143036604,-0.016565237194299698,0.00696406327188015
1761316884462660400,2.085660400390625,0.0013100069481879473,-0.01115875318646431,0.02357659675180912
1761316884472643000,2.09564306640625,0.003381171729415655,-0.005674169398844242,0.03479790687561035
1761316884482626300,2.105626220703125,0.01570947654545307,-0.0023239129222929478,0.03165377676486969
1761316884492609300,2.115609375,0.011454209685325623,0.005978450644761324,0.017159687355160713
1761316884502591200,2.12559130859375,0.013562101870775223,0.010653896257281303,-0.00023181922733783722
1761316884512574200,2.13557421875,0.012380830943584442,0.011514470912516117,-0.01894906722009182
1761316884522557200,2.14555712890625,0.00800792034715414,0.012451904825866222,-0.028925269842147827
1761316884532540400,2.15554052734375,0.0023507429286837578,0.011306894943118095,-0.03433752804994583
1761316884542523100,2.165523193359375,-0.0029385611414909363,0.01506381668150425,-0.024843890219926834
1761316884552506000,2.175506103515625,-0.005925108678638935,0.015575275756418705,-0.014306053519248962
1761316884562489300,2.1854892578125,-0.009058849886059761,0.012904125265777111,0.001362654147669673
1761316884572471000,2.195470947265625,-0.011746426112949848,0.008603597059845924,0.011421987786889076
1761316884582454300,2.205454345703125,-0.011715000495314598,0.007516229059547186,0.014674773439764977
1761316884592437200,2.215437255859375,-0.011248642578721046,0.003169485367834568,0.016158565878868103
1761316884602420200,2.225420166015625,-0.010057143867015839,-0.002927822060883045,0.011299096047878265
1761316884612403200,2.2354033203125,-0.010252194479107857,-0.005900285206735134,0.005054534878581762
1761316884622386200,2.24538623046875,-0.0016930607380345464,-0.0020645344629883766,-0.003330427687615156
1761316884632369200,2.255369140625,-0.0017621478764340281,0.007425892166793346,-0.010510432533919811
1761316884642352400,2.265352294921875,0.0001774323172867298,0.009549230337142944,-0.010078733786940575
1761316884652334300,2.275334228515625,0.002068097237497568,0.008260203525424004,-0.014993289485573769
1761316884662317300,2.2853173828125,0.00456321332603693,0.011993955820798874,-0.010735960677266121
1761316884672300300,2.29530029296875,0.001980762928724289,0.014338059350848198,-0.010023502632975578
1761316884682283300,2.305283203125,-0.0017394067253917456,0.012284230440855026,-0.012033656239509583
1761316884692266200,2.315266357421875,-0.006563796196132898,0.010248277336359024,-0.006215333007276058
1761316884702249200,2.325249267578125,-0.009371566586196423,0.0033224611543118954,-0.001999814994633198
1761316884712232400,2.335232421875,-0.006186772137880325,-0.0016846582293510437,0.0020534000359475613
1761316884722214100,2.345214111328125,-0.004327353090047836,-0.00476220715790987,0.000999320880509913
1761316884732197400,2.355197265625,-0.004641954321414232,-0.00859240535646677,0.00020286859944462776
1761316884742180400,2.365180419921875,-0.00491705909371376,-0.014117399230599403,0.0005227142246440053
1761316884752163000,2.3751630859375,-0.0006847686599940062,-0.011335629969835281,0.0025966432876884937
1761316884762146300,2.385146240234375,0.0018172712298110127,-0.00548999197781086,0.003813441377133131
1761316884772129300,2.39512939453125,-0.00012973567936569452,0.002089868765324354,0.00954372063279152
1761316884782112000,2.405112060546875,0.00326259876601398,0.009731543250381947,0.015440758317708969
1761316884792095200,2.41509521484375,0.0029919915832579136,0.00985221192240715,0.014657833613455296
1761316884802077200,2.4250771484375,0.0021983697079122066,0.004521629307419062,-0.0011150042992085218
1761316884812060200,2.43506005859375,-0.001895572291687131,-0.010117415338754654,-0.010533601976931095
1761316884822043100,2.445043212890625,-0.0038492672611027956,-0.016987573355436325,-0.02094363234937191
1761316884832026400,2.4550263671875,-0.004158076364547014,-0.01740923710167408,-0.02571175992488861
1761316884842009300,2.46500927734375,-0.006832156330347061,-0.014535419642925262,-0.027063846588134766
1761316884851992000,2.474991943359375,-0.0024765231646597385,-0.008556456305086613,-0.024109598249197006
1761316884861975300,2.484975341796875,-0.008089135400950909,-0.009273112751543522,-0.020014189183712006
1761316884871958300,2.494958251953125,-0.009475034661591053,-0.006141962017863989,-0.004807522054761648
1761316884881940200,2.504940185546875,-0.004547121003270149,-0.007044507190585136,0.008202020078897476
1761316884891923200,2.514923095703125,-0.0030107249040156603,-0.003816852578893304,0.013098981231451035
1761316884901906200,2.52490625,-0.0016993844183161855,0.00040026288479566574,0.014918185770511627
1761316884911889400,2.534889404296875,-0.0023429589346051216,0.0061194151639938354,0.017067745327949524
1761316884921872100,2.5448720703125,0.0022238297387957573,0.005235511809587479,0.012661280110478401
1761316884931855000,2.554855224609375,0.005441455636173487,0.00030822819098830223,0.00019514793530106544
1761316884941838300,2.56483837890625,0.0033346288837492466,-0.005418633110821247,-0.011818105354905128
1761316884951820000,2.574820068359375,-0.00005970709025859833,-0.0005991077050566673,-0.017412155866622925
1761316884961803300,2.58480322265625,-0.0003276210045441985,-0.0008409228175878525,-0.014445128850638866
1761316884971786200,2.5947861328125,-0.0008742254576645792,0.0073636434972286224,0.0048126778565347195
1761316884981769200,2.604769287109375,0.0064489347860217094,0.002168082632124424,0.017925018444657326
1761316884991752200,2.614752197265625,0.012071486562490463,0.005049567203968763,0.009704680182039738
1761316885001735200,2.624735107421875,0.0017509390600025654,-0.0028480365872383118,-0.0010294567327946424
1761316885011718400,2.634718505859375,-0.0038209017366170883,-0.006436310242861509,-0.008756005205214024
1761316885021701400,2.644701416015625,-0.0018658752087503672,-0.0016852309927344322,-0.002298905048519373
1761316885031683300,2.654683349609375,0.002704568672925234,0.007588749285787344,0.007705016992986202
1761316885041666300,2.664666259765625,0.007786146830767393,-0.0005807639099657536,0.0005395154003053904
1761316885051649300,2.674649169921875,0.006047500297427177,-0.0049148788675665855,-0.014026581309735775
1761316885061632300,2.68463232421875,0.0006759042153134942,-0.007794555276632309,-0.025957811623811722
1761316885071615200,2.694615234375,-0.0005693249986506999,-0.003688360331580043,-0.027526184916496277
1761316885081598200,2.70459814453125,0.0007819628808647394,-0.0017503779381513596,-0.013257501646876335
1761316885091581400,2.71458154296875,0.0015316496137529612,0.0028199544176459312,0.0032093741465359926
1761316885101563100,2.724563232421875,0.00022217340301722288,0.009548963978886604,0.01587297022342682
1761316885111546400,2.73454638671875,-0.0011579010169953108,0.009017059579491615,0.02176673151552677
1761316885121529300,2.744529296875,0.00043387035839259624,0.0026451810263097286,0.017746957018971443
1761316885131512000,2.754511962890625,-0.005250937305390835,-0.004657012410461903,0.005295265931636095
1761316885141495300,2.764495361328125,-0.010439573787152767,-0.009348437190055847,0.00006641540676355362
1761316885151478300,2.774478271484375,-0.002236882923170924,-0.014381559565663338,-0.008943713270127773
1761316885161461200,2.784461181640625,0.0013029908295720816,-0.013875825330615044,-0.01630282774567604
1761316885171444200,2.7944443359375,0.0002930569462478161,-0.01094009354710579,-0.020802464336156845
1761316885181426200,2.80442626953125,0.0028203967958688736,-0.005326949059963226,-0.02311675250530243
1761316885191409400,2.814409423828125,0.004749169573187828,0.001582370139658451,-0.0191344041377306
1761316885201392000,2.82439208984375,0.007120714522898197,0.01021234318614006,-0.011696460656821728
1761316885211375400,2.834375244140625,0.006639277562499046,0.01633615419268608,-0.004866291768848896
1761316885221358300,2.8443583984375,0.001989398617297411,0.020457129925489426,0.0027109344955533743
1761316885231341000,2.854341064453125,0.004096118733286858,0.02375268191099167,0.004404457286000252
1761316885241324300,2.86432421875,-0.000873606069944799,0.020011205226182938,-0.0020379959605634212
1761316885251307300,2.874307373046875,-0.004771035630255938,0.015146253630518913,-0.0020848859567195177
1761316885261289200,2.884289306640625,-0.004948135931044817,0.0037567121908068657,-0.006044473499059677
1761316885271272200,2.894272216796875,-0.00723870936781168,-0.0044228509068489075,-0.010537744499742985
1761316885281255000,2.9042548828125,-0.010129038244485855,-0.009622938930988312,-0.009862100705504417
1761316885291238100,2.914238037109375,-0.01111895963549614,-0.009009681642055511,-0.007941508665680885
1761316885301221000,2.92422119140625,-0.0098025593906641,0.0011428212746977806,0.00028419680893421173
1761316885311203800,2.934203857421875,-0.007300482131540775,0.0011527454480528831,0.013791097328066826
1761316885321187000,2.94418701171875,0.00016462476924061775,0.0024060294963419437,0.018484385684132576
1761316885331170000,2.954170166015625,0.002610941883176565,0.0028855246491730213,0.0199331846088171
1761316885341152000,2.964152099609375,0.0032823244109749794,0.004421902354806662,0.011317059397697449
1761316885351135000,2.974135009765625,0.005238174926489592,0.004811591934412718,-0.0023962745908647776
1761316885361118000,2.984117919921875,0.0019254687940701842,0.005974860396236181,-0.015657486394047737
1761316885371101200,2.99410107421875,-0.0004797758301720023,-0.001777763944119215,-0.025403544306755066
1761316885381084000,3.004083984375,-0.003325629746541381,-0.005387146025896072,-0.03000096045434475
1761316885391067100,3.014067138671875,-0.00021160615142434835,-0.010939926840364933,-0.03216683119535446
1761316885401050000,3.024050048828125,-0.00334588042460382,-0.014654504135251045,-0.024585610255599022
1761316885411032000,3.034031982421875,-0.007551621645689011,-0.01361678633838892,-0.01556746568530798
1761316885421015000,3.04401513671875,-0.004849844612181187,-0.009075830690562725,-0.005674622021615505
1761316885430998000,3.053998046875,-0.005992158316075802,-0.00199665199033916,0.0046460265293717384
1761316885440981200,3.063981201171875,-0.004556714557111263,0.0034479149617254734,0.019559461623430252
1761316885450964000,3.0739638671875,-0.0030091453809291124,0.0028826920315623283,0.023886173963546753
1761316885460947000,3.083947021484375,-0.0011294863652437925,0.005429739132523537,0.019317789003252983
1761316885470930200,3.09393017578125,-0.0006115349824540317,0.005271402187645435,0.017694227397441864
1761316885480913200,3.1039130859375,0.000518710701726377,0.0017333924770355225,0.006906294729560614
1761316885490895000,3.11389501953125,-0.000842670036945492,-0.004987381864339113,-0.012101528234779835
1761316885500878000,3.123878173828125,-0.0032389825209975243,-0.007116312626749277,-0.023166164755821228
1761316885510861000,3.133861083984375,-0.003932517487555742,-0.01336689479649067,-0.033054377883672714
1761316885520844000,3.143843994140625,-0.00318177230656147,-0.015309937298297882,-0.03437424078583717
1761316885530827000,3.153826904296875,-0.0064256577752530575,-0.012057937681674957,-0.034320320934057236
1761316885540810000,3.16381005859375,-0.007659233640879393,-0.008809413760900497,-0.030037689954042435
1761316885550793200,3.173793212890625,-0.005526748951524496,0.006088424474000931,-0.02095266804099083
1761316885560776000,3.18377587890625,-0.0085129514336586,0.004075607284903526,-0.014738447032868862
1761316885570758100,3.193758056640625,-0.006819113157689571,0.009503969922661781,-0.005532063078135252
1761316885580741000,3.2037412109375,-0.004545572679489851,0.009104495868086815,0.0017452908214181662
1761316885590724000,3.21372412109375,-0.002864114474505186,0.010960843414068222,-0.0011346128303557634
1761316885600707000,3.22370703125,-0.0020481219980865717,0.006976223085075617,-0.016369758173823357
1761316885610690000,3.23368994140625,-0.007245000917464495,0.002136459108442068,-0.032751329243183136
1761316885620673300,3.24367333984375,-0.008442624472081661,-0.004989360459148884,-0.03995411470532417
1761316885630656000,3.253656005859375,-0.005301890894770622,-0.0042905043810606,-0.040128182619810104
1761316885640638200,3.26363818359375,-0.0002059323014691472,-0.002858522580936551,-0.03432808443903923
1761316885650621200,3.27362109375,0.000739402836188674,-0.005355445202440023,-0.021088752895593643
1761316885660604000,3.28360400390625,-0.0032020756043493748,-0.008161084726452827,-0.008061368949711323
1761316885670587100,3.293587158203125,-0.0025857524015009403,-0.00012522051110863686,0.006715281866490841
1761316885680570000,3.303570068359375,0.002247885102406144,0.00277416268363595,0.008081483654677868
1761316885690552800,3.313552734375,-0.0013988057617098093,-0.0073943897150456905,0.009146933443844318
1761316885700536000,3.3235361328125,-0.00398260448127985,-0.010576866567134857,0.003183849388733506
1761316885710519000,3.33351904296875,-0.0027404141146689653,-0.005693315993994474,-0.002325249370187521
1761316885720501200,3.343501220703125,-0.00711092771962285,-0.00034915050491690636,-0.006423055659979582
1761316885730484000,3.35348388671875,-0.005868965294212103,0.003067067824304104,-0.0028676725924015045
1761316885740467000,3.363467041015625,-0.0048886556178331375,0.003430323675274849,-0.0012822926510125399
1761316885750450200,3.3734501953125,-0.0031507243402302265,0.0033127348870038986,0.0007045293459668756
1761316885760433000,3.383432861328125,-0.0020689484663307667,0.0011467854492366314,-0.0060617635026574135
1761316885770416000,3.393416015625,-0.005285935942083597,-0.0036120025906711817,-0.013115555979311466
1761316885780399000,3.403399169921875,-0.010710794478654861,-0.0030753754545003176,-0.012545106001198292
1761316885790382000,3.413382080078125,-0.012999980710446835,-0.007742788642644882,-0.002587977796792984
1761316885800364000,3.423364013671875,-0.011147486045956612,-0.0070485020987689495,0.003552206326276064
1761316885810347000,3.433346923828125,-0.008779843337833881,-0.008599413558840752,0.0010290441568940878
1761316885820330200,3.443330322265625,-0.006383798085153103,-0.01340375654399395,0.0024612920824438334
1761316885830313000,3.45331298828125,-0.003946261014789343,-0.013424773700535297,-0.0009167499374598265
1761316885840296000,3.4632958984375,-0.001447150600142777,-0.005184154491871595,-0.0030025376472622156
1761316885850279200,3.473279052734375,0.003215993521735072,0.0015223491936922073,-0.0025912392884492874
1761316885860262100,3.48326220703125,0.002675105584785342,0.007607938721776009,-0.01012798584997654
1761316885870244000,3.493244140625,-0.0017967689782381058,0.015808191150426865,-0.013440974988043308
1761316885880227000,3.50322705078125,0.002881339518353343,0.02221842110157013,-0.010193782858550549
1761316885890210000,3.5132099609375,0.004011411685496569,0.028803732246160507,-0.005657970905303955
1761316885900193000,3.523193115234375,0.003185032866895199,0.025705676525831223,0.00022841384634375572
1761316885910176000,3.533176025390625,-0.002442101249471307,0.02235463075339794,0.012088989838957787
1761316885920159000,3.543158935546875,-0.007209159433841705,0.023567168042063713,0.016762571409344673
1761316885930142200,3.55314208984375,-0.010410521179437637,0.024433301761746407,0.02224423736333847
1761316885940125000,3.563125,-0.014508061110973358,0.02403542399406433,0.028724506497383118
1761316885950107100,3.573107177734375,-0.012362884357571602,0.02180822379887104,0.024972112849354744
1761316885960090000,3.583090087890625,-0.009699190966784954,0.017515739426016808,0.021204805001616478
1761316885970073000,3.593072998046875,-0.008701837621629238,0.009920937940478325,0.010453890077769756
1761316885980056000,3.60305615234375,-0.00426101591438055,0.013572132214903831,0.004632486030459404
1761316885990039000,3.6130390625,-0.0027339353691786528,0.016713932156562805,-0.0075210342183709145
1761316886000022300,3.623022216796875,0.003503720508888364,0.024709273129701614,-0.012305669486522675
1761316886010005000,3.6330048828125,0.007118311244994402,0.029058920219540596,-0.014595064334571362
1761316886019988000,3.642988037109375,0.003037815447896719,0.034405745565891266,-0.012571861036121845
1761316886029970200,3.65297021484375,0.0017284529749304056,0.04221166670322418,-0.005874277092516422
1761316886039953000,3.662952880859375,0.0011441553942859173,0.04422448202967644,-0.007451401092112064
1761316886049936100,3.67293603515625,0.005423704162240028,0.0329778715968132,-0.006487871985882521
1761316886059919000,3.682919189453125,0.0072714053094387054,0.01977924443781376,-0.004508876707404852
1761316886069902000,3.692902099609375,-0.0008797748596407473,0.014405813068151474,-0.0005066990852355957
1761316886079885000,3.702885009765625,0.005737647879868746,0.011804703623056412,0.0034619434736669064
1761316886089868000,3.712867919921875,0.001214721705764532,0.005730784963816404,0.008947087451815605
1761316886099850200,3.722850341796875,0.0006575884763151407,0.0005133859813213348,0.01249521691352129
1761316886109833000,3.7328330078125,0.001531867659650743,-0.0021842673886567354,0.016842465847730637
1761316886119816200,3.742816162109375,0.0002980252029374242,-0.0062895300798118114,0.014211529865860939
1761316886129799200,3.752799072265625,0.0014064377173781395,-0.010439097881317139,0.009040610864758492
1761316886139782000,3.762781982421875,-0.0017451471649110317,-0.009136545471847057,-0.0025998002383857965
1761316886149765000,3.77276513671875,-0.0062841325998306274,-0.004300400614738464,-0.01246922742575407
1761316886159748000,3.782748046875,-0.0033677048049867153,-0.003029806539416313,-0.016084467992186546
1761316886169731000,3.79273095703125,-0.0074177756905555725,-0.005329310894012451,-0.015522846952080727
1761316886179713000,3.802713134765625,-0.005971146281808615,-0.014228795655071735,-0.016363075003027916
1761316886189696000,3.812696044921875,-0.006442678160965443,-0.012682909145951271,-0.009892393834888935
1761316886199679200,3.82267919921875,-0.006595010869204998,-0.006320350803434849,-0.00537993386387825
1761316886209662000,3.832661865234375,-0.0028212624602019787,0.0002324972301721573,0.008397292345762253
1761316886219645000,3.84264501953125,-0.0025624032132327557,0.00494123250246048,0.02493765391409397
1761316886229628200,3.852628173828125,-0.0020043011754751205,0.00805098656564951,0.0313962921500206
1761316886239611100,3.862611083984375,0.0016588770085945725,0.01187954656779766,0.039197757840156555
1761316886249593900,3.87259375,0.005877111107110977,0.01758914440870285,0.03370555862784386
1761316886259576000,3.882576171875,0.005959136411547661,0.01487698219716549,0.02049201726913452
1761316886269559000,3.89255908203125,0.006979654543101788,0.012256262823939323,0.0009493344696238637
1761316886279542300,3.902542236328125,0.0032791916746646166,0.009270060807466507,-0.006620434112846851
1761316886289525200,3.912525146484375,0.001455347635783255,0.00919015146791935,-0.014786608517169952
1761316886299508000,3.922508056640625,-0.0013819842133671045,0.006995439995080233,-0.012407340109348297
1761316886309491200,3.9324912109375,-0.007955502718687057,0.00573835801333189,-0.0077434927225112915
1761316886319474200,3.94247412109375,-0.00750436307862401,0.0012778299860656261,-0.0012749405577778816
1761316886329457400,3.95245751953125,-0.008363138884305954,-0.003107488388195634,0.009518234059214592
1761316886339439000,3.962439208984375,-0.005280530080199242,-0.004456379450857639,0.014485562220215797
1761316886349422300,3.97242236328125,-0.0008748069521971047,-0.0053283232264220715,0.008857324719429016
1761316886359405300,3.9824052734375,0.003717281622812152,-0.010213891975581646,-0.0017585677560418844
1761316886369388000,3.992387939453125,0.005364737473428249,-0.00903910119086504,-0.011091534048318863
1761316886379371300,4.002371337890625,0.006500309333205223,-0.0007449528202414513,-0.012301941402256489
1761316886389354200,4.012354248046875,0.0010783553589135408,0.005565603729337454,-0.007530436851084232
1761316886399337200,4.022337158203125,0.0021425546146929264,0.011628556996583939,0.005265786312520504
1761316886409319200,4.032319091796875,0.005563047714531422,0.014359943568706512,0.01724443957209587
1761316886419302100,4.04230224609375,0.0015789589378982782,0.008305512368679047,0.025166278705000877
1761316886429285400,4.052285400390625,0.0034778688568621874,0.002630169503390789,0.027233542874455452
1761316886439268000,4.06226806640625,0.0032176778186112642,-0.0016742981970310211,0.015633080154657364
1761316886449251000,4.0722509765625,-0.007555797696113586,-0.0075397067703306675,-0.003459413768723607
1761316886459234300,4.082234375,-0.00905648898333311,-0.009858520701527596,-0.012926151975989342
1761316886469217300,4.09221728515625,-0.012196703813970089,-0.006060692481696606,-0.01728985644876957
1761316886479200000,4.102199951171875,-0.0111210523173213,-0.004561332985758781,-0.006139467470347881
1761316886489182200,4.11218212890625,-0.00238594738766551,-0.005759095773100853,0.005715632811188698
1761316886499165200,4.122165283203125,0.003674874547868967,-0.006478415802121162,0.009183068759739399
1761316886509148200,4.132148193359375,0.006924203597009182,0.0022760918363928795,0.00853925570845604
1761316886519131100,4.142131103515625,0.008305319584906101,0.015279773622751236,0.006068374961614609
1761316886529114400,4.1521142578125,0.004957546014338732,0.026471922174096107,0.002609770279377699
1761316886539097300,4.162097412109375,0.006053969729691744,0.029652001336216927,0.002819361165165901
1761316886549080000,4.172080078125,0.006721085868775845,0.030902191996574402,0.00069614895619452
1761316886559063300,4.182063232421875,0.0030355367343872786,0.029668081551790237,0.005847501568496227
1761316886569045200,4.192045166015625,8.164206519722939e-7,0.023653455078601837,0.01006552018225193
1761316886579028200,4.2020283203125,-0.0033747400157153606,0.018936198204755783,0.009793611243367195
1761316886589011200,4.21201123046875,-0.003054617205634713,0.00985781755298376,0.00046776875387877226
1761316886598994200,4.221994140625,-0.005596870556473732,0.0026835286989808083,-0.009022139944136143
1761316886608977200,4.23197705078125,-0.01223316416144371,-0.003445398062467575,-0.010032661259174347
1761316886618960100,4.241960205078125,-0.010631006211042404,-0.008667323738336563,-0.004642955958843231
1761316886628943000,4.251943115234375,-0.0022803745232522488,-0.004165979567915201,0.003347672987729311
1761316886638926300,4.26192626953125,0.0009127554949373007,0.0023108283057808876,0.013392051681876183
1761316886648908000,4.271907958984375,0.0027941828593611717,0.005516722798347473,0.01815958321094513
1761316886658891300,4.281891357421875,0.0035862065851688385,0.004257047548890114,0.017852522432804108
1761316886668874200,4.291874267578125,0.00550184166058898,0.0052009448409080505,0.016037125140428543
1761316886678857200,4.301857177734375,0.0062406025826931,0.006531726568937302,0.016587868332862854
1761316886688840200,4.311840087890625,0.008395817130804062,0.004691441543400288,0.005416006315499544
1761316886698823200,4.3218232421875,0.007922840304672718,0.0098230866715312,-0.00930381752550602
1761316886708806400,4.331806396484375,0.002348862122744322,0.00267506530508399,-0.024657001718878746
1761316886718788000,4.3417880859375,-0.0013105873949825764,-0.00421506492421031,-0.03459032252430916
1761316886728771300,4.351771240234375,-0.0004053351003676653,-0.004101909697055817,-0.03375380486249924
1761316886738754300,4.36175439453125,0.003144125919789076,-0.004287532065063715,-0.026662340387701988
1761316886748737000,4.371737060546875,0.0008551444625481963,-0.003994416445493698,-0.0138060562312603
1761316886758720300,4.38172021484375,0.0018192088464275002,-0.004029836505651474,-0.0022490022238343954
1761316886768703200,4.391703125,0.0013289786875247955,0.0008999104611575603,0.006045232526957989
1761316886778686200,4.401686279296875,0.004141543060541153,0.000043437816202640533,0.010286050848662853
1761316886788669200,4.411669189453125,0.00518759386613965,0.0002966374158859253,0.010974065400660038
1761316886798651100,4.421651123046875,0.0034972853027284145,-0.0002533053047955036,0.008629951626062393
1761316886808634400,4.43163427734375,0.0028755676466971636,-0.0009290333837270737,0.007524269167333841
1761316886818617000,4.4416171875,-0.0006882743909955025,0.001027591060847044,0.0045705572701990604
1761316886828600000,4.45160009765625,-0.002464491408318281,0.00042493175715208054,-0.00014631077647209167
1761316886838583300,4.461583251953125,-0.00521074328571558,-0.0025186603888869286,-0.007102753967046738
1761316886848566300,4.471566162109375,-0.0074701812118291855,-0.0014741718769073486,-0.0074173398315906525
1761316886858549000,4.481549072265625,-0.0016818006988614798,-0.003149832598865032,-0.006205867975950241
1761316886868532200,4.4915322265625,-0.0025051941629499197,0.00007096957415342331,-0.00020168372429907322
1761316886878514200,4.50151416015625,0.0004698231350630522,0.0012291781604290009,-0.0012480397708714008
1761316886888497200,4.5114970703125,0.002754950663074851,0.0010795933194458485,0.0037162965163588524
1761316886898480000,4.521480224609375,0.007112148217856884,0.00031579891219735146,0.005252674221992493
1761316886908463400,4.53146337890625,0.004528011195361614,0.004683968145400286,0.011161185801029205
1761316886918446300,4.5414462890625,0.0071847811341285706,0.008499478921294212,0.011054126545786858
1761316886928429000,4.551428955078125,0.005550577770918608,0.015119088813662529,0.0033724636305123568
1761316886938412300,4.561412353515625,-0.0002953270450234413,0.014512687921524048,0.0005223486805334687
1761316886948395300,4.571395263671875,-0.0018190282862633467,0.0059369332157075405,-0.000013726996257901192
1761316886958377200,4.581377197265625,-0.00015934626571834087,0.0007730633951723576,-0.0011716694571077824
1761316886968360200,4.591360107421875,0.000785802723839879,-0.0021080251317471266,-0.0020286929793655872
1761316886978343200,4.60134326171875,-0.00682870764285326,-0.003747733309864998,-0.0019810223020613194
1761316886988326400,4.611326416015625,-0.006113375537097454,-0.002413408597931266,0.004506189841777086
1761316886998309000,4.62130908203125,-0.004982330836355686,-0.005987903568893671,0.012251727283000946
1761316887008292000,4.6312919921875,-0.0010868421522900462,-0.0020980536937713623,0.01816091686487198
1761316887018275300,4.641275390625,0.004069570451974869,-0.0010498333722352982,0.01397762168198824
1761316887028258000,4.651258056640625,0.004422622732818127,0.00009395740926265717,0.005429774522781372
1761316887038240300,4.661240234375,0.0022574723698198795,-0.001991031225770712,-0.004195156041532755
1761316887048223200,4.67122314453125,0.0011024351697415113,-0.002135445363819599,-0.010531695559620857
1761316887058206200,4.681206298828125,0.0006574208382517099,-0.0010179830715060234,-0.016168808564543724
1761316887068189200,4.691189208984375,-0.0003362959250807762,-0.0031190658919513226,-0.010602453723549843
1761316887078172200,4.701172119140625,-0.0016231352929025888,-0.0005746819078922272,-0.003920848481357098
1761316887088155400,4.7111552734375,0.0012583221541717649,-0.003077559173107147,-0.00031110062263906
1761316887098138000,4.72113818359375,-0.0008240033639594913,-0.006650456227362156,-0.003383323084563017
1761316887108121000,4.73112109375,-0.005601095035672188,-0.012220246717333794,0.001077513676136732
1761316887118103300,4.741103271484375,-0.009269066154956818,-0.010779477655887604,0.007079480215907097
1761316887128086000,4.7510859375,-0.011065591126680374,-0.00899412203580141,0.013624751009047031
1761316887138069200,4.7610693359375,-0.007331040687859058,-0.0064119212329387665,0.014352060854434967
1761316887148052200,4.77105224609375,-0.004097579047083855,-0.006729722023010254,0.015405604615807533
1761316887158035200,4.78103515625,0.004445841535925865,-0.008316699415445328,0.0009899133583530784
1761316887168018200,4.79101806640625,0.008721331134438515,-0.01434169989079237,-0.015489834360778332
1761316887178001200,4.801001220703125,0.010203646495938301,-0.013443149626255035,-0.021916573867201805
1761316887187984100,4.810984130859375,0.01219237595796585,-0.006947076879441738,-0.017624884843826294
1761316887197966000,4.820966064453125,0.011730051599442959,0.011111552827060223,-0.009104368276894093
1761316887207949000,4.830948974609375,0.01165446825325489,0.024203520268201828,0.00081580167170614
1761316887217932300,4.840932373046875,0.005032251589000225,0.03154106065630913,0.013535858131945133
1761316887227915300,4.850915283203125,0.006333180703222752,0.03450003266334534,0.022161222994327545
1761316887237898000,4.86089794921875,0.00349531602114439,0.02806689962744713,0.019941212609410286
1761316887247881200,4.870881103515625,0.00033232278656214476,0.016366541385650635,0.015358466655015945
1761316887257864200,4.8808642578125,-0.003015803173184395,0.008163473568856716,0.01923789270222187
1761316887267846100,4.89084619140625,-0.005329273175448179,-0.0009510251693427563,0.01565162092447281
1761316887277829000,4.9008291015625,-0.0068709771148860455,-0.01145799458026886,0.008531127125024796
1761316887287811600,4.9108115234375,-0.005865948740392923,-0.019550416618585587,-0.005498301237821579
1761316887297794600,4.920794677734375,-0.007089671213179827,-0.025325214490294456,-0.016769863665103912
1761316887307777500,4.930777587890625,-0.008429013192653656,-0.03238985314965248,-0.01584882289171219
1761316887317760800,4.9407607421875,-0.004953054711222649,-0.02925291657447815,-0.005737067200243473
1761316887327743500,4.950743408203125,0.005920805037021637,-0.012964067980647087,0.008068311028182507
1761316887337726700,4.960726806640625,0.010560031980276108,0.0018287263810634613,0.012727778404951096
1761316887347708700,4.970708740234375,0.009278704412281513,0.006335281766951084,0.013493534177541733
1761316887357691600,4.980691650390625,0.005170779302716255,0.005847923457622528,0.00851262453943491
1761316887367674600,4.990674560546875,0.0018626805394887924,0.009370798245072365,-0.005386510863900185
1761316887377657600,5.00065771484375,0.0030331399757415056,0.0038511306047439575,-0.01602291129529476
1761316887387640800,5.010640869140625,0.0003080338938161731,-0.0015315408818423748,-0.023126645013689995
1761316887397623600,5.02062353515625,-0.0054353391751646996,-0.004831730388104916,-0.024915223941206932
1761316887407606500,5.0306064453125,-0.0033106892369687557,-0.0012749782763421535,-0.01703859679400921
1761316887417589800,5.04058984375,0.002076885662972927,0.00515522388741374,-0.008097300305962563
1761316887427571500,5.050571533203125,0.0023422441445291042,0.005472780205309391,-0.0008186346385627985
1761316887437554700,5.0605546875,0.0036559817381203175,0.0022650035098195076,0.0025691725313663483
1761316887447537700,5.07053759765625,0.006164436228573322,0.00318306777626276,-0.0016372085083276033
1761316887457520600,5.080520751953125,0.007655274122953415,0.0011220471933484077,-0.011576658114790916
1761316887467503600,5.090503662109375,0.006150350905954838,0.0012676957994699478,-0.011680832132697105
1761316887477486600,5.100486572265625,0.00010470906272530556,0.0013987235724925995,-0.015888893976807594
1761316887487469600,5.110469482421875,-0.00510445237159729,-0.002537599066272378,-0.010487943887710571
1761316887497452500,5.12045263671875,-0.0019238389795646071,-0.006635138764977455,-0.0027559876907616854
1761316887507434500,5.1304345703125,-0.0012230371357873082,-0.01143600232899189,-0.0012204863596707582
1761316887517417700,5.140417724609375,-0.006275054067373276,-0.012136148288846016,0.0003579691983759403
1761316887527400400,5.150400390625,-0.005784852430224419,-0.007677693851292133,0.00971840601414442
1761316887537383700,5.1603837890625,-0.0027003795839846134,-0.0050547462888062,0.008295212872326374
1761316887547366700,5.17036669921875,-0.0034912023693323135,-0.0005536540411412716,0.010964436456561089
1761316887557349600,5.180349609375,0.0023365928791463375,0.0018394626677036285,0.008098607882857323
1761316887567332600,5.19033251953125,0.0013843767810612917,0.004369381815195084,-0.0015981642063707113
1761316887577315600,5.200315673828125,0.0033444634173065424,0.005136905238032341,-0.007765511982142925
1761316887587297800,5.2102978515625,0.0073617869056761265,0.01168617233633995,-0.008911559358239174
1761316887597280500,5.220280517578125,0.008526121266186237,0.018224764615297318,-0.005303242243826389
1761316887607263500,5.230263427734375,0.008308329619467258,0.01788732036948204,0.0031542466022074223
1761316887617246700,5.240246826171875,0.006471280939877033,0.016485698521137238,0.006070408038794994
1761316887627229700,5.250229736328125,0.001654049614444375,0.009916898794472218,0.0022077769972383976
1761316887637212400,5.26021240234375,-0.0020956811495125294,0.002434481866657734,-0.00029958924278616905
1761316887647195600,5.270195556640625,-0.0026856395415961742,-0.0029733742121607065,-0.0022680333349853754
1761316887657178600,5.2801787109375,-0.005093137267976999,-0.010398533195257187,-0.001863499404862523
1761316887667160600,5.29016064453125,-0.009385736659169197,-0.009411482140421867,0.004526492208242416
1761316887677143600,5.3001435546875,-0.00555211678147316,-0.006032463163137436,0.01171010360121727
1761316887687126500,5.31012646484375,-0.005209348164498806,0.00027060555294156075,0.021078776568174362
1761316887697109800,5.32010986328125,-0.00209691165946424,0.005099449306726456,0.026885798200964928
1761316887707092500,5.330092529296875,-0.0032851172145456076,0.006011066026985645,0.030980734154582024
1761316887717075700,5.34007568359375,-0.00008825864642858505,0.007284590043127537,0.025085825473070145
1761316887727058700,5.35005859375,0.002138778567314148,0.007978016510605812,0.01295443531125784
1761316887737040600,5.36004052734375,0.001119054271839559,0.010564744472503662,-0.005587557330727577
1761316887747023600,5.370023681640625,0.006130161229521036,0.00518800551071763,-0.01691298559308052
1761316887757006600,5.380006591796875,0.004523742478340864,0.00374137656763196,-0.025127504020929337
1761316887766989800,5.38998974609375,0.004092850722372532,-0.0028415927663445473,-0.023860447108745575
1761316887776972500,5.39997265625,-0.00009017600677907467,-0.0065559037029743195,-0.015629682689905167
1761316887786955500,5.40995556640625,0.0030760602094233036,-0.008372274227440357,-0.008104778826236725
1761316887796938800,5.419938720703125,-0.0022278912365436554,-0.007128577679395676,-0.001092675607651472
1761316887806921700,5.429921630859375,-0.007009015418589115,-0.0024338176008313894,0.007555302232503891
1761316887816903700,5.439903564453125,-0.0063216532580554485,-0.00527594331651926,0.01929345168173313
1761316887826886700,5.44988671875,-0.0034575785975903273,-0.008902356028556824,0.01910555548965931
1761316887836869600,5.45986962890625,-0.003141461405903101,-0.01537703350186348,0.01946348324418068
1761316887846852600,5.4698525390625,-0.002764839679002762,-0.015901805832982063,0.01884286105632782
1761316887856835600,5.479835693359375,0.003041650401428342,-0.00986468605697155,0.008200337179005146
1761316887866818600,5.489818603515625,0.006959899328649044,-0.0030171105172485113,0.0006202711956575513
1761316887876801800,5.4998017578125,0.006153227761387825,0.006919942796230316,-0.013852410949766636
1761316887886784500,5.509784423828125,0.0073450589552521706,0.018820587545633316,-0.017544515430927277
1761316887896766700,5.5197666015625,0.0055769868195056915,0.02679302915930748,-0.02213234454393387
1761316887906749700,5.529749755859375,0.006715154275298119,0.027087528258562088,-0.016184542328119278
1761316887916732700,5.539732666015625,0.0071377987042069435,0.025372719392180443,-0.02106664702296257
1761316887926715600,5.549715576171875,0.004213297739624977,0.016312608495354652,-0.024689245969057083
1761316887936698600,5.55969873046875,-0.0030826982110738754,0.007756137754768133,-0.028321266174316406
1761316887946681600,5.569681640625,-0.005867236293852329,0.0025505954399704933,-0.026238447055220604
1761316887956664600,5.57966455078125,-0.0037231252063065767,-0.0019472171552479267,-0.01412026397883892
1761316887966647600,5.5896474609375,-0.0034206719137728214,-0.011433703824877739,0.0005338783375918865
1761316887976629500,5.59962939453125,-0.0024960224982351065,-0.015370388515293598,0.014012935571372509
1761316887986612500,5.609612548828125,-0.0031295553781092167,-0.014555765315890312,0.0207272507250309
1761316887996595700,5.619595703125,0.001704348367638886,-0.012933100573718548,0.018407903611660004
1761316888006578700,5.62957861328125,0.006820505019277334,-0.010680637322366238,0.009487675502896309
1761316888016561400,5.6395615234375,0.003304332960397005,-0.007990311831235886,0.00022253859788179398
1761316888026544600,5.649544677734375,-0.001985035138204694,0.0006310036405920982,-0.007107239216566086
1761316888036527600,5.659527587890625,-0.0017911570612341166,0.013720706105232239,-0.0064995065331459045
1761316888046510600,5.669510498046875,-0.0031508938409388065,0.017842158675193787,-0.005574614740908146
1761316888056492500,5.679492431640625,0.00037726189475506544,0.01581922173500061,-0.002856059232726693
1761316888066475500,5.6894755859375,-0.002129881177097559,0.00818236917257309,-0.004583406262099743
1761316888076458800,5.699458740234375,-0.004777595866471529,-0.0017211283557116985,0.0021503963507711887
1761316888086441500,5.70944140625,-0.005673285573720932,-0.0022553999442607164,0.016462387517094612
1761316888096424700,5.7194248046875,-0.00502986554056406,0.0025300346314907074,0.029303617775440216
1761316888106407700,5.72940771484375,-0.0017104580765590072,0.00226475577801466,0.03436790406703949
1761316888116390700,5.739390625,-0.004385337233543396,0.0044645266607403755,0.029594190418720245
1761316888126372600,5.74937255859375,-0.00018192001152783632,0.0011100918054580688,0.02331152930855751
1761316888136355600,5.75935546875,0.0016119852662086487,0.00016626762226223946,0.00793923158198595
1761316888146338800,5.7693388671875,0.005966308061033487,0.0005239709280431271,-0.005471346899867058
1761316888156321500,5.779321533203125,0.0035284506157040596,0.0016323784366250038,-0.017611365765333176
1761316888166304500,5.789304443359375,0.004402450285851955,0.002740382682532072,-0.022509878501296043
1761316888176287700,5.799287841796875,0.0017986776074394584,-0.000991771463304758,-0.027231397107243538
1761316888186270700,5.809270751953125,0.0013953202869743109,-0.004837362561374903,-0.02550235018134117
1761316888196253400,5.81925341796875,0.004236913286149502,-0.010693653486669064,-0.02146473154425621
1761316888206235600,5.829235595703125,0.0021095010451972485,-0.010745367035269737,-0.015390497632324696
1761316888216218600,5.839218505859375,0.0025071105919778347,-0.007286187261343002,-0.012639719061553478
1761316888226201600,5.84920166015625,0.0007569361478090286,-0.0026078338269144297,-0.001662879018113017
1761316888236184600,5.8591845703125,0.0002056617522612214,-0.0010666623711585999,0.0019619495142251253
1761316888246167600,5.86916748046875,0.00048413663171231747,0.0015119626186788082,0.012689512223005295
1761316888256150800,5.87915087890625,0.0015960063319653273,0.004639046266674995,0.008184775710105896
1761316888266133500,5.889133544921875,0.0009540778119117022,0.005835760850459337,0.003961286507546902
1761316888276116700,5.89911669921875,-0.002862231805920601,0.0097506083548069,-0.003312871791422367
1761316888286099200,5.90909912109375,0.0006044370820745826,0.008503414690494537,-0.013958904892206192
1761316888296082200,5.919082275390625,0.002836432307958603,0.00894230417907238,-0.021779276430606842
1761316888306065200,5.929065185546875,0.003226751694455743,0.0019296598620712757,-0.02870248630642891
1761316888316048100,5.939048095703125,0.001332178944721818,0.00040872860699892044,-0.021146299317479134
1761316888326031000,5.949031005859375,0.003079769667237997,0.0030272183939814568,-0.009776651859283447
1761316888336014300,5.959014404296875,0.003873657900840044,0.003948938101530075,0.005716022104024887
1761316888345997000,5.9689970703125,0.0013630233006551862,0.00215828325599432,0.016281871125102043
1761316888355980000,5.97897998046875,0.0009068237850442529,0.0005574570968747139,0.015687985345721245
1761316888365962200,5.988962158203125,0.001733783632516861,-0.007337607908993959,0.011553590185940266
1761316888375945200,5.9989453125,-0.0029235524125397205,-0.007108842488378286,0.005375322885811329
1761316888385928200,6.00892822265625,-0.0031746448948979378,-0.007846033200621605,-0.0010793597903102636
1761316888395911200,6.0189111328125,-0.002913122531026602,-0.006319509353488684,-0.008685081265866756
1761316888405894400,6.028894287109375,-0.005079647526144981,-0.007498729042708874,-0.014193317852914333
1761316888415877000,6.038877197265625,-0.006814963184297085,-0.008433764800429344,-0.013888119719922543
1761316888425860000,6.048860107421875,-0.0049593159928917885,-0.007216672413051128,-0.012133916839957237
1761316888435843300,6.05884326171875,-0.005739355925470591,-0.00591864762827754,-0.011377046816051006
1761316888445825000,6.068824951171875,-0.002798359375447035,-0.0032948595471680164,-0.003929148428142071
1761316888455808300,6.078808349609375,0.00015322200488299131,-0.0029555729124695063,-0.0016223182901740074
1761316888465791200,6.088791259765625,-0.001948365243151784,-0.0010462971404194832,0.006238492205739021
1761316888475774200,6.098774169921875,0.002254901919513941,-0.0023650946095585823,0.014600818045437336
1761316888485757200,6.108757080078125,0.0007363862823694944,-0.005073892883956432,0.01053544320166111
1761316888495740200,6.118740234375,0.0013369291555136442,-0.005988955032080412,0.002112397225573659
1761316888505723100,6.12872314453125,0.0021008350886404514,-0.01293180137872696,-0.005504920147359371
1761316888515706400,6.138706298828125,0.0038561243563890457,-0.020001161843538284,-0.01816478930413723
1761316888525688000,6.14868798828125,0.003940640017390251,-0.022931329905986786,-0.02258811704814434
1761316888535671300,6.15867138671875,0.00021327950526028872,-0.015396180562675,-0.02216866798698902
1761316888545654300,6.168654296875,-0.003455887082964182,-0.008724614046514034,-0.013957674615085125
1761316888555637200,6.17863720703125,-0.00335521949455142,0.003795172553509474,-0.004977761767804623
1761316888565620200,6.1886201171875,-0.0024866254534572363,0.018582986667752266,0.0010963124223053455
1761316888575603200,6.198603271484375,-0.002360391663387418,0.023199044167995453,0.0006462382152676582
1761316888585586400,6.20858642578125,-0.0001529734581708908,0.025157861411571503,-0.0024906734470278025
1761316888595569200,6.218569091796875,-0.00031542626675218344,0.024630025029182434,-0.010897208005189896
1761316888605551400,6.22855126953125,0.002117662690579891,0.017270179465413094,-0.01884240284562111
1761316888615534300,6.238534423828125,0.0018894298700615764,0.012831754982471466,-0.020035499706864357
1761316888625517000,6.24851708984375,0.004245906136929989,0.005071052350103855,-0.013576410710811615
1761316888635500300,6.258500244140625,0.005278946366161108,-0.004766664933413267,-0.00650518573820591
1761316888645483300,6.268483154296875,0.005432337988168001,-0.014827454462647438,-5.548354238271713e-7
1761316888655466000,6.278466064453125,0.0026671779341995716,-0.021968722343444824,0.000755516579374671
1761316888665449200,6.28844921875,-0.0013097571209073067,-0.02086544781923294,0.0019990650471299887
1761316888675431200,6.29843115234375,-0.00029269594233483076,-0.01194785162806511,0.0021119830198585987
1761316888685414100,6.3084140625,-0.003675511572510004,-0.00831800326704979,0.0021089524962008
1761316888695397000,6.318397216796875,-0.007098205853253603,-0.004431386478245258,0.0035361405462026596
1761316888705380000,6.328380126953125,-0.007239582948386669,0.002506753895431757,0.0004060077480971813
1761316888715363300,6.33836328125,-0.005424106027930975,0.002416738774627447,-0.006789586506783962
1761316888725346000,6.348345947265625,-0.003460705978795886,0.0017820210196077824,-0.011731351725757122
1761316888735329000,6.3583291015625,-0.003947798162698746,0.004200703930109739,-0.017125852406024933
1761316888745312300,6.368312255859375,-0.0003248833818361163,0.000963226892054081,-0.013133933767676353
1761316888755294200,6.378294189453125,-0.0010724327294155955,-0.0005188225768506527,-0.004864285700023174
1761316888765277200,6.388277099609375,0.00043143006041646004,-0.001299731433391571,0.0026452145539224148
1761316888775260200,6.39826025390625,0.0017028232105076313,-0.0011340826749801636,0.005470562260597944
1761316888785243400,6.408243408203125,0.0028055072762072086,-0.005113293416798115,-0.003099819179624319
1761316888795226000,6.41822607421875,0.006778144743293524,-0.0031060688197612762,-0.011247494257986546
1761316888805209000,6.428208984375,0.00738532142713666,-0.009419695474207401,-0.025127172470092773
1761316888815192300,6.4381923828125,0.004990872927010059,-0.010012514889240265,-0.026096828281879425
1761316888825175300,6.44817529296875,0.003005021484568715,-0.0025982321240007877,-0.018856657668948174
1761316888835157200,6.4581572265625,-0.0019082440994679928,0.005078861955553293,-0.004380245693027973
1761316888845140200,6.46814013671875,-0.0013977596536278725,0.002416528295725584,0.008655640296638012
1761316888855123200,6.478123291015625,-0.004896354395896196,0.0031060208566486835,0.02016848511993885
1761316888865106200,6.488106201171875,-0.0070247771218419075,-0.00042060762643814087,0.023447822779417038
1761316888875089200,6.498089111328125,-0.0005080219125375152,-0.005093656480312347,0.009203105233609676
1761316888885072100,6.508072021484375,-0.0017704037018120289,-0.005589242558926344,-0.011120828799903393
1761316888895055400,6.518055419921875,0.002918890444561839,-0.008115250617265701,-0.022282937541604042
1761316888905038000,6.5280380859375,0.008087447844445705,-0.003625541226938367,-0.03233688324689865
1761316888915020300,6.538020263671875,0.011453150771558285,-0.003971485886722803,-0.02939062938094139
1761316888925003300,6.548003173828125,0.014110520482063293,-0.006780547089874744,-0.020302757620811462
1761316888934986200,6.557986328125,0.009668635204434395,-0.00425640307366848,-0.00641969870775938
1761316888944969200,6.56796923828125,0.007957926020026207,-0.0068912198767066,0.015044829808175564
1761316888954952200,6.5779521484375,0.007874036207795143,-0.013055904768407345,0.02738485299050808
1761316888964935400,6.587935302734375,0.009196934290230274,-0.012814512476325035,0.03240462765097618
1761316888974918100,6.597918212890625,0.007417409680783749,-0.011768156662583351,0.025628212839365005
1761316888984901000,6.607901123046875,0.008566075004637241,-0.008898362517356873,0.01511647179722786
1761316888994883300,6.61788330078125,0.008916014805436134,0.000997144728899002,0.0009758849628269672
1761316889004866000,6.627865966796875,0.017326878383755684,0.012048240751028061,-0.011353650130331516
1761316889014849300,6.637849365234375,0.03265656530857086,0.036196187138557434,-0.02132718823850155
1761316889024832300,6.647832275390625,0.040004633367061615,0.0394929014146328,-0.03226471319794655
1761316889034815200,6.657815185546875,0.045534953474998474,0.05285557731986046,-0.04614856839179993
1761316889044798200,6.667798095703125,0.05041716620326042,0.06479703634977341,-0.05325283482670784
1761316889054781200,6.67778125,0.05493868142366409,0.09134528785943985,-0.036851491779088974
1761316889064764200,6.68776416015625,0.058808594942092896,0.10905978083610535,0.00431109918281436
1761316889074746000,6.69774609375,0.07576707005500793,0.09089462459087372,0.049727052450180054
1761316889084729000,6.70772900390625,0.07677898555994034,0.08107666671276093,0.08787759393453598
1761316889094712300,6.71771240234375,0.0594031922519207,0.07865265756845474,0.12167736887931824
1761316889104695000,6.727695068359375,0.044711410999298096,0.08461099863052368,0.14595012366771698
1761316889114678300,6.73767822265625,0.039711061865091324,0.10355566442012787,0.1671166568994522
1761316889124661200,6.7476611328125,0.03325085714459419,0.08999868482351303,0.1728881597518921
1761316889134644200,6.757644287109375,0.03545062616467476,0.06292259693145752,0.15878087282180786
1761316889144627200,6.767627197265625,0.03237057104706764,0.024991175159811974,0.1162138506770134
1761316889154609200,6.777609130859375,0.03198441118001938,-0.007594729773700237,0.06050478294491768
1761316889164592400,6.78759228515625,0.026711026206612587,-0.03129168227314949,0.0012039466528221965
1761316889174575000,6.7975751953125,0.01861208863556385,-0.0386156402528286,-0.041540320962667465
1761316889184558000,6.80755810546875,0.017687251791357994,-0.030774181708693504,-0.055680468678474426
1761316889194541300,6.817541259765625,0.017868347465991974,-0.022887496277689934,-0.04161711782217026
1761316889204524300,6.827524169921875,0.018784474581480026,-0.006399333942681551,-0.014029432088136673
1761316889214507000,6.837507080078125,0.0204249806702137,0.00774764409288764,0.01829495094716549
1761316889224490200,6.847490234375,0.02074708789587021,0.021278016269207,0.03709746524691582
1761316889234472200,6.85747216796875,0.02039315365254879,0.031477656215429306,0.03965036943554878
1761316889244455200,6.867455078125,0.02115733176469803,0.03762734308838844,0.028897589072585106
1761316889254438100,6.877438232421875,0.01629173755645752,0.031801942735910416,0.011778255924582481
1761316889264421000,6.887421142578125,0.014982929453253746,0.018569843843579292,-0.002076104050502181
1761316889274404400,6.897404296875,0.011054767295718193,-0.00005710357800126076,-0.0020055302884429693
1761316889284386600,6.907386474609375,0.01485900767147541,-0.010908099822700024,-0.004728121683001518
1761316889294369500,6.91736962890625,0.013400659896433353,-0.016287153586745262,0.002764947945252061
1761316889304352500,6.9273525390625,0.012000976130366325,-0.009580901823937893,0.0048369150608778
1761316889314334700,6.937334716796875,0.01248114462941885,-0.000589271541684866,0.012770205736160278
1761316889324317400,6.9473173828125,0.009957210160791874,0.00043154601007699966,0.022022472694516182
1761316889334300400,6.957300537109375,0.005641824100166559,-0.005536331795156002,0.027773035690188408
1761316889344283600,6.96728369140625,0.006530136801302433,-0.009585581719875336,0.02863377332687378
1761316889354266600,6.9772666015625,0.004346078261733055,-0.015110310167074203,0.036543361842632294
1761316889364249300,6.987249267578125,0.004502411931753159,-0.01731231063604355,0.03939894586801529
1761316889374232600,6.997232666015625,0.0016749338246881962,-0.015185777097940445,0.04060695320367813
1761316889384214500,7.007214599609375,0.0037557301111519337,-0.022869490087032318,0.03918173164129257
1761316889394197500,7.017197509765625,0.004955750424414873,-0.03232903778553009,0.032279618084430695
1761316889404180500,7.027180419921875,0.0030692785512655973,-0.014570532366633415,0.16618774831295013
1761316889414163700,7.037163818359375,-0.003551073372364044,0.017441729083657265,0.31508108973503113
1761316889424146700,7.047146728515625,0.01465260423719883,0.021159127354621887,0.3808266222476959
1761316889434129400,7.05712939453125,0.02777373231947422,0.009215381927788258,0.37866973876953125
1761316889444112600,7.067112548828125,0.025083303451538086,-0.02479037269949913,0.3190820515155792
1761316889454095600,7.077095703125,0.0295608751475811,-0.039432164281606674,0.2267097681760788
1761316889464078600,7.08707861328125,0.031220970675349236,-0.04461565613746643,0.09959923475980759
1761316889474060500,7.097060546875,0.01873314194381237,-0.04077404364943504,-0.04028117656707764
1761316889484043500,7.10704345703125,0.0034480663016438484,-0.044243793934583664,-0.19417119026184082
1761316889494026800,7.11702685546875,-0.015452654100954533,-0.05885309725999832,-0.33675098419189453
1761316889504009500,7.127009521484375,0.0025414577685296535,-0.06488200277090073,-0.4365983307361603
1761316889513992400,7.136992431640625,-0.004295941907912493,-0.05239790305495262,-0.4194355905056
1761316889523975700,7.1469755859375,-0.006201134063303471,-0.016331814229488373,-0.3169550597667694
