time,seconds_elapsed,z,y,x
1761317226610509000,0.075509033203125,0.28697410225868225,0.316986083984375,-0.18089918792247772
1761317226620491500,0.085491455078125,0.28012633323669434,0.297678142786026,-0.16775168478488922
1761317226630474200,0.09547412109375,0.27002188563346863,0.24837982654571533,-0.16688497364521027
1761317226640457500,0.10545751953125,0.25355902314186096,0.1884765326976776,-0.1758268028497696
1761317226650440400,0.1154404296875,0.24477438628673553,0.14133073389530182,-0.1819680631160736
1761317226660423200,0.125423095703125,0.23360587656497955,0.09638004004955292,-0.18444399535655975
1761317226670406400,0.135406494140625,0.2178923487663269,0.048750609159469604,-0.1932360678911209
1761317226680389400,0.145389404296875,0.2097630500793457,0.02020152285695076,-0.20845523476600647
1761317226690372400,0.155372314453125,0.20987549424171448,0.04493539407849312,-0.210960254073143
1761317226700355300,0.165355224609375,0.2227364331483841,0.08979341387748718,-0.20477744936943054
1761317226710338300,0.17533837890625,0.22776643931865692,0.11620253324508667,-0.19638222455978394
1761317226720321500,0.185321533203125,0.23163601756095886,0.13904766738414764,-0.18404512107372284
1761317226730304500,0.195304443359375,0.2336668223142624,0.15505994856357574,-0.1728115826845169
1761317226740287200,0.205287353515625,0.220486581325531,0.1502406895160675,-0.16733984649181366
1761317226750270500,0.2152705078125,0.2083987295627594,0.13753092288970947,-0.15107259154319763
1761317226760253400,0.22525341796875,0.19521582126617432,0.11167667806148529,-0.13177718222141266
1761317226770236400,0.235236328125,0.18568605184555054,0.07491321116685867,-0.11585043370723724
1761317226780219400,0.245219482421875,0.17040030658245087,0.05013249069452286,-0.10156763345003128
1761317226790201300,0.255201416015625,0.162314310669899,0.04040985181927681,-0.08920518308877945
1761317226800184600,0.2651845703125,0.1676880270242691,0.058855172246694565,-0.06289554387331009
1761317226810167300,0.275167236328125,0.17683526873588562,0.12199114263057709,-0.012109343893826008
1761317226820150300,0.285150390625,0.18605753779411316,0.24519002437591553,0.052201732993125916
1761317226830133500,0.295133544921875,0.19116519391536713,0.4015241265296936,0.10486561059951782
1761317226840116500,0.305116455078125,0.19304963946342468,0.4832083284854889,0.12467607110738754
1761317226850099200,0.31509912109375,0.17956198751926422,0.4871947169303894,0.12020623683929443
1761317226860082400,0.32508251953125,0.14164602756500244,0.44788244366645813,0.10848858952522278
1761317226870065400,0.3350654296875,0.10180982947349548,0.38127896189689636,0.09889861196279526
1761317226880048600,0.345048583984375,0.05889405310153961,0.2997835576534271,0.08153454214334488
1761317226890031400,0.35503125,0.010421843267977238,0.23509737849235535,0.06961099058389664
1761317226900014300,0.365014404296875,-0.024213097989559174,0.18849605321884155,0.055220331996679306
1761317226909997600,0.37499755859375,-0.040241971611976624,0.1523122638463974,0.05980955436825752
1761317226919980300,0.384980224609375,-0.04973294585943222,0.12821784615516663,0.10544174909591675
1761317226929963300,0.39496337890625,-0.048542775213718414,0.1421717256307602,0.18813830614089966
1761317226939946500,0.404946533203125,-0.0351654477417469,0.18985456228256226,0.30419275164604187
1761317226949929500,0.414929443359375,-0.0063432082533836365,0.2732603847980499,0.4442494809627533
1761317226959912200,0.424912109375,0.029329568147659302,0.35105422139167786,0.5754578113555908
1761317226969895400,0.4348955078125,0.06204767897725105,0.3810451328754425,0.6946384906768799
1761317226979878400,0.44487841796875,0.09479895979166031,0.373464971780777,0.7957693338394165
1761317226989861400,0.454861328125,0.12250888347625732,0.3376459777355194,0.8786408305168152
1761317226999844400,0.46484423828125,0.14623472094535828,0.2473437637090683,0.9291801452636719
1761317227009827300,0.474827392578125,0.1651015430688858,0.15685850381851196,0.9632043242454529
1761317227019809500,0.4848095703125,0.19601018726825714,0.11002734303474426,1.009789228439331
1761317227029792300,0.494792236328125,0.22455400228500366,0.09113891422748566,1.07268226146698
1761317227039775500,0.504775390625,0.2449258416891098,0.053774766623973846,1.1291120052337646
1761317227049758500,0.514758544921875,0.2442050725221634,-0.004428545478731394,1.176387071609497
1761317227059741400,0.524741455078125,0.24106520414352417,-0.10837331414222717,1.1912858486175537
1761317227069724400,0.534724365234375,0.24212466180324554,-0.24272283911705017,1.1711055040359497
1761317227079707400,0.544707275390625,0.24304477870464325,-0.3799096941947937,1.1233150959014893
1761317227089690400,0.5546904296875,0.2362779825925827,-0.5025051832199097,1.0539917945861816
1761317227099673600,0.564673583984375,0.22480376064777374,-0.5799129009246826,0.9740409851074219
1761317227109656300,0.57465625,0.2070797085762024,-0.5959330201148987,0.9035378098487854
1761317227119639300,0.584639404296875,0.18419517576694489,-0.5570889711380005,0.8382903933525085
1761317227129622500,0.59462255859375,0.15918542444705963,-0.47983330488204956,0.7698758840560913
1761317227139605200,0.604605224609375,0.14459502696990967,-0.3808492124080658,0.6934759616851807
1761317227149588200,0.614588134765625,0.14582476019859314,-0.2703174650669098,0.6109123229980469
1761317227159571500,0.624571533203125,0.17627321183681488,-0.16463923454284668,0.5298089385032654
1761317227169554400,0.634554443359375,0.21304179728031158,-0.0664275661110878,0.4516695737838745
1761317227179537400,0.644537353515625,0.2515082061290741,-0.0001912890002131462,0.380388468503952
1761317227189520400,0.654520263671875,0.28972285985946655,0.03312395513057709,0.3185867369174957
1761317227199503400,0.66450341796875,0.32582148909568787,0.06488800793886185,0.2737976908683777
1761317227209486600,0.674486572265625,0.3542589843273163,0.10191724449396133,0.23990830779075623
1761317227219469300,0.68446923828125,0.38263657689094543,0.11138291656970978,0.21336165070533752
1761317227229451500,0.694451416015625,0.39958441257476807,0.09042970836162567,0.19807901978492737
1761317227239434500,0.7044345703125,0.41761481761932373,0.0579143762588501,0.1959005445241928
1761317227249417200,0.714417236328125,0.4425535798072815,0.016486862674355507,0.2068312019109726
1761317227259400400,0.724400390625,0.4575490355491638,-0.038282640278339386,0.22293134033679962
1761317227269383400,0.734383544921875,0.4565475285053253,-0.08159605413675308,0.23919200897216797
1761317227279366400,0.744366455078125,0.45220550894737244,-0.11403042823076248,0.2466115802526474
1761317227289349400,0.754349365234375,0.43111467361450195,-0.11433281749486923,0.23520392179489136
1761317227299332400,0.764332275390625,0.4056394100189209,-0.10536835342645645,0.21282164752483368
1761317227309315300,0.7743154296875,0.37662869691848755,-0.12574124336242676,0.15660503506660461
1761317227319298600,0.784298583984375,0.34507104754447937,-0.15409405529499054,0.08778150379657745
1761317227329281300,0.79428125,0.3274974226951599,-0.15987850725650787,0.03299538418650627
1761317227339264500,0.804264404296875,0.3205138146877289,-0.16482587158679962,-0.0034513066057115793
1761317227349247500,0.81424755859375,0.304778128862381,-0.1514863222837448,-0.034035611897706985
1761317227359230200,0.824230224609375,0.27844318747520447,-0.11261215806007385,-0.045588139444589615
1761317227369213400,0.83421337890625,0.24644184112548828,-0.05341164022684097,-0.03358490765094757
1761317227379196400,0.844196533203125,0.2232142686843872,0.008202451281249523,-0.015152635984122753
1761317227389179400,0.854179443359375,0.2173798829317093,0.05072171986103058,0.01063877996057272
1761317227399162400,0.864162353515625,0.23091939091682434,0.06334882974624634,0.030927008017897606
1761317227409145300,0.874145263671875,0.26528146862983704,0.04326726496219635,0.031518176198005676
1761317227419128300,0.88412841796875,0.3026599884033203,0.0022793500684201717,0.01830037496984005
1761317227429111600,0.894111572265625,0.3215450644493103,-0.044897980988025665,0.0072752730920910835
1761317227439094300,0.90409423828125,0.3287353217601776,-0.08766568452119827,-0.00038158148527145386
1761317227449077200,0.9140771484375,0.33169296383857727,-0.13698336482048035,-0.01600518450140953
1761317227459059500,0.9240595703125,0.3275837302207947,-0.1594575196504593,-0.028191808611154556
1761317227469042200,0.934042236328125,0.3284401595592499,-0.14211666584014893,-0.027965303510427475
1761317227479025400,0.944025390625,0.31822746992111206,-0.11020933836698532,-0.03034377098083496
1761317227489008400,0.95400830078125,0.29677411913871765,-0.09611853957176208,-0.046108707785606384
1761317227498991600,0.96399169921875,0.2668644189834595,-0.11601314693689346,-0.07325750589370728
1761317227508974300,0.973974365234375,0.23518384993076324,-0.16476640105247498,-0.10398503392934799
1761317227518957300,0.983957275390625,0.1917618066072464,-0.232459157705307,-0.14004157483577728
1761317227528940500,0.9939404296875,0.15523718297481537,-0.30820879340171814,-0.16916587948799133
1761317227538923500,1.003923583984375,0.1283203512430191,-0.3484917879104614,-0.1761191189289093
1761317227548906200,1.01390625,0.12340697646141052,-0.2929280996322632,-0.1692616045475006
1761317227558889500,1.023889404296875,0.1425631046295166,-0.22962820529937744,-0.18144476413726807
1761317227568872400,1.03387255859375,0.15138788521289825,-0.21014833450317383,-0.22884874045848846
1761317227578855400,1.04385546875,0.12397277355194092,-0.22146038711071014,-0.34107303619384766
1761317227588838400,1.05383837890625,0.06593134254217148,-0.26590073108673096,-0.505266010761261
1761317227598821400,1.0638212890625,-0.011967454105615616,-0.3355937898159027,-0.6907663345336914
1761317227608804400,1.073804443359375,-0.10231097787618637,-0.3790900409221649,-0.8659042716026306
1761317227618787800,1.083787841796875,-0.1722107082605362,-0.34658777713775635,-0.9714536070823669
1761317227628770600,1.0937705078125,-0.2156795859336853,-0.22220313549041748,-0.9758222699165344
1761317227638753500,1.10375341796875,-0.23362743854522705,-0.032618824392557144,-0.8779500126838684
1761317227648736800,1.11373681640625,-0.22727084159851074,0.18016499280929565,-0.7121687531471252
1761317227658719500,1.123719482421875,-0.19489213824272156,0.36709147691726685,-0.5309500098228455
1761317227668702700,1.13370263671875,-0.14654922485351562,0.5105968713760376,-0.3670523762702942
1761317227678684700,1.1436845703125,-0.10221558064222336,0.5991906523704529,-0.23549222946166992
1761317227688667600,1.153667724609375,-0.04820217564702034,0.6337144374847412,-0.13036158680915833
1761317227698650600,1.163650634765625,-0.00033185863867402077,0.6256275177001953,-0.03940105065703392
1761317227708633600,1.173633544921875,0.030695468187332153,0.5922919511795044,0.06123071908950806
1761317227718616800,1.183616943359375,0.06172235682606697,0.5438548922538757,0.16454938054084778
1761317227728599600,1.193599609375,0.08224490284919739,0.4225117564201355,0.2559501528739929
1761317227738582500,1.20358251953125,0.08815445005893707,0.24143704771995544,0.3343200385570526
1761317227748565800,1.213565673828125,0.07732423394918442,0.0385497584939003,0.40445417165756226
1761317227758548700,1.223548828125,0.05175842344760895,-0.18918940424919128,0.4609488546848297
1761317227768531500,1.233531494140625,0.008305137977004051,-0.3930915296077728,0.5111501812934875
1761317227778514700,1.2435146484375,-0.048118457198143005,-0.5246961712837219,0.5622780919075012
1761317227788497700,1.25349755859375,-0.10751809179782867,-0.5725577473640442,0.6145002245903015
1761317227798480600,1.263480712890625,-0.18981775641441345,-0.5498745441436768,0.6414503455162048
1761317227808463600,1.273463623046875,-0.29131272435188293,-0.47724610567092896,0.6251981258392334
1761317227818446600,1.283446533203125,-0.40806758403778076,-0.3663899004459381,0.5542507171630859
1761317227828429800,1.293429931640625,-0.5151546001434326,-0.24429158866405487,0.43277454376220703
1761317227838412800,1.303412841796875,-0.6024240255355835,-0.1330297738313675,0.27337875962257385
1761317227848395500,1.3133955078125,-0.6584837436676025,-0.04691092669963837,0.08825346827507019
1761317227858378800,1.323378662109375,-0.6818414926528931,0.02478882670402527,-0.08739931881427765
1761317227868361700,1.33336181640625,-0.6678234934806824,0.0788874700665474,-0.21963663399219513
1761317227878344400,1.343344482421875,-0.6279397010803223,0.12131508439779282,-0.2901097536087036
1761317227888327700,1.35332763671875,-0.5633049607276917,0.15508748590946198,-0.2892192304134369
1761317227898310700,1.363310546875,-0.49026724696159363,0.17937630414962769,-0.22240237891674042
1761317227908292600,1.373292724609375,-0.4136834442615509,0.1963551640510559,-0.12162518501281738
1761317227918275600,1.383275634765625,-0.3537079989910126,0.2036716639995575,-0.009411027655005455
1761317227928258600,1.393258544921875,-0.3118681311607361,0.23337124288082123,0.10189712047576904
1761317227938241800,1.40324169921875,-0.27625447511672974,0.2602795660495758,0.18996119499206543
1761317227948224500,1.413224609375,-0.2443726658821106,0.26372990012168884,0.2272585928440094
1761317227958207500,1.42320751953125,-0.23170508444309235,0.26823917031288147,0.2303534597158432
1761317227968190700,1.433190673828125,-0.22345075011253357,0.2619296610355377,0.1919960081577301
1761317227978173700,1.443173583984375,-0.21335551142692566,0.2064107358455658,0.1134367510676384
1761317227988156700,1.45315673828125,-0.19455111026763916,0.11428868770599365,0.015394769608974457
1761317227998139600,1.4631396484375,-0.1708551049232483,0.009956961497664452,-0.08073336631059647
1761317228008122600,1.47312255859375,-0.14663384854793549,-0.07441848516464233,-0.1355048269033432
1761317228018105900,1.48310595703125,-0.12930704653263092,-0.137263223528862,-0.1624554842710495
1761317228028088600,1.493088623046875,-0.12579843401908875,-0.1677180528640747,-0.17007437348365784
1761317228038071600,1.503071533203125,-0.12693160772323608,-0.1647036224603653,-0.160739466547966
1761317228048054800,1.5130546875,-0.1288871020078659,-0.13039183616638184,-0.13967075943946838
1761317228058037800,1.523037841796875,-0.1433776170015335,-0.0958477184176445,-0.12302254140377045
1761317228068020500,1.5330205078125,-0.1643129140138626,-0.05032402276992798,-0.11182298511266708
1761317228078003700,1.543003662109375,-0.18885394930839539,0.010241582989692688,-0.09892183542251587
1761317228087986700,1.552986572265625,-0.2005147635936737,0.07359056919813156,-0.08652999997138977
1761317228097969400,1.562969482421875,-0.2024064064025879,0.12011519074440002,-0.07812639325857162
1761317228107952600,1.57295263671875,-0.2054390013217926,0.15212301909923553,-0.0836048498749733
1761317228117935600,1.582935546875,-0.21466632187366486,0.18683387339115143,-0.09704049676656723
1761317228127917800,1.592917724609375,-0.22702080011367798,0.21742625534534454,-0.12305042892694473
1761317228137900500,1.602900634765625,-0.22790470719337463,0.25757285952568054,-0.1594763547182083
1761317228147883800,1.6128837890625,-0.23290285468101501,0.2980731725692749,-0.2047695815563202
1761317228157866800,1.62286669921875,-0.23432952165603638,0.3297216296195984,-0.24521580338478088
1761317228167849500,1.632849365234375,-0.2531690299510956,0.2785041928291321,-0.2786579728126526
1761317228177832700,1.642832763671875,-0.2970680296421051,0.15221016108989716,-0.2972652018070221
1761317228187815700,1.652815673828125,-0.35329535603523254,-0.0055849021300673485,-0.292375773191452
1761317228197798700,1.662798583984375,-0.4157209098339081,-0.1659916192293167,-0.26845604181289673
1761317228207781600,1.67278173828125,-0.47545650601387024,-0.3021111488342285,-0.23641301691532135
1761317228217764600,1.6827646484375,-0.5337043404579163,-0.3941079080104828,-0.20396746695041656
1761317228227747600,1.69274755859375,-0.5682331919670105,-0.36624106764793396,-0.16821864247322083
1761317228237730800,1.702730712890625,-0.5507423281669617,-0.20106515288352966,-0.12773725390434265
1761317228247713500,1.712713623046875,-0.47680965065956116,-0.007347784470766783,-0.11108266562223434
1761317228257696500,1.722696533203125,-0.38131216168403625,0.12034572660923004,-0.12747813761234283
1761317228267679700,1.7326796875,-0.28728073835372925,0.15137502551078796,-0.15586823225021362
1761317228277662700,1.742662841796875,-0.2087198942899704,0.0976494774222374,-0.18633000552654266
1761317228287645700,1.752645751953125,-0.1587017923593521,-0.010300204157829285,-0.2031516432762146
1761317228297628700,1.762628662109375,-0.1447409689426422,-0.10647734254598618,-0.184330552816391
1761317228307611600,1.772611572265625,-0.1567496508359909,-0.15242066979408264,-0.12428568303585052
1761317228317595000,1.782594970703125,-0.1650528460741043,-0.1307726353406906,-0.020676463842391968
1761317228327577600,1.79257763671875,-0.1507895439863205,-0.019796237349510193,0.14211280643939972
1761317228337560600,1.802560546875,-0.10523057729005814,0.14691098034381866,0.3456678092479706
1761317228347543800,1.812543701171875,-0.026263181120157242,0.3294830918312073,0.5493801236152649
1761317228357525500,1.822525390625,0.07300934195518494,0.5014253258705139,0.7302098274230957
1761317228367508700,1.8325087890625,0.1711149513721466,0.647753119468689,0.855003833770752
1761317228377491700,1.84249169921875,0.26475781202316284,0.7870697379112244,0.9256340861320496
1761317228387474400,1.852474365234375,0.3450295627117157,0.9317226409912109,0.957929790019989
1761317228397457700,1.862457763671875,0.42073071002960205,1.0343347787857056,0.9378870725631714
1761317228407440600,1.872440673828125,0.4813517928123474,1.0643686056137085,0.8689577579498291
1761317228417423600,1.882423583984375,0.5373146533966064,0.991983950138092,0.7569169998168945
1761317228427406600,1.892406494140625,0.5663918256759644,0.8242220282554626,0.6264880299568176
1761317228437389600,1.9023896484375,0.5868430137634277,0.5887506604194641,0.49621739983558655
1761317228447372800,1.912372802734375,0.6115033626556396,0.32548025250434875,0.3911747932434082
1761317228457355800,1.922355712890625,0.6299098134040833,0.07478836923837662,0.30849534273147583
1761317228467338500,1.93233837890625,0.6559669375419617,-0.12062954902648926,0.24814198911190033
1761317228477321700,1.94232177734375,0.6679533123970032,-0.24694034457206726,0.19696375727653503
1761317228487304700,1.9523046875,0.6791648864746094,-0.3377419710159302,0.15779803693294525
1761317228497287700,1.96228759765625,0.6788679361343384,-0.41799288988113403,0.11525829881429672
1761317228507270700,1.972270751953125,0.6647083163261414,-0.5063010454177856,0.06399154663085938
1761317228517253600,1.982253662109375,0.6290640234947205,-0.5781350135803223,0.02339751645922661
1761317228527236600,1.992236572265625,0.5916337966918945,-0.6146012544631958,-0.007180415093898773
1761317228537219800,2.0022197265625,0.5551666021347046,-0.5988247394561768,-0.010147442109882832
1761317228547202600,2.01220263671875,0.5361180901527405,-0.5149970650672913,0.013120196759700775
1761317228557185500,2.022185546875,0.5443698763847351,-0.3610226511955261,0.06682230532169342
1761317228567168800,2.032168701171875,0.5878817439079285,-0.14368407428264618,0.14825031161308289
1761317228577151500,2.0421513671875,0.6621386408805847,0.1041015014052391,0.25184115767478943
1761317228587133700,2.0521337890625,0.7501184344291687,0.3314957320690155,0.34876611828804016
1761317228597116700,2.06211669921875,0.8219934105873108,0.5167396068572998,0.44592222571372986
1761317228607099600,2.072099609375,0.8846057057380676,0.6300471425056458,0.5139262676239014
1761317228617082600,2.08208251953125,0.922394871711731,0.6786945462226868,0.5380614399909973
1761317228627065900,2.09206591796875,0.942633867263794,0.6746224164962769,0.5337010025978088
1761317228637048800,2.102048828125,0.9340806007385254,0.6345514059066772,0.4948105812072754
1761317228647032000,2.112031982421875,0.9019635319709778,0.5781410336494446,0.42866051197052
1761317228657015000,2.12201513671875,0.8595426082611084,0.4853769838809967,0.3552326560020447
1761317228666998000,2.131998046875,0.8054153323173523,0.38850387930870056,0.2877865135669708
1761317228676981000,2.14198095703125,0.7307312488555908,0.297095388174057,0.22131720185279846
1761317228686964000,2.1519638671875,0.6707695126533508,0.21821077167987823,0.1607770472764969
1761317228696947200,2.161947265625,0.6249743103981018,0.14937445521354675,0.09402891248464584
1761317228706930000,2.171929931640625,0.5908161401748657,0.09252549707889557,0.022639766335487366
1761317228716913000,2.181912841796875,0.575564980506897,0.06820017844438553,-0.043731797486543655
1761317228726896000,2.191896240234375,0.5636379718780518,0.0767078548669815,-0.1062217578291893
1761317228736878800,2.20187890625,0.5483618378639221,0.08465419709682465,-0.16214734315872192
1761317228746861800,2.21186181640625,0.5350717306137085,0.07769231498241425,-0.21006274223327637
1761317228756845000,2.221844970703125,0.5137193202972412,0.05998548865318298,-0.2426164150238037
1761317228766828000,2.231828125,0.49089130759239197,0.040832340717315674,-0.25522565841674805
1761317228776811000,2.24181103515625,0.46217843890190125,0.024116475135087967,-0.24801595509052277
1761317228786794000,2.2517939453125,0.4245888292789459,0.007358684670180082,-0.2395506650209427
1761317228796777000,2.26177685546875,0.3756455183029175,-0.03859362751245499,-0.2528025507926941
1761317228806760200,2.27176025390625,0.31620100140571594,-0.09514334052801132,-0.274139940738678
1761317228816743000,2.281742919921875,0.2590556740760803,-0.15847331285476685,-0.29809027910232544
1761317228826725000,2.29172509765625,0.2027352899312973,-0.22153982520103455,-0.331197589635849
1761317228836708000,2.3017080078125,0.14535614848136902,-0.29868146777153015,-0.3703537881374359
1761317228846690800,2.31169091796875,0.07125861197710037,-0.39220282435417175,-0.4083186686038971
1761317228856674000,2.321674072265625,-0.012881303206086159,-0.47615179419517517,-0.4481571614742279
1761317228866657000,2.331656982421875,-0.10463540256023407,-0.5210078954696655,-0.4763244092464447
1761317228876640000,2.341639892578125,-0.17433564364910126,-0.4536818563938141,-0.4788227081298828
1761317228886623000,2.351623046875,-0.2091074436903,-0.2390684187412262,-0.4811626672744751
1761317228896606000,2.36160595703125,-0.21911026537418365,-0.0021488149650394917,-0.5242238640785217
1761317228906589000,2.3715888671875,-0.24927200376987457,0.18502216041088104,-0.618463397026062
1761317228916572200,2.381572265625,-0.3104464113712311,0.2826288640499115,-0.7648389935493469
1761317228926555000,2.391554931640625,-0.37709546089172363,0.2982991337776184,-0.91217440366745
1761317228936537900,2.401537841796875,-0.4319232702255249,0.27676457166671753,-1.0157673358917236
1761317228946521000,2.41152099609375,-0.4720872938632965,0.241834357380867,-1.0538266897201538
1761317228956503800,2.42150390625,-0.5015008449554443,0.20834937691688538,-1.030073881149292
1761317228966487000,2.431487060546875,-0.5125617980957031,0.1813209354877472,-0.9623830914497375
1761317228976470000,2.441469970703125,-0.5075816512107849,0.19114533066749573,-0.8811678886413574
1761317228986453000,2.451452880859375,-0.4946047067642212,0.2107686698436737,-0.8082839250564575
1761317228996436000,2.46143603515625,-0.466038316488266,0.24798502027988434,-0.7384321093559265
1761317229006419000,2.4714189453125,-0.4181428551673889,0.29083794355392456,-0.6588568687438965
1761317229016402000,2.48140185546875,-0.3523600995540619,0.33341309428215027,-0.5684784650802612
1761317229026385200,2.49138525390625,-0.27252593636512756,0.3955807387828827,-0.451446533203125
1761317229036368000,2.501367919921875,-0.18279577791690826,0.49143803119659424,-0.2876860797405243
1761317229046350800,2.511350830078125,-0.08343621343374252,0.5915476679801941,-0.10101249814033508
1761317229056334000,2.521333984375,-0.006982983089983463,0.6672304272651672,0.08181244134902954
1761317229066315800,2.531315673828125,0.05052415654063225,0.6885642409324646,0.24274003505706787
1761317229076299000,2.541299072265625,0.09727834165096283,0.6489332318305969,0.3739404082298279
1761317229086282000,2.551281982421875,0.133396178483963,0.5458501577377319,0.47636228799819946
1761317229096265000,2.561264892578125,0.1582016497850418,0.3705283999443054,0.5574784278869629
1761317229106248000,2.571248046875,0.17602987587451935,0.15904444456100464,0.639398455619812
1761317229116231000,2.58123095703125,0.17260505259037018,-0.043945152312517166,0.7349017858505249
1761317229126214100,2.591214111328125,0.15632730722427368,-0.20624421536922455,0.8326141834259033
1761317229136197000,2.601197021484375,0.12110593169927597,-0.3212464153766632,0.9048572182655334
1761317229146179800,2.611179931640625,0.04956618323922157,-0.4136997163295746,0.9368541240692139
1761317229156163000,2.6211630859375,-0.050901301205158234,-0.46832114458084106,0.9114534258842468
1761317229166146000,2.63114599609375,-0.17510059475898743,-0.4910660982131958,0.8113847374916077
1761317229176128800,2.641128662109375,-0.2958834767341614,-0.49606484174728394,0.6241352558135986
1761317229186112000,2.651112060546875,-0.4009452760219574,-0.47833287715911865,0.3848439157009125
1761317229196095000,2.661094970703125,-0.47260239720344543,-0.4220711886882782,0.12675325572490692
1761317229206078000,2.671077880859375,-0.5284555554389954,-0.35089391469955444,-0.10871599614620209
1761317229216061000,2.68106103515625,-0.5639477968215942,-0.26903048157691956,-0.29922041296958923
1761317229226044000,2.6910439453125,-0.5892770290374756,-0.1665901392698288,-0.44086161255836487
1761317229236027000,2.70102685546875,-0.5975672006607056,-0.059405617415905,-0.52517169713974
1761317229246010000,2.711010009765625,-0.5943213105201721,0.056255366653203964,-0.5545494556427002
1761317229255992800,2.720992919921875,-0.5782393217086792,0.1839398294687271,-0.536978006362915
1761317229265976000,2.73097607421875,-0.5510740280151367,0.30228686332702637,-0.46951594948768616
1761317229275959000,2.740958984375,-0.5172766447067261,0.38721001148223877,-0.3738381564617157
1761317229285942000,2.75094189453125,-0.4772419333457947,0.44394105672836304,-0.2802155315876007
1761317229295925000,2.760925048828125,-0.4328174889087677,0.4664546251296997,-0.19678162038326263
1761317229305908000,2.770907958984375,-0.3878129720687866,0.4393340051174164,-0.13678264617919922
1761317229315891000,2.780890869140625,-0.3624018728733063,0.36493247747421265,-0.10786791145801544
1761317229325873000,2.790872802734375,-0.35569092631340027,0.2611808180809021,-0.12012454122304916
1761317229335855900,2.80085595703125,-0.363485187292099,0.14778581261634827,-0.15648362040519714
1761317229345839000,2.810839111328125,-0.3721863329410553,0.033089011907577515,-0.21043361723423004
1761317229355822000,2.820822021484375,-0.38128581643104553,-0.05601849406957626,-0.25649723410606384
1761317229365804800,2.8308046875,-0.3894670605659485,-0.10536900162696838,-0.2884511947631836
1761317229375788000,2.8407880859375,-0.38834747672080994,-0.13506591320037842,-0.3002780079841614
1761317229385771000,2.85077099609375,-0.38760536909103394,-0.14741027355194092,-0.3182397782802582
1761317229395754000,2.86075390625,-0.3947133421897888,-0.14583368599414825,-0.3399147093296051
1761317229405737000,2.870737060546875,-0.415012001991272,-0.11664440482854843,-0.35647907853126526
1761317229415720000,2.880719970703125,-0.43713247776031494,-0.07805493474006653,-0.36957862973213196
1761317229425703200,2.890703125,-0.44511693716049194,-0.018517058342695236,-0.36581042408943176
1761317229435686000,2.900685791015625,-0.4323044419288635,0.05819316580891609,-0.353092759847641
1761317229445668900,2.9106689453125,-0.3915403485298157,0.14127545058727264,-0.33118516206741333
1761317229455652000,2.920652099609375,-0.34329161047935486,0.22287391126155853,-0.3057943284511566
1761317229465635000,2.930635009765625,-0.2808675765991211,0.25491708517074585,-0.28779441118240356
1761317229475617800,2.94061767578125,-0.22035974264144897,0.22468647360801697,-0.28049522638320923
1761317229485601000,2.95060107421875,-0.17071233689785004,0.16995124518871307,-0.2690039873123169
1761317229495584000,2.960583984375,-0.1332688182592392,0.08152498304843903,-0.26392561197280884
1761317229505567000,2.97056689453125,-0.09938708692789078,-0.03547251224517822,-0.26449739933013916
1761317229515550000,2.980550048828125,-0.0766516774892807,-0.16355110704898834,-0.27177849411964417
1761317229525533000,2.990532958984375,-0.07013002783060074,-0.29373523592948914,-0.2815418541431427
1761317229535516000,3.000515869140625,-0.09377943724393845,-0.4160126745700836,-0.29494449496269226
1761317229545499100,3.0104990234375,-0.13379399478435516,-0.5039231777191162,-0.2883959412574768
1761317229555481900,3.02048193359375,-0.17917531728744507,-0.5217384099960327,-0.24819736182689667
1761317229565465000,3.030465087890625,-0.20594792068004608,-0.36300504207611084,-0.16778028011322021
1761317229575448000,3.040447998046875,-0.20656923949718475,-0.10746755450963974,-0.08151090145111084
1761317229585430000,3.050429931640625,-0.189312145113945,0.09697654843330383,-0.037933431565761566
1761317229595413000,3.0604130859375,-0.17322371900081635,0.20353947579860687,-0.02254595421254635
1761317229605396000,3.07039599609375,-0.14844265580177307,0.18285617232322693,-0.048557598143815994
1761317229615379200,3.080379150390625,-0.1297358125448227,0.025715820491313934,-0.0995161160826683
1761317229625362000,3.09036181640625,-0.14139460027217865,-0.15781567990779877,-0.14169810712337494
1761317229635344600,3.1003447265625,-0.16219308972358704,-0.2629101574420929,-0.13997557759284973
1761317229645328000,3.110327880859375,-0.17787785828113556,-0.2700459361076355,-0.09894263744354248
1761317229655310800,3.120310791015625,-0.1788507103919983,-0.19059693813323975,-0.030512982979416847
1761317229665293800,3.1302939453125,-0.16179952025413513,-0.07940841466188431,0.062251124531030655
1761317229675276800,3.14027685546875,-0.11946137994527817,0.03582949936389923,0.1688193827867508
1761317229685259800,3.150259765625,-0.04852132871747017,0.13995510339736938,0.2874663472175598
1761317229695243000,3.160242919921875,0.03463747352361679,0.23433247208595276,0.4061437249183655
1761317229705226000,3.17022607421875,0.12232176959514618,0.3231458365917206,0.5201818346977234
1761317229715208700,3.180208740234375,0.20436711609363556,0.4394333064556122,0.6454513669013977
1761317229725192000,3.19019189453125,0.28614598512649536,0.6014824509620667,0.7707120776176453
1761317229735175000,3.2001748046875,0.3626330494880676,0.7932798266410828,0.8913745284080505
1761317229745158000,3.210157958984375,0.43153518438339233,0.948937177658081,0.9700196385383606
1761317229755140900,3.220140869140625,0.5062273144721985,1.0112961530685425,0.9887635111808777
1761317229765123800,3.230123779296875,0.5780689120292664,0.9434836506843567,0.9330053925514221
1761317229775106800,3.24010693359375,0.6308527588844299,0.7788038849830627,0.8409060835838318
1761317229785090000,3.250090087890625,0.6633327603340149,0.5476642847061157,0.719744086265564
1761317229795072800,3.26007275390625,0.6560234427452087,0.2916809320449829,0.6048710346221924
1761317229805055700,3.2700556640625,0.6285234093666077,0.040345095098018646,0.5034205913543701
1761317229815039000,3.2800390625,0.5744034647941589,-0.19079278409481049,0.4080967605113983
1761317229825021700,3.290021728515625,0.5164932012557983,-0.39762774109840393,0.31817686557769775
1761317229835005000,3.3000048828125,0.45336005091667175,-0.5619282722473145,0.22879187762737274
1761317229844988000,3.30998779296875,0.3921177089214325,-0.6566077470779419,0.14641092717647552
1761317229854971000,3.319970947265625,0.33127114176750183,-0.7060202956199646,0.07461795955896378
1761317229864952800,3.329952880859375,0.2724730968475342,-0.7427688241004944,0.013273995369672775
1761317229874935800,3.339935791015625,0.21812304854393005,-0.7526594996452332,-0.03431855887174606
1761317229884919000,3.3499189453125,0.17540694773197174,-0.726207971572876,-0.0503716766834259
1761317229894901800,3.35990185546875,0.1616509109735489,-0.645439863204956,-0.03441295027732849
1761317229904884700,3.369884765625,0.18131428956985474,-0.5240294933319092,0.017350297421216965
1761317229914868000,3.379867919921875,0.2352164089679718,-0.3709469735622406,0.09602487087249756
1761317229924851000,3.389850830078125,0.293925017118454,-0.2136218398809433,0.18693239986896515
1761317229934833700,3.399833740234375,0.35547253489494324,-0.05587801709771156,0.2802248001098633
1761317229944817000,3.40981689453125,0.41597822308540344,0.09662261605262756,0.36807823181152344
1761317229954799900,3.4197998046875,0.48329973220825195,0.21414072811603546,0.42586588859558105
1761317229964782800,3.429782958984375,0.5474815368652344,0.27980872988700867,0.4408477544784546
1761317229974765800,3.439765869140625,0.6028987169265747,0.3123592138290405,0.42499449849128723
1761317229984748800,3.449748779296875,0.644804835319519,0.3284622132778168,0.39238226413726807
1761317229994731800,3.459731689453125,0.6841219067573547,0.31968364119529724,0.3409624993801117
1761317230004715000,3.469715087890625,0.7053461670875549,0.3142091929912567,0.28750303387641907
1761317230014697700,3.47969775390625,0.7124048471450806,0.30589932203292847,0.23585554957389832
1761317230024681000,3.489680908203125,0.713025689125061,0.29660603404045105,0.17015957832336426
1761317230034664000,3.499663818359375,0.7022385597229004,0.260636568069458,0.09114092588424683
1761317230044646700,3.509646728515625,0.6817356944084167,0.20495063066482544,0.006953697185963392
1761317230054630000,3.5196298828125,0.6492829918861389,0.14483988285064697,-0.06656765937805176
1761317230064612900,3.52961279296875,0.6080843210220337,0.0885370597243309,-0.13185104727745056
1761317230074595800,3.539595947265625,0.5598717927932739,0.058409787714481354,-0.17620892822742462
1761317230084578800,3.549578857421875,0.5109431743621826,0.03568016737699509,-0.19816865026950836
1761317230094561800,3.559561767578125,0.4602978229522705,0.010108761489391327,-0.2206113636493683
1761317230104544800,3.569544677734375,0.4130023717880249,-0.010569711215794086,-0.22416400909423828
1761317230114528000,3.579528076171875,0.3756696581840515,0.014723928645253181,-0.1923418939113617
1761317230124510700,3.5895107421875,0.34952953457832336,0.04298035055398941,-0.16004478931427002
1761317230134493000,3.599492919921875,0.33090099692344666,0.058955855667591095,-0.13848437368869781
1761317230144476000,3.609475830078125,0.3229324221611023,0.06564894318580627,-0.12677252292633057
1761317230154459000,3.619458984375,0.3093862533569336,0.03520448878407478,-0.13139604032039642
1761317230164441900,3.62944189453125,0.2913125157356262,-0.048192739486694336,-0.15247131884098053
1761317230174424800,3.6394248046875,0.2734922468662262,-0.15558364987373352,-0.1738186925649643
1761317230184408000,3.649407958984375,0.2462540566921234,-0.2860787808895111,-0.21302153170108795
1761317230194390800,3.659390869140625,0.20147353410720825,-0.42992836236953735,-0.2699061334133148
1761317230204373800,3.669373779296875,0.12498533725738525,-0.5662685036659241,-0.34289252758026123
1761317230214357000,3.67935693359375,0.028428705409169197,-0.671472430229187,-0.41783013939857483
1761317230224340000,3.689340087890625,-0.0770321637392044,-0.7149368524551392,-0.48357313871383667
1761317230234322700,3.69932275390625,-0.1706867665052414,-0.613552451133728,-0.5124588012695312
1761317230244306000,3.709305908203125,-0.23227596282958984,-0.34136882424354553,-0.49350452423095703
1761317230254289000,3.719288818359375,-0.2548779249191284,-0.07424657791852951,-0.4857078492641449
1761317230264272000,3.72927197265625,-0.2698971927165985,0.08191827684640884,-0.5151476263999939
1761317230274254800,3.7392548828125,-0.2956821918487549,0.11182504147291183,-0.5862953066825867
1761317230284237800,3.74923779296875,-0.3256632387638092,0.04216484725475311,-0.6904958486557007
1761317230294220800,3.759220703125,-0.3552645444869995,-0.06259804964065552,-0.8109908103942871
1761317230304203800,3.769203857421875,-0.3765270411968231,-0.14107047021389008,-0.8949117064476013
1761317230314186800,3.779186767578125,-0.3942176401615143,-0.1758905053138733,-0.919443666934967
1761317230324170000,3.789169921875,-0.3949345648288727,-0.15723346173763275,-0.8559216856956482
1761317230334153000,3.799153076171875,-0.37893375754356384,-0.07669494301080704,-0.7013334631919861
1761317230344135700,3.8091357421875,-0.34021350741386414,0.04374884441494942,-0.4817969501018524
1761317230354119000,3.819118896484375,-0.27864548563957214,0.1705949306488037,-0.2542641758918762
1761317230364102000,3.829101806640625,-0.19548974931240082,0.27854466438293457,-0.050338055938482285
1761317230374084900,3.8390849609375,-0.10229668021202087,0.365703821182251,0.1196424588561058
1761317230384067800,3.84906787109375,-0.01222988124936819,0.4338110387325287,0.2558945119380951
1761317230394050800,3.85905078125,0.06456609815359116,0.4730175733566284,0.37527576088905334
1761317230404033800,3.86903369140625,0.12361761182546616,0.49985453486442566,0.48231571912765503
1761317230414017000,3.87901708984375,0.15866613388061523,0.5105931758880615,0.5804734230041504
1761317230423998700,3.888998779296875,0.18358828127384186,0.4926169514656067,0.6725526452064514
1761317230433982000,3.89898193359375,0.1890011578798294,0.4296315908432007,0.7532834410667419
1761317230443965000,3.90896484375,0.1830931454896927,0.307191401720047,0.8173726797103882
1761317230453948000,3.918947998046875,0.16920875012874603,0.10493310540914536,0.8649412393569946
1761317230463931000,3.928930908203125,0.13805697858333588,-0.13399936258792877,0.9031053781509399
1761317230473913900,3.938913818359375,0.09094380587339401,-0.3699684739112854,0.9310222268104553
1761317230483897000,3.94889697265625,0.03541028872132301,-0.5729352235794067,0.9450253844261169
1761317230493879800,3.9588798828125,-0.040511373430490494,-0.7055963277816772,0.9326768517494202
1761317230503862800,3.96886279296875,-0.14489006996154785,-0.7807671427726746,0.8952281475067139
1761317230513846000,3.978845947265625,-0.27843961119651794,-0.8071345686912537,0.8143191933631897
1761317230523828700,3.988828857421875,-0.43616464734077454,-0.7927121520042419,0.6807671785354614
1761317230533811700,3.998811767578125,-0.5935055613517761,-0.7792453169822693,0.502825140953064
1761317230543795000,4.008794921875,-0.7403467893600464,-0.7378961443901062,0.3090898096561432
1761317230553778000,4.01877783203125,-0.8685007691383362,-0.6460131406784058,0.1410302221775055
1761317230563760600,4.0287607421875,-0.9607455730438232,-0.5151625275611877,0.001428202260285616
1761317230573743900,4.038743896484375,-1.0149316787719727,-0.3680780231952667,-0.11645502597093582
1761317230583726800,4.048726806640625,-1.027733325958252,-0.19414669275283813,-0.2062286138534546
1761317230593709800,4.058709716796875,-1.0156795978546143,-0.03477461636066437,-0.266790509223938
1761317230603692800,4.06869287109375,-0.9672760367393494,0.10986602306365967,-0.29383787512779236
1761317230613675800,4.07867578125,-0.908574640750885,0.21748489141464233,-0.2950786352157593
1761317230623658800,4.08865869140625,-0.8515012860298157,0.2982529401779175,-0.2749081552028656
1761317230633641700,4.098641845703125,-0.798510730266571,0.3554198145866394,-0.245924711227417
1761317230643624700,4.108624755859375,-0.7444397211074829,0.3982146084308624,-0.20781151950359344
1761317230653608000,4.11860791015625,-0.6963334679603577,0.4242917597293854,-0.18383587896823883
1761317230663590700,4.128590576171875,-0.6586635708808899,0.40765616297721863,-0.19394439458847046
1761317230673573600,4.13857373046875,-0.6379116773605347,0.35312288999557495,-0.23359140753746033
1761317230683556900,4.148556884765625,-0.622528612613678,0.26661401987075806,-0.29147279262542725
1761317230693539600,4.15853955078125,-0.6097758412361145,0.17045871913433075,-0.36219385266304016
1761317230703521800,4.168521728515625,-0.5995358228683472,0.07185673713684082,-0.4385871887207031
1761317230713504800,4.1785048828125,-0.586479663848877,-0.012573454529047012,-0.514122486114502
1761317230723487500,4.188487548828125,-0.563457190990448,-0.057049885392189026,-0.57115638256073
1761317230733470700,4.198470703125,-0.5370825529098511,-0.05484612286090851,-0.606419563293457
1761317230743453700,4.20845361328125,-0.5186579823493958,-0.03988179564476013,-0.6275394558906555
1761317230753437000,4.21843701171875,-0.5144402980804443,-0.01951873116195202,-0.635209321975708
1761317230763419600,4.228419677734375,-0.5118095278739929,0.008846799843013287,-0.6341349482536316
1761317230773402600,4.238402587890625,-0.5059215426445007,0.030149690806865692,-0.6341215968132019
1761317230783385900,4.2483857421875,-0.4884391725063324,0.0628303736448288,-0.6445399522781372
1761317230793368800,4.258368896484375,-0.469308078289032,0.10333971679210663,-0.657340407371521
1761317230803351600,4.2683515625,-0.44255030155181885,0.12853628396987915,-0.66173255443573
1761317230813334800,4.278334716796875,-0.4180750548839569,0.1604987531900406,-0.6510530114173889
1761317230823317800,4.28831787109375,-0.38392263650894165,0.20304615795612335,-0.6101449131965637
1761317230833300700,4.29830078125,-0.3335995674133301,0.261333167552948,-0.547139048576355
1761317230843283700,4.30828369140625,-0.2820676267147064,0.30440106987953186,-0.48518577218055725
1761317230853266700,4.3182666015625,-0.22995033860206604,0.2880295515060425,-0.4272569715976715
1761317230863249700,4.328249755859375,-0.1735745221376419,0.23287148773670197,-0.38577187061309814
1761317230873233000,4.33823291015625,-0.12107642740011215,0.1398283690214157,-0.3557537794113159
1761317230883215600,4.348215576171875,-0.061959899961948395,0.04455053061246872,-0.32856473326683044
1761317230893198800,4.35819873046875,0.00458903331309557,-0.04004664346575737,-0.2975974977016449
1761317230903181800,4.368181884765625,0.07359272241592407,-0.11821938306093216,-0.2573041319847107
1761317230913164500,4.37816455078125,0.13758902251720428,-0.2059585452079773,-0.21147726476192474
1761317230923147800,4.388147705078125,0.20015063881874084,-0.2672310769557953,-0.14867818355560303
1761317230933130800,4.398130859375,0.27877968549728394,-0.227351576089859,-0.069282166659832
1761317230943113700,4.40811376953125,0.3645034432411194,-0.08289287239313126,0.014566875994205475
1761317230953096700,4.4180966796875,0.43331021070480347,0.08972363919019699,0.08929810672998428
1761317230963079700,4.42807958984375,0.46897879242897034,0.2222445011138916,0.1277371644973755
1761317230973062700,4.438062744140625,0.4675838351249695,0.24322915077209473,0.12400315701961517
1761317230983046000,4.4480458984375,0.4477904438972473,0.13972866535186768,0.09108289331197739
1761317230993028600,4.458028564453125,0.41404446959495544,-0.036456480622291565,0.0767633393406868
1761317231003010800,4.4680107421875,0.38819167017936707,-0.1993725597858429,0.10631082206964493
1761317231012993800,4.477993896484375,0.3923616409301758,-0.27073490619659424,0.20394444465637207
1761317231022976500,4.4879765625,0.43145251274108887,-0.21025453507900238,0.36960312724113464
1761317231032959700,4.497959716796875,0.5036929249763489,-0.04570367559790611,0.5709879398345947
1761317231042942700,4.507942626953125,0.6058734655380249,0.16440048813819885,0.7625980377197266
1761317231052926000,4.517926025390625,0.7061383128166199,0.37026920914649963,0.8980884552001953
1761317231062908700,4.52790869140625,0.8060542345046997,0.5469615459442139,0.9553400874137878
1761317231072891600,4.5378916015625,0.8915926218032837,0.6827265620231628,0.9524174928665161
1761317231082875000,4.547875,0.954137921333313,0.7746477723121643,0.9225664734840393
1761317231092857900,4.55785791015625,1.0081146955490112,0.8409817814826965,0.8988917469978333
1761317231102840600,4.567840576171875,1.0506601333618164,0.8916654586791992,0.9050773978233337
1761317231112823800,4.57782373046875,1.097014307975769,0.9455065727233887,0.9581449031829834
1761317231122806800,4.587806884765625,1.1590081453323364,1.0063515901565552,1.0333302021026611
1761317231132789800,4.597789794921875,1.2263139486312866,1.0316433906555176,1.1081713438034058
1761317231142772700,4.607772705078125,1.2825722694396973,1.0026836395263672,1.1465412378311157
1761317231152755700,4.617755615234375,1.331822156906128,0.9157873392105103,1.130318522453308
1761317231162738700,4.62773876953125,1.3575712442398071,0.7664098143577576,1.0610209703445435
1761317231172721700,4.6377216796875,1.365862488746643,0.5619322657585144,0.9430436491966248
1761317231182704600,4.64770458984375,1.3611764907836914,0.33193665742874146,0.7899373769760132
1761317231192687900,4.65768798828125,1.3414158821105957,0.10453037917613983,0.6175986528396606
1761317231202670800,4.6676708984375,1.3153762817382812,-0.08544910699129105,0.45123979449272156
1761317231212653600,4.677653564453125,1.2944215536117554,-0.20917770266532898,0.28199857473373413
1761317231222636800,4.68763671875,1.2841423749923706,-0.2808360457420349,0.11934351176023483
1761317231232619800,4.697619873046875,1.2917492389678955,-0.30623194575309753,-0.020449280738830566
1761317231242602800,4.707602783203125,1.290951132774353,-0.294725239276886,-0.11791381984949112
1761317231252585700,4.717585693359375,1.2751059532165527,-0.26107752323150635,-0.176713764667511
1761317231262568700,4.727568603515625,1.2563104629516602,-0.18032874166965485,-0.19051355123519897
1761317231272551700,4.7375517578125,1.2465941905975342,-0.08556149899959564,-0.15703415870666504
1761317231282535000,4.747534912109375,1.2639771699905396,0.013145947828888893,-0.09825579077005386
1761317231292516600,4.7575166015625,1.3000556230545044,0.11926066875457764,-0.010749648325145245
1761317231302499800,4.767499755859375,1.3384898900985718,0.2055896818637848,0.07994699478149414
1761317231312482800,4.77748291015625,1.370020866394043,0.26146066188812256,0.1510198414325714
1761317231322465500,4.787465576171875,1.393781304359436,0.2831156253814697,0.18043574690818787
1761317231332448800,4.79744873046875,1.41336190700531,0.29847702383995056,0.16689731180667877
1761317231342431700,4.807431640625,1.4267569780349731,0.33142194151878357,0.12036484479904175
1761317231352414700,4.817414794921875,1.4289213418960571,0.3610016703605652,0.0502757728099823
1761317231362397700,4.827397705078125,1.4137495756149292,0.3869475722312927,-0.03718343377113342
1761317231372380700,4.837380615234375,1.3773939609527588,0.4129091501235962,-0.12715007364749908
1761317231382364000,4.847364013671875,1.3189798593521118,0.4427475929260254,-0.20904025435447693
1761317231392346600,4.8573466796875,1.2485042810440063,0.43069279193878174,-0.28641119599342346
1761317231402329600,4.86732958984375,1.1883693933486938,0.4003896117210388,-0.32979056239128113
1761317231412312800,4.877312744140625,1.157936930656433,0.3787977695465088,-0.3387680947780609
1761317231422295800,4.8872958984375,1.1489837169647217,0.36007627844810486,-0.31026914715766907
1761317231432278500,4.897278564453125,1.146672248840332,0.33394694328308105,-0.2710498571395874
1761317231442261800,4.90726171875,1.1278408765792847,0.29267799854278564,-0.23093269765377045
1761317231452244700,4.91724462890625,1.1040793657302856,0.2455480396747589,-0.1965305209159851
1761317231462227700,4.927227783203125,1.0676689147949219,0.23973724246025085,-0.15830528736114502
1761317231472210700,4.937210693359375,1.0169614553451538,0.2610502541065216,-0.13230431079864502
1761317231482193700,4.947193603515625,0.9673970937728882,0.30002474784851074,-0.12135662138462067
1761317231492177000,4.957177001953125,0.9153054356575012,0.33988216519355774,-0.13891351222991943
1761317231502160000,4.967159912109375,0.8693363666534424,0.3719281554222107,-0.19575589895248413
1761317231512142600,4.977142578125,0.8023892641067505,0.3645533323287964,-0.2785429060459137
1761317231522125800,4.987125732421875,0.724831223487854,0.3105711042881012,-0.36852359771728516
1761317231532108800,4.99710888671875,0.6432445049285889,0.19373930990695953,-0.4597938358783722
1761317231542091800,5.007091796875,0.5445839166641235,0.01081184670329094,-0.5533012747764587
1761317231552074800,5.01707470703125,0.41235214471817017,-0.1999158263206482,-0.6428884267807007
1761317231562057700,5.0270576171875,0.2632744014263153,-0.3981354236602783,-0.7126657366752625
1761317231572040700,5.037040771484375,0.12241367995738983,-0.5402901768684387,-0.7485992312431335
1761317231582023700,5.047023681640625,0.006641917396336794,-0.5966618657112122,-0.7444593906402588
1761317231592005600,5.057005615234375,-0.0753813087940216,-0.5557175874710083,-0.7111107707023621
1761317231601989600,5.06698974609375,-0.10761354863643646,-0.36536046862602234,-0.6325663924217224
1761317231611971600,5.0769716796875,-0.07353893667459488,-0.03447601571679115,-0.5259329080581665
1761317231621954600,5.08695458984375,-0.019106034189462662,0.261568546295166,-0.46162697672843933
1761317231631937800,5.096937744140625,-0.0032871237490326166,0.4161487817764282,-0.47854068875312805
1761317231641920800,5.106920654296875,-0.01743162050843239,0.446310818195343,-0.5742014646530151
1761317231651903700,5.11690380859375,-0.049132026731967926,0.39464709162712097,-0.7096972465515137
1761317231661886700,5.12688671875,-0.08788430690765381,0.3311966061592102,-0.827609121799469
1761317231671869700,5.13686962890625,-0.1104026660323143,0.3040526211261749,-0.880599856376648
1761317231681853000,5.14685302734375,-0.11409361660480499,0.32136088609695435,-0.8652164936065674
1761317231691835600,5.156835693359375,-0.093891941010952,0.3502785563468933,-0.7815561890602112
1761317231701818600,5.166818603515625,-0.06224803626537323,0.36048009991645813,-0.6588678956031799
1761317231711801900,5.1768017578125,-0.013114579021930695,0.3644554018974304,-0.5171887874603271
1761317231721784800,5.186784912109375,0.060236215591430664,0.36284172534942627,-0.36365488171577454
1761317231731767600,5.196767578125,0.15652813017368317,0.3426320552825928,-0.21801115572452545
1761317231741750800,5.206750732421875,0.2857019007205963,0.2747389078140259,-0.08108003437519073
1761317231751733800,5.216733642578125,0.41646260023117065,0.15124225616455078,0.03237275406718254
1761317231761716700,5.226716796875,0.5033010840415955,0.025163520127534866,0.1285511702299118
1761317231771699700,5.23669970703125,0.5285691618919373,-0.04835570603609085,0.22502471506595612
1761317231781682700,5.2466826171875,0.5159081220626831,-0.06696045398712158,0.30173173546791077
1761317231791666000,5.256666015625,0.48626309633255005,-0.02585776150226593,0.3737742304801941
1761317231801648600,5.266648681640625,0.45485833287239075,0.049915675073862076,0.42376163601875305
1761317231811631600,5.276631591796875,0.43396317958831787,0.12914018332958221,0.458770751953125
1761317231821614800,5.28661474609375,0.4310653805732727,0.1903499960899353,0.4654353857040405
1761317231831597800,5.296597900390625,0.43449926376342773,0.2018282264471054,0.45860224962234497
1761317231841580500,5.30658056640625,0.4482960104942322,0.13764195144176483,0.4494181275367737
1761317231851563800,5.316563720703125,0.4649477005004883,0.014782876707613468,0.4603258967399597
1761317231861546800,5.326546630859375,0.4833986759185791,-0.12386773526668549,0.5104277729988098
1761317231871529700,5.33652978515625,0.48910316824913025,-0.2496882528066635,0.5864772796630859
1761317231881512700,5.3465126953125,0.46601516008377075,-0.3577726483345032,0.6550880074501038
1761317231891495700,5.35649560546875,0.4135301113128662,-0.44270750880241394,0.6965094804763794
1761317231901478000,5.366477783203125,0.32896509766578674,-0.5091061592102051,0.6947405934333801
1761317231911460600,5.376460693359375,0.22507812082767487,-0.5685815215110779,0.6426976323127747
1761317231921443600,5.386443603515625,0.10967063903808594,-0.616843581199646,0.5514891743659973
1761317231931426800,5.3964267578125,-0.0014902428956702352,-0.6398098468780518,0.4572412669658661
1761317231941409800,5.406409912109375,-0.09033500403165817,-0.6273488402366638,0.3820512592792511
1761317231951392800,5.416392822265625,-0.16784843802452087,-0.5584384799003601,0.31835588812828064
1761317231961375700,5.426375732421875,-0.21868154406547546,-0.4501899182796478,0.2486809939146042
1761317231971358700,5.436358642578125,-0.24531501531600952,-0.30483004450798035,0.18568605184555054
1761317231981342000,5.446342041015625,-0.2462027668952942,-0.1397719383239746,0.13668975234031677
1761317231991324700,5.45632470703125,-0.2313157021999359,0.018853386864066124,0.11590325087308884
1761317232001307600,5.4663076171875,-0.2038840353488922,0.15489959716796875,0.12741422653198242
1761317232011291000,5.476290771484375,-0.18162879347801208,0.2572499215602875,0.1542447805404663
1761317232021273600,5.486273681640625,-0.17359359562397003,0.31273698806762695,0.1804051250219345
1761317232031256600,5.496256591796875,-0.17743919789791107,0.323978990316391,0.1967199146747589
1761317232041239800,5.50623974609375,-0.19278131425380707,0.31744199991226196,0.1919904202222824
1761317232051222800,5.516222900390625,-0.22108112275600433,0.2803247272968292,0.15884818136692047
1761317232061205500,5.52620556640625,-0.24900776147842407,0.2513570189476013,0.10736612230539322
1761317232071188700,5.536188720703125,-0.2785571217536926,0.22534647583961487,0.039155907928943634
1761317232081171700,5.546171630859375,-0.2982817590236664,0.21868976950645447,-0.03420513868331909
1761317232091154700,5.55615478515625,-0.323346883058548,0.1989072859287262,-0.11319103837013245
1761317232101137700,5.5661376953125,-0.34543436765670776,0.16959910094738007,-0.19237634539604187
1761317232111120600,5.57612060546875,-0.3617382347583771,0.1410878300666809,-0.24918611347675323
1761317232121104000,5.586103759765625,-0.36410340666770935,0.12732237577438354,-0.2912764251232147
1761317232131086800,5.5960869140625,-0.3588590919971466,0.10811085999011993,-0.3314898908138275
1761317232141069600,5.606069580078125,-0.35093504190444946,0.09495217353105545,-0.36796849966049194
1761317232151052800,5.616052734375,-0.337974488735199,0.10518643260002136,-0.4008846580982208
1761317232161035800,5.626035888671875,-0.317640095949173,0.1297547072172165,-0.4220854938030243
1761317232171018800,5.636018798828125,-0.29733267426490784,0.16005855798721313,-0.43637707829475403
1761317232181001700,5.646001708984375,-0.27145683765411377,0.21225368976593018,-0.4437199831008911
1761317232190984700,5.655984619140625,-0.2309746891260147,0.265582412481308,-0.43534088134765625
1761317232200967000,5.665966796875,-0.17390236258506775,0.3228948712348938,-0.39992398023605347
1761317232210949600,5.67594970703125,-0.10633476823568344,0.3781583905220032,-0.3414822518825531
1761317232220932600,5.6859326171875,-0.024486977607011795,0.41731035709381104,-0.25930505990982056
1761317232230915800,5.695915771484375,0.05786808207631111,0.43734773993492126,-0.17820540070533752
1761317232240898800,5.70589892578125,0.1307440549135208,0.43535569310188293,-0.10186387598514557
1761317232250881800,5.7158818359375,0.18199259042739868,0.417386531829834,-0.04315049946308136
1761317232260864800,5.72586474609375,0.21752701699733734,0.367457777261734,-0.006856923922896385
1761317232270847700,5.73584765625,0.23071978986263275,0.2997346520423889,0.008748667314648628
1761317232280830700,5.745830810546875,0.22866171598434448,0.2142276018857956,0.022223778069019318
1761317232290813700,5.755813720703125,0.22878369688987732,0.14132224023342133,0.025410249829292297
1761317232300796700,5.765796630859375,0.22795693576335907,0.05015159025788307,0.014021475799381733
1761317232310780000,5.77577978515625,0.21452848613262177,-0.033176321536302567,-0.009475327096879482
1761317232320762600,5.7857626953125,0.21136559545993805,-0.10159940272569656,-0.03957976773381233
1761317232330745600,5.79574560546875,0.20369569957256317,-0.16112372279167175,-0.0745081901550293
1761317232340728800,5.805728759765625,0.20626898109912872,-0.17304784059524536,-0.09958689659833908
1761317232350711800,5.8157119140625,0.22183649241924286,-0.07748190313577652,-0.09904680401086807
1761317232360694500,5.825694580078125,0.26309600472450256,0.0687965452671051,-0.07168067991733551
1761317232370677800,5.835677734375,0.2914666533470154,0.20193836092948914,-0.035555701702833176
1761317232380660700,5.84566064453125,0.30352991819381714,0.2624538540840149,-0.014734970405697823
1761317232390643700,5.855643798828125,0.30442795157432556,0.20876558125019073,-0.02091190591454506
1761317232400626700,5.865626708984375,0.301267147064209,0.06975745409727097,-0.04597866162657738
1761317232410609700,5.875609619140625,0.2953466773033142,-0.09152784198522568,-0.05651146173477173
1761317232420593000,5.885593017578125,0.2922154366970062,-0.19709476828575134,-0.023033281788229942
1761317232430575900,5.895575927734375,0.29691511392593384,-0.17344003915786743,0.0761079490184784
1761317232440558600,5.90555859375,0.33558598160743713,-0.015104332938790321,0.23259957134723663
1761317232450541800,5.915541748046875,0.3959422707557678,0.20838814973831177,0.42562150955200195
1761317232460524800,5.92552490234375,0.46967360377311707,0.395999550819397,0.5870602130889893
1761317232470507500,5.935507568359375,0.5651836395263672,0.4844529926776886,0.6835233569145203
1761317232480490800,5.94549072265625,0.6489849090576172,0.5245218276977539,0.7044038772583008
1761317232490472700,5.95547265625,0.7111638188362122,0.5316447019577026,0.6660892367362976
1761317232500455700,5.96545556640625,0.7460533380508423,0.5317450165748596,0.6070979833602905
1761317232510438700,5.975438720703125,0.7751709818840027,0.5551667213439941,0.5616791248321533
1761317232520421600,5.985421630859375,0.799548864364624,0.5907561182975769,0.5405628085136414
1761317232530404900,5.99540478515625,0.8257570266723633,0.6299636960029602,0.5486220717430115
1761317232540387600,6.0053876953125,0.8507750034332275,0.6791723966598511,0.5747031569480896
1761317232550370800,6.015370849609375,0.8796572685241699,0.7258405089378357,0.593951940536499
1761317232560353800,6.025353759765625,0.9259747266769409,0.733672559261322,0.5912004113197327
1761317232570336800,6.035336669921875,0.9721225500106812,0.686837911605835,0.5616976022720337
1761317232580319700,6.04531982421875,1.019520878791809,0.6010050773620605,0.5025529861450195
1761317232590302700,6.055302734375,1.0692389011383057,0.5027506947517395,0.42774292826652527
1761317232600285700,6.06528564453125,1.1298599243164062,0.36695748567581177,0.34329935908317566
1761317232610269000,6.07526904296875,1.197782039642334,0.21259427070617676,0.26871034502983093
1761317232620251600,6.085251708984375,1.2706865072250366,0.07819509506225586,0.2149059772491455
1761317232630234400,6.095234375,1.3326643705368042,-0.07680806517601013,0.14806675910949707
1761317232640217600,6.105217529296875,1.3621448278427124,-0.2588474452495575,0.05584290996193886
1761317232650200300,6.115200439453125,1.3748536109924316,-0.4366171658039093,-0.036483824253082275
1761317232660183600,6.12518359375,1.3665543794631958,-0.5449134707450867,-0.11392422020435333
1761317232670166500,6.13516650390625,1.345252275466919,-0.571564257144928,-0.1643706113100052
1761317232680149500,6.1451494140625,1.324184775352478,-0.52297043800354,-0.17685970664024353
1761317232690132500,6.155132568359375,1.3155726194381714,-0.3978889286518097,-0.14126361906528473
1761317232700115500,6.165115478515625,1.3283644914627075,-0.2156359702348709,-0.07183399051427841
1761317232710098400,6.175098388671875,1.3649805784225464,-0.01145248580724001,0.02083042822778225
1761317232720081700,6.18508154296875,1.4144282341003418,0.15255267918109894,0.12194408476352692
1761317232730064400,6.195064453125,1.4647891521453857,0.24597930908203125,0.204013392329216
1761317232740047400,6.20504736328125,1.5063155889511108,0.26277726888656616,0.2499435693025589
1761317232750030600,6.215030517578125,1.5311980247497559,0.23530571162700653,0.2681574821472168
1761317232760013600,6.225013671875,1.5332499742507935,0.19606900215148926,0.26500028371810913
1761317232769995500,6.23499560546875,1.512717604637146,0.16805973649024963,0.25331488251686096
1761317232779978500,6.244978515625,1.4622893333435059,0.1675623059272766,0.2350003570318222
1761317232789961500,6.25496142578125,1.401189923286438,0.20052026212215424,0.20877034962177277
1761317232799944400,6.2649443359375,1.3399237394332886,0.2668205499649048,0.1704777032136917
1761317232809927400,6.274927490234375,1.2862600088119507,0.35373812913894653,0.1250542849302292
1761317232819910400,6.284910400390625,1.2320407629013062,0.4269450008869171,0.08073616027832031
1761317232829893600,6.2948935546875,1.1747550964355469,0.4682151973247528,0.026217522099614143
1761317232839876400,6.30487646484375,1.1213610172271729,0.432238906621933,-0.03975149244070053
1761317232849859600,6.314859619140625,1.0752251148223877,0.34294044971466064,-0.1046719029545784
1761317232859842600,6.324842529296875,1.0543296337127686,0.24842092394828796,-0.1445101797580719
1761317232869825300,6.3348251953125,1.0406925678253174,0.17045368254184723,-0.15677644312381744
1761317232879808500,6.34480859375,1.0027947425842285,0.11911609768867493,-0.1598997265100479
1761317232889791500,6.35479150390625,0.9571073651313782,0.09897487610578537,-0.1404123157262802
1761317232899774500,6.3647744140625,0.9030358791351318,0.08627485483884811,-0.12211702018976212
1761317232909757400,6.37475732421875,0.8541476726531982,0.08515898883342743,-0.10858683288097382
1761317232919740400,6.384740478515625,0.8152288794517517,0.11365868151187897,-0.0911194384098053
1761317232929723400,6.394723388671875,0.7953728437423706,0.16937974095344543,-0.05069372057914734
1761317232939706600,6.40470654296875,0.8005103468894958,0.24127788841724396,-0.004271627403795719
1761317232949689300,6.414689453125,0.8238593935966492,0.3006828725337982,0.03439587354660034
1761317232959672600,6.424672607421875,0.8279470801353455,0.3298870027065277,0.0478731170296669
1761317232969655600,6.434655517578125,0.8007252812385559,0.2942430078983307,0.018117085099220276
1761317232979638500,6.444638427734375,0.7665457129478455,0.21351492404937744,-0.03020099550485611
1761317232989621500,6.45462158203125,0.7154228687286377,0.13446778059005737,-0.08175500482320786
1761317232999604500,6.4646044921875,0.678455650806427,0.12423183023929596,-0.1326676905155182
1761317233009587500,6.47458740234375,0.664562463760376,0.16297070682048798,-0.1918492615222931
1761317233019570700,6.48457080078125,0.6377912163734436,0.16368089616298676,-0.2812117040157318
1761317233029553400,6.494553466796875,0.5673505663871765,0.04755828157067299,-0.44822171330451965
1761317233039535600,6.50453564453125,0.43815380334854126,-0.16795724630355835,-0.6758183836936951
1761317233049518600,6.5145185546875,0.2803197205066681,-0.3792971968650818,-0.8868999481201172
1761317233059501300,6.524501220703125,0.14496463537216187,-0.46730494499206543,-1.0014816522598267
1761317233069484500,6.534484619140625,0.02952193282544613,-0.40666663646698,-0.9912633299827576
1761317233079467500,6.544467529296875,-0.03856182470917702,-0.17173126339912415,-0.8602643013000488
1761317233089450500,6.554450439453125,-0.00166266446467489,0.21059586107730865,-0.6326609253883362
1761317233099433500,6.56443359375,0.13881318271160126,0.641362190246582,-0.3648143410682678
1761317233109416400,6.57441650390625,0.32751545310020447,0.9827554821968079,-0.12275590002536774
1761317233119399400,6.5843994140625,0.48996445536613464,1.1790144443511963,0.04580921307206154
1761317233129382400,6.59438232421875,0.5904114246368408,1.2417327165603638,0.13428476452827454
1761317233139365400,6.604365478515625,0.6377947330474854,1.1823222637176514,0.14419782161712646
1761317233149348600,6.6143486328125,0.6465181708335876,0.9975429177284241,0.0993693619966507
1761317233159331600,6.62433154296875,0.6481523513793945,0.78702312707901,0.04607764258980751
1761317233169314300,6.634314208984375,0.6520110368728638,0.6072501540184021,0.02556038275361061
1761317233179297500,6.644297607421875,0.6892516613006592,0.4671066701412201,0.031265877187252045
1761317233189280500,6.654280517578125,0.7314617037773132,0.39156636595726013,0.08180175721645355
1761317233199263500,6.664263427734375,0.7883926033973694,0.38906416296958923,0.17790073156356812
1761317233209246500,6.67424658203125,0.8318654894828796,0.4092823565006256,0.3058059513568878
1761317233219229400,6.6842294921875,0.8682464957237244,0.4062376320362091,0.4359061121940613
1761317233229212400,6.69421240234375,0.8747581839561462,0.35209181904792786,0.5451263785362244
1761317233239195600,6.704195556640625,0.8692581057548523,0.2677665650844574,0.62697833776474
1761317233249178400,6.714178466796875,0.8473142385482788,0.17134203016757965,0.6783978343009949
1761317233259161600,6.72416162109375,0.7872911691665649,0.10624749213457108,0.7001510858535767
1761317233269144600,6.73414453125,0.7165685296058655,0.08624289184808731,0.695038378238678
1761317233279127600,6.74412744140625,0.6232846975326538,0.08838437497615814,0.6438164710998535
1761317233289110500,6.754110595703125,0.5207053422927856,0.10679187625646591,0.5535840392112732
1761317233299093500,6.764093505859375,0.40766409039497375,0.13450488448143005,0.42390426993370056
1761317233309075700,6.77407568359375,0.30887436866760254,0.18302607536315918,0.2758128046989441
1761317233319058400,6.784058349609375,0.24508574604988098,0.2719150483608246,0.14432251453399658
1761317233329041400,6.79404150390625,0.21341997385025024,0.38743820786476135,0.03116879053413868
1761317233339024600,6.804024658203125,0.216181680560112,0.4878764748573303,-0.06250990182161331
1761317233349007400,6.81400732421875,0.253487229347229,0.5736859440803528,-0.1206970363855362
1761317233358990300,6.823990234375,0.31988874077796936,0.6390827298164368,-0.1421726644039154
1761317233368973600,6.8339736328125,0.39829087257385254,0.6868090033531189,-0.13113944232463837
1761317233378956500,6.84395654296875,0.47601383924484253,0.7042393684387207,-0.1073501706123352
1761317233388939300,6.853939208984375,0.5431540012359619,0.6981537342071533,-0.08392553776502609
1761317233398922500,6.863922607421875,0.5749707818031311,0.6740956902503967,-0.08338060975074768
1761317233408905500,6.873905517578125,0.5764749646186829,0.6336427927017212,-0.10586727410554886
1761317233418888400,6.883888427734375,0.5544407367706299,0.578401505947113,-0.15157799422740936
1761317233428871400,6.893871337890625,0.5187024474143982,0.5099018216133118,-0.2115425318479538
1761317233438854400,6.9038544921875,0.47272661328315735,0.4511852264404297,-0.26858580112457275
1761317233448837600,6.913837646484375,0.43737688660621643,0.40175268054008484,-0.31188079714775085
1761317233458820600,6.923820556640625,0.4149966239929199,0.3431074023246765,-0.3439764678478241
1761317233468803300,6.93380322265625,0.40279802680015564,0.2875645160675049,-0.3620130121707916
1761317233478786600,6.94378662109375,0.3956315219402313,0.2470420002937317,-0.38416385650634766
1761317233488769500,6.95376953125,0.3978901505470276,0.21285340189933777,-0.3956351578235626
1761317233498752500,6.96375244140625,0.4217590093612671,0.1785433292388916,-0.39939403533935547
1761317233508735500,6.973735595703125,0.4514194428920746,0.1637904942035675,-0.3676294684410095
1761317233518718500,6.983718505859375,0.49279287457466125,0.17598195374011993,-0.321616530418396
1761317233528701400,6.993701416015625,0.5377209186553955,0.19579242169857025,-0.2668488919734955
1761317233538684400,7.003684326171875,0.5522666573524475,0.26150089502334595,-0.09450052678585052
1761317233548667400,7.01366748046875,0.533318281173706,0.1007748693227768,-0.011370750144124031
1761317233558649600,7.023649658203125,0.5357038378715515,-0.07197325676679611,0.06354588270187378
1761317233568632300,7.03363232421875,0.5288915038108826,-0.13755998015403748,0.11512759327888489
1761317233578615600,7.043615478515625,0.5220946669578552,-0.17543035745620728,0.1299797147512436
1761317233588598500,7.0535986328125,0.5177193284034729,-0.16826964914798737,0.10549648106098175
1761317233598581500,7.06358154296875,0.52176833152771,-0.08941937237977982,0.0598449781537056
1761317233608564500,7.073564453125,0.5218384265899658,0.035759858787059784,-0.0002575097605586052
1761317233618547500,7.08354736328125,0.5203017592430115,0.172956183552742,-0.06413426995277405
1761317233628531500,7.093531494140625,0.5045582056045532,0.3187035322189331,-0.1370188593864441
1761317233638514200,7.10351416015625,0.47725072503089905,0.4468131363391876,-0.2190815508365631
1761317233648497400,7.113497314453125,0.4396516680717468,0.5461458563804626,-0.26913008093833923
1761317233658480400,7.12348046875,0.42137566208839417,0.6022458076477051,-0.2733612656593323
1761317233668463400,7.13346337890625,0.40509629249572754,0.6034365296363831,-0.2826247811317444
