time,seconds_elapsed,z,y,x
1761316078348910800,0.072910888671875,-0.3179466426372528,0.24241355061531067,0.687097430229187
1761316078358893800,0.082893798828125,-0.24091549217700958,0.24658644199371338,0.6812108159065247
1761316078368876000,0.0928759765625,-0.1361246556043625,0.2740824818611145,0.6856440305709839
1761316078378858800,0.102858642578125,-0.0431787334382534,0.30102887749671936,0.6983382701873779
1761316078388842000,0.112842041015625,0.02035357430577278,0.30640336871147156,0.7174282073974609
1761316078398824000,0.122823974609375,0.03508458286523819,0.3053290545940399,0.7419114708900452
1761316078408807000,0.132806884765625,0.019117046147584915,0.29809194803237915,0.7716835737228394
1761316078418790000,0.142789794921875,-0.018840987235307693,0.2932087779045105,0.7957563996315002
1761316078428772000,0.152772216796875,-0.08043335378170013,0.2766633629798889,0.8104795813560486
1761316078438754800,0.1627548828125,-0.1448642760515213,0.26265114545822144,0.8087930083274841
1761316078448737800,0.17273779296875,-0.19917866587638855,0.26420503854751587,0.7964699268341064
1761316078458721000,0.182720947265625,-0.2317267656326294,0.2882712185382843,0.7792432308197021
1761316078468702700,0.19270263671875,-0.26487740874290466,0.31045886874198914,0.7623717784881592
1761316078478686000,0.20268603515625,-0.28974947333335876,0.32385164499282837,0.7590318918228149
1761316078488669000,0.2126689453125,-0.2771851718425751,0.3912445902824402,0.7664257884025574
1761316078498651000,0.22265087890625,-0.20912009477615356,0.490296334028244,0.7967842221260071
1761316078508634000,0.232634033203125,-0.11007197946310043,0.5997280478477478,0.8374915719032288
1761316078518616800,0.242616943359375,0.012536494061350822,0.6856432557106018,0.853165864944458
1761316078528600000,0.25260009765625,0.10336364060640335,0.6480305194854736,0.7923482060432434
1761316078538582000,0.26258203125,0.13670535385608673,0.4273034632205963,0.6290871500968933
1761316078548565000,0.27256494140625,0.13708463311195374,0.0812385231256485,0.43394145369529724
1761316078558548000,0.2825478515625,0.08730057626962662,-0.26772642135620117,0.26129165291786194
1761316078568530200,0.2925302734375,-0.0761585459113121,-0.49439480900764465,0.18036188185214996
1761316078578513000,0.302512939453125,-0.3373192846775055,-0.5614824891090393,0.18677610158920288
1761316078588496000,0.312495849609375,-0.6074836254119873,-0.7280833721160889,0.14114831387996674
1761316078598478000,0.32247802734375,-0.7557785511016846,-0.9771754741668701,-0.07538052648305893
1761316078608460800,0.332460693359375,-0.6992889046669006,-1.0656276941299438,-0.40334653854370117
1761316078618444000,0.342444091796875,-0.4562573730945587,-0.9018078446388245,-0.7446852326393127
1761316078628427000,0.352427001953125,-0.11128446459770203,-0.48988834023475647,-0.9428433179855347
1761316078638409000,0.362408935546875,0.24858956038951874,-0.015581492334604263,-0.8756810426712036
1761316078648392000,0.372391845703125,0.5607715249061584,0.28931787610054016,-0.5700689554214478
1761316078658375000,0.382375,0.7778183817863464,0.36482036113739014,-0.20327579975128174
1761316078668356900,0.39235693359375,0.8904368877410889,0.31843745708465576,0.061665233224630356
1761316078678339800,0.40233984375,0.9351588487625122,0.16179244220256805,0.20599444210529327
1761316078688323000,0.412322998046875,0.9540363550186157,-0.12820127606391907,0.2639182507991791
1761316078698305000,0.422304931640625,0.9525383114814758,-0.6245612502098083,0.23097360134124756
1761316078708288000,0.4322880859375,0.9113580584526062,-1.2818049192428589,0.08622212707996368
1761316078718271000,0.44227099609375,0.8510214686393738,-1.9195858240127563,-0.08470594137907028
1761316078728254000,0.45225390625,0.763624370098114,-2.3550405502319336,-0.26129329204559326
1761316078738236000,0.46223583984375,0.6349902153015137,-2.5289676189422607,-0.454196959733963
1761316078748219100,0.47221923828125,0.48697105050086975,-2.4465315341949463,-0.6238069534301758
1761316078758202000,0.4822021484375,0.35924291610717773,-2.083104133605957,-0.7686957120895386
1761316078768184000,0.49218408203125,0.26736754179000854,-1.5415351390838623,-0.8900705575942993
1761316078778167000,0.5021669921875,0.20668478310108185,-0.9117114543914795,-0.9552708268165588
1761316078788150000,0.51214990234375,0.11128886789083481,-0.26647132635116577,-0.9378657937049866
1761316078798132000,0.522132080078125,-0.014813672751188278,0.289517343044281,-0.8661937713623047
1761316078808115000,0.532114990234375,-0.12286053597927094,0.7227077484130859,-0.7685834765434265
1761316078818098200,0.54209814453125,-0.18264050781726837,0.9862017035484314,-0.6499468684196472
1761316078828081200,0.5520810546875,-0.18382707238197327,1.1262162923812866,-0.484617680311203
1761316078838063000,0.56206298828125,-0.13546566665172577,1.1875755786895752,-0.2528582215309143
1761316078848046000,0.572046142578125,-0.05097414553165436,1.147957682609558,0.01394626870751381
1761316078858029000,0.582029052734375,0.041109174489974976,0.9902235269546509,0.28956907987594604
1761316078868011000,0.592010986328125,0.11507101356983185,0.7638189792633057,0.5498309135437012
1761316078877994000,0.601993896484375,0.16826792061328888,0.5268580913543701,0.7750850915908813
1761316078887977200,0.611977294921875,0.20111696422100067,0.3223848044872284,0.9440274238586426
1761316078897959000,0.621958984375,0.21650098264217377,0.16922029852867126,1.0470736026763916
1761316078907942100,0.631942138671875,0.2030382603406906,0.05684712156653404,1.0887141227722168
1761316078917925000,0.641925048828125,0.16050970554351807,-0.016005780547857285,1.052545428276062
1761316078927907800,0.651907958984375,0.09605155140161514,-0.06649613380432129,0.9504863619804382
1761316078937890000,0.66189013671875,0.021077174693346024,-0.09276688098907471,0.8116251230239868
1761316078947873000,0.671873046875,-0.059190478175878525,-0.07097231596708298,0.6727054119110107
1761316078957856000,0.68185595703125,-0.13894735276699066,0.0026465090923011303,0.5567016005516052
1761316078967838000,0.691837890625,-0.2139960527420044,0.12568910419940948,0.47162187099456787
1761316078977821200,0.7018212890625,-0.27385592460632324,0.29750534892082214,0.4259662330150604
1761316078987804000,0.711803955078125,-0.3195057511329651,0.45992836356163025,0.40887215733528137
1761316078997786000,0.7217861328125,-0.36592409014701843,0.5551195740699768,0.39781153202056885
1761316079007769000,0.73176904296875,-0.4289448857307434,0.5176371335983276,0.3587469458580017
1761316079017751800,0.741751708984375,-0.4973556399345398,0.3364311456680298,0.2709212005138397
1761316079027734000,0.751734130859375,-0.551943302154541,0.05589764192700386,0.12850581109523773
1761316079037717000,0.761717041015625,-0.546929121017456,-0.23551715910434723,-0.059293121099472046
1761316079047700000,0.771699951171875,-0.4938122034072876,-0.40935173630714417,-0.20822569727897644
1761316079057683000,0.781682861328125,-0.37604376673698425,-0.2824382781982422,-0.1317378431558609
1761316079067665200,0.7916650390625,-0.20188553631305695,0.1800907850265503,0.2219688892364502
1761316079077648000,0.80164794921875,-0.11795548349618912,0.7692698836326599,0.6426346302032471
1761316079087631000,0.811631103515625,-0.2937346398830414,1.1393762826919556,0.8035933375358582
1761316079097613000,0.821613037109375,-0.643715500831604,1.1738415956497192,0.6266806125640869
1761316079107596000,0.831595947265625,-1.027916431427002,0.7963532209396362,0.11023949831724167
1761316079117579000,0.8415791015625,-1.235171914100647,0.20093221962451935,-0.6524831652641296
1761316079127561200,0.851561279296875,-1.1661335229873657,-0.15383870899677277,-1.3456398248672485
1761316079137544000,0.8615439453125,-0.9571171998977661,-0.18505042791366577,-1.6875874996185303
1761316079147527000,0.87152685546875,-0.7273173928260803,-0.00916222296655178,-1.538944125175476
1761316079157510100,0.88151025390625,-0.405612587928772,0.33795684576034546,-0.9536734223365784
1761316079167491800,0.891491943359375,0.015050921589136124,0.7097058892250061,-0.20360729098320007
1761316079177475000,0.90147509765625,0.42968887090682983,0.8817343711853027,0.38852500915527344
1761316079187458000,0.9114580078125,0.7522055506706238,0.8033407330513,0.6353236436843872
1761316079197440000,0.92143994140625,0.9394633173942566,0.5572087168693542,0.5762427449226379
1761316079207423000,0.931423095703125,0.9824752807617188,0.25512757897377014,0.30147701501846313
1761316079217406000,0.941406005859375,0.8993234038352966,-0.07054426521062851,-0.059383440762758255
1761316079227388000,0.951387939453125,0.7300047874450684,-0.35499659180641174,-0.37610605359077454
1761316079237371000,0.961370849609375,0.5104524493217468,-0.5659605264663696,-0.6050928831100464
1761316079247354000,0.97135400390625,0.28254637122154236,-0.7303400635719299,-0.7367008328437805
1761316079257335800,0.981335693359375,0.07206689566373825,-0.8405400514602661,-0.8297109603881836
1761316079267319000,0.991319091796875,-0.08938100934028625,-0.8045130968093872,-0.8826810717582703
1761316079277302000,1.001302001953125,-0.19456122815608978,-0.6263729333877563,-0.9031780958175659
1761316079287285000,1.011284912109375,-0.2319151610136032,-0.3763849437236786,-0.9204199314117432
1761316079297267000,1.021266845703125,-0.20704469084739685,-0.08915743976831436,-0.9434035420417786
1761316079307250000,1.03125,-0.14355140924453735,0.22795014083385468,-0.9402471780776978
1761316079317233200,1.041233154296875,-0.07549034059047699,0.5084763169288635,-0.8921643495559692
1761316079327214800,1.05121484375,-0.027393262833356857,0.7038944363594055,-0.7825348377227783
1761316079337198000,1.061197998046875,-0.008024357259273529,0.7942320108413696,-0.610184907913208
1761316079347181000,1.07118115234375,-0.016726016998291016,0.764127790927887,-0.3922487199306488
1761316079357163000,1.0811630859375,-0.036168426275253296,0.6090929508209229,-0.15398582816123962
1761316079367146000,1.09114599609375,-0.05091646686196327,0.3756117522716522,0.08539263904094696
1761316079377129000,1.10112890625,-0.06144394353032112,0.10547959804534912,0.3191976845264435
1761316079387111000,1.11111083984375,-0.043650321662425995,-0.15952350199222565,0.5388222336769104
1761316079397094000,1.121093994140625,0.008236845023930073,-0.36904025077819824,0.7173837423324585
1761316079407077000,1.1310771484375,0.07570420205593109,-0.5049207806587219,0.8539551496505737
1761316079417059800,1.141059814453125,0.12111110240221024,-0.5654610991477966,0.9201112389564514
1761316079427042000,1.1510419921875,0.12547795474529266,-0.5709984302520752,0.9345276951789856
1761316079437025000,1.16102490234375,0.09020145982503891,-0.5280368328094482,0.9057469367980957
1761316079447008300,1.17100830078125,0.02332162670791149,-0.47531750798225403,0.837498664855957
1761316079456990000,1.180989990234375,-0.072268545627594,-0.43086349964141846,0.7247617244720459
1761316079466973200,1.19097314453125,-0.16118812561035156,-0.37775543332099915,0.5822070240974426
1761316079476956200,1.2009560546875,-0.24004033207893372,-0.29996928572654724,0.4585561752319336
1761316079486938000,1.210938232421875,-0.2952115833759308,-0.2078189253807068,0.37750691175460815
1761316079496921000,1.220921142578125,-0.32506507635116577,-0.10719059407711029,0.3383062481880188
1761316079506903600,1.230903564453125,-0.32391053438186646,0.011228866875171661,0.32392755150794983
1761316079516885800,1.2408857421875,-0.3004688620567322,0.11887064576148987,0.3257467448711395
1761316079526868700,1.25086865234375,-0.27246516942977905,0.1791994273662567,0.31562110781669617
1761316079536852000,1.26085205078125,-0.2512616217136383,0.14068877696990967,0.27681830525398254
1761316079546833700,1.270833740234375,-0.20187431573867798,0.0011895080097019672,0.22070714831352234
1761316079556817000,1.28081689453125,-0.10766766220331192,-0.19711558520793915,0.18396352231502533
1761316079566800000,1.2907998046875,0.022885620594024658,-0.4006314277648926,0.18266825377941132
1761316079576782600,1.300782470703125,0.1468115597963333,-0.3686324954032898,0.23706038296222687
1761316079586764800,1.310764892578125,0.2297137975692749,0.03167371079325676,0.37748536467552185
1761316079596747800,1.320747802734375,0.23215033113956451,0.6270865201950073,0.441247820854187
1761316079606730800,1.330730712890625,0.15394090116024017,1.1602016687393188,0.2979181110858917
1761316079616712700,1.340712646484375,0.07919343560934067,1.4306448698043823,-0.04811680316925049
1761316079626696000,1.350696044921875,0.08438786119222641,1.3630653619766235,-0.4917925000190735
1761316079636678700,1.3606787109375,0.16228052973747253,1.0609760284423828,-0.9354178309440613
1761316079646660900,1.370660888671875,0.34558171033859253,0.7393775582313538,-1.1570159196853638
1761316079656643800,1.380643798828125,0.5811100602149963,0.46361473202705383,-1.037997841835022
1761316079666626800,1.390626708984375,0.7700135111808777,0.2508908808231354,-0.6080172657966614
1761316079676608800,1.40060888671875,0.9179609417915344,0.14624623954296112,0.014004477299749851
1761316079686591700,1.410591796875,1.0278959274291992,0.07874716818332672,0.5707985162734985
1761316079696574700,1.42057470703125,1.094861388206482,0.037920642644166946,0.8647335171699524
1761316079706556700,1.430556640625,1.1258907318115234,0.05573676899075508,0.8510608077049255
1761316079716540000,1.440539794921875,1.0746893882751465,0.06572947651147842,0.6183351278305054
1761316079726522600,1.450522705078125,0.8986207246780396,0.020393822342157364,0.29585692286491394
1761316079736505900,1.460505859375,0.6526197195053101,-0.10310521721839905,-0.04193311557173729
1761316079746487800,1.47048779296875,0.4349028170108795,-0.2679365277290344,-0.3309953212738037
1761316079756470800,1.480470703125,0.27204838395118713,-0.4130100905895233,-0.5388867259025574
1761316079766453800,1.490453857421875,0.15899385511875153,-0.5197311639785767,-0.6527084708213806
1761316079776436000,1.50043603515625,0.07181527465581894,-0.5811617374420166,-0.7016453742980957
1761316079786418700,1.510418701171875,0.0031834435649216175,-0.6027421355247498,-0.6950783133506775
1761316079796401700,1.520401611328125,-0.047213952988386154,-0.5560398697853088,-0.6330264210700989
1761316079806383900,1.5303837890625,-0.07980123162269592,-0.44335275888442993,-0.5251920819282532
1761316079816366600,1.54036669921875,-0.09084855765104294,-0.28501638770103455,-0.38330984115600586
1761316079826349800,1.550349853515625,-0.08852928876876831,-0.0831780657172203,-0.2607482969760895
1761316079836331800,1.560331787109375,-0.10263925045728683,0.10283547639846802,-0.21534058451652527
1761316079846314800,1.570314697265625,-0.1509418487548828,0.26584386825561523,-0.27260470390319824
1761316079856297700,1.580297607421875,-0.19829949736595154,0.40647581219673157,-0.4021797478199005
1761316079866280000,1.590280029296875,-0.2009059339761734,0.4920108914375305,-0.5774970054626465
1761316079876262700,1.6002626953125,-0.15455999970436096,0.5015665888786316,-0.7371910214424133
1761316079886245600,1.61024560546875,-0.06460876017808914,0.45083704590797424,-0.8133825063705444
1761316079896228900,1.620228759765625,0.04306071624159813,0.33696508407592773,-0.7499827146530151
1761316079906210600,1.63021044921875,0.14400316774845123,0.1831483244895935,-0.5366488099098206
1761316079916193800,1.64019384765625,0.23412108421325684,0.013811768963932991,-0.21038176119327545
1761316079926176800,1.6501767578125,0.3003184199333191,-0.15077628195285797,0.16562099754810333
1761316079936158700,1.66015869140625,0.3237971365451813,-0.28954190015792847,0.5029934644699097
1761316079946141700,1.6701416015625,0.3136795461177826,-0.38971254229545593,0.7565752863883972
1761316079956124700,1.680124755859375,0.27722275257110596,-0.4506765604019165,0.9131765961647034
1761316079966106600,1.690106689453125,0.21722832322120667,-0.4832783341407776,0.9836883544921875
1761316079976089600,1.700089599609375,0.12921084463596344,-0.4669712781906128,0.9469713568687439
1761316079986072800,1.71007275390625,0.02541060745716095,-0.40882623195648193,0.8127769827842712
1761316079996054500,1.720054443359375,-0.04402998834848404,-0.29852476716041565,0.6211369633674622
1761316080006037800,1.730037841796875,-0.07467412203550339,-0.1465786099433899,0.4132901430130005
1761316080016020700,1.740020751953125,-0.062387630343437195,0.0036247516982257366,0.2413463592529297
1761316080026002700,1.750002685546875,-0.043977439403533936,0.12243789434432983,0.12501488626003265
1761316080035985700,1.759985595703125,-0.04010706767439842,0.15832026302814484,0.05569280683994293
1761316080045969000,1.769968994140625,-0.03451504185795784,0.0984056293964386,-0.00033977022394537926
1761316080055952000,1.779951904296875,0.0026714755222201347,-0.02770250476896763,-0.06783705949783325
1761316080065933800,1.789933837890625,0.09037146717309952,-0.1551520824432373,-0.13184966146945953
1761316080075916800,1.799916748046875,0.24756641685962677,-0.17717856168746948,-0.15281033515930176
1761316080085899800,1.809899658203125,0.423929899930954,-0.04789891093969345,-0.01862657628953457
1761316080095881700,1.8198818359375,0.4899829626083374,0.17301055788993835,0.28377294540405273
1761316080105864700,1.82986474609375,0.47911325097084045,0.5621724724769592,0.6396371126174927
1761316080115848000,1.839847900390625,0.4525301158428192,0.8538280725479126,0.8250828981399536
1761316080125829600,1.84982958984375,0.39821240305900574,0.7921670079231262,0.7245010137557983
1761316080135812900,1.859812744140625,0.30623960494995117,0.48567530512809753,0.3705644905567169
1761316080145795800,1.8697958984375,0.2512162923812866,0.13345010578632355,-0.09788985550403595
1761316080155777800,1.87977783203125,0.28202879428863525,-0.04804271459579468,-0.4578131437301636
1761316080165760800,1.8897607421875,0.3469565510749817,-0.016993427649140358,-0.6140545010566711
1761316080175743700,1.89974365234375,0.3905274569988251,0.1296287626028061,-0.5543022155761719
1761316080185725700,1.9097255859375,0.45330652594566345,0.34832674264907837,-0.2926609218120575
1761316080195708700,1.919708740234375,0.5359106063842773,0.5564491152763367,0.06576009094715118
1761316080205692000,1.92969189453125,0.638745129108429,0.6603245735168457,0.32415300607681274
1761316080215673600,1.939673583984375,0.7396144866943359,0.6256491541862488,0.36904510855674744
1761316080225656800,1.94965673828125,0.7785826325416565,0.49019038677215576,0.20914386212825775
1761316080235639800,1.959639892578125,0.7169203758239746,0.24922063946723938,-0.0782967135310173
1761316080245622800,1.969622802734375,0.6112619042396545,-0.024856213480234146,-0.3920234739780426
1761316080255604700,1.979604736328125,0.5131920576095581,-0.25855737924575806,-0.6457646489143372
1761316080265587700,1.989587646484375,0.4428223967552185,-0.441764771938324,-0.7904602289199829
1761316080275571000,1.999571044921875,0.3841042220592499,-0.6023898720741272,-0.8123080134391785
1761316080285552600,2.009552734375,0.2979861795902252,-0.7280686497688293,-0.7331145405769348
1761316080295535900,2.019535888671875,0.1801719069480896,-0.7743224501609802,-0.614225447177887
1761316080305518800,2.029518798828125,0.057190265506505966,-0.7296465039253235,-0.4791070222854614
1761316080315500800,2.039500732421875,-0.05406941473484039,-0.5664389729499817,-0.341994971036911
1761316080325483800,2.04948388671875,-0.14662715792655945,-0.2993907630443573,-0.1937345266342163
1761316080335466800,2.059466796875,-0.20348617434501648,0.022786995396018028,-0.034096140414476395
1761316080345448700,2.06944873046875,-0.24367928504943848,0.3125927448272705,0.1173369437456131
1761316080355431700,2.079431640625,-0.27569422125816345,0.504643440246582,0.2668132483959198
1761316080365415000,2.089414794921875,-0.29898518323898315,0.5724653601646423,0.39492055773735046
1761316080375396600,2.099396728515625,-0.30751875042915344,0.4789833128452301,0.5131585597991943
1761316080385379800,2.1093798828125,-0.2812940180301666,0.31351903080940247,0.6143638491630554
1761316080395362800,2.11936279296875,-0.21140041947364807,0.10297669470310211,0.6736029386520386
1761316080405344800,2.1293447265625,-0.09546324610710144,-0.06337186694145203,0.7091674208641052
1761316080415327700,2.13932763671875,0.060895733535289764,-0.14264404773712158,0.7226054668426514
1761316080425311000,2.14931103515625,0.23597556352615356,-0.13776598870754242,0.7129302620887756
1761316080435292700,2.159292724609375,0.3910498321056366,-0.0666385367512703,0.6981478929519653
1761316080445276000,2.16927587890625,0.5204867720603943,0.071244016289711,0.6739423871040344
1761316080455259000,2.1792587890625,0.6184855103492737,0.18820419907569885,0.6475169062614441
1761316080465241600,2.18924169921875,0.6416950225830078,0.2337445616722107,0.646003007888794
1761316080475223800,2.199223876953125,0.5835661888122559,0.19972321391105652,0.6869584321975708
1761316080485206800,2.209206787109375,0.47649937868118286,0.09476875513792038,0.7288537621498108
1761316080495189800,2.219189697265625,0.3596172332763672,-0.05413337051868439,0.7434303164482117
1761316080505172000,2.229171875,0.24423281848430634,-0.19099955260753632,0.7042755484580994
1761316080515155200,2.2391552734375,0.14394962787628174,-0.297519326210022,0.6332186460494995
1761316080525138000,2.249137939453125,0.07382817566394806,-0.3512243926525116,0.49627017974853516
1761316080535120100,2.2591201171875,0.03833490237593651,-0.35348036885261536,0.3229825496673584
1761316080545103000,2.26910302734375,0.02820013090968132,-0.3659471571445465,0.12146212160587311
1761316080555085800,2.2790859375,0.02380271814763546,-0.3668307960033417,-0.12196358293294907
1761316080565068000,2.289068115234375,0.004075410310178995,-0.32620927691459656,-0.40352723002433777
1761316080575051000,2.299051025390625,-0.0005121510475873947,-0.187442347407341,-0.6997913718223572
1761316080585034200,2.3090341796875,0.030708277598023415,0.05597100406885147,-0.8887015581130981
1761316080595016000,2.319015869140625,0.08854015171527863,0.4499145746231079,-0.9132516384124756
1761316080604999200,2.328999267578125,0.10977437347173691,1.054679036140442,-0.7545061707496643
1761316080614982100,2.338982177734375,0.07126773148775101,1.6291550397872925,-0.414325475692749
1761316080624964000,2.348964111328125,-0.03980336710810661,1.8179961442947388,-0.11179377138614655
1761316080634947000,2.358947021484375,-0.13952437043190002,1.2128947973251343,-0.08720294386148453
1761316080644930000,2.368929931640625,-0.1485474407672882,-0.05532227084040642,-0.5054394006729126
1761316080654912000,2.378912109375,-0.025710202753543854,-1.2030280828475952,-1.0679429769515991
1761316080664895000,2.38889501953125,0.11778908222913742,-1.653337836265564,-1.3857903480529785
1761316080674878200,2.398878173828125,0.15797804296016693,-1.4211962223052979,-1.2570624351501465
1761316080684861000,2.40886083984375,0.15875232219696045,-0.7905061841011047,-0.6985429525375366
1761316080694843100,2.418843017578125,0.24752293527126312,-0.06871282309293747,-0.019599366933107376
1761316080704826000,2.428826171875,0.4388205409049988,0.4102316200733185,0.4588308334350586
1761316080714808800,2.438808837890625,0.5960791110992432,0.6039020419120789,0.6025781631469727
1761316080724791000,2.448791015625,0.7192188501358032,0.6423165798187256,0.48464468121528625
1761316080734774000,2.45877392578125,0.7966840863227844,0.583549439907074,0.19977858662605286
1761316080744757000,2.468757080078125,0.787478506565094,0.48309680819511414,-0.14442791044712067
1761316080754739000,2.478739013671875,0.7057852149009705,0.34156179428100586,-0.4810538589954376
1761316080764722200,2.48872216796875,0.5827847719192505,0.10358677804470062,-0.7434859871864319
1761316080774705000,2.498704833984375,0.4362102448940277,-0.20791225135326385,-0.9036207795143127
1761316080784687000,2.50868701171875,0.2849181294441223,-0.5224435925483704,-0.9396409392356873
1761316080794670000,2.518670166015625,0.15116991102695465,-0.7845460176467896,-0.8859015107154846
1761316080804653000,2.528653076171875,0.029422421008348465,-0.9600731134414673,-0.8053739666938782
1761316080814635000,2.538635009765625,-0.05451482534408569,-1.0096564292907715,-0.7285332679748535
1761316080824618000,2.548617919921875,-0.10397540777921677,-0.9514459371566772,-0.6527383327484131
1761316080834601000,2.55860107421875,-0.127875417470932,-0.8183755278587341,-0.5496864914894104
1761316080844583000,2.5685830078125,-0.14444653689861298,-0.6246809959411621,-0.4039629101753235
1761316080854566100,2.578566162109375,-0.17790329456329346,-0.3816390633583069,-0.24684011936187744
1761316080864548900,2.588548828125,-0.2296992391347885,-0.13754001259803772,-0.10027674585580826
1761316080874531000,2.598531005859375,-0.2863486409187317,0.06980038434267044,0.030016005039215088
1761316080884514000,2.60851416015625,-0.31720006465911865,0.20247165858745575,0.1495104730129242
1761316080894497000,2.6184970703125,-0.31319040060043335,0.25343096256256104,0.2607613801956177
1761316080904479000,2.62847900390625,-0.28324219584465027,0.23311123251914978,0.38015463948249817
1761316080914462200,2.638462158203125,-0.23574207723140717,0.16612286865711212,0.5170632600784302
1761316080924445000,2.64844482421875,-0.19919176399707794,0.06866957992315292,0.6344962120056152
1761316080934427100,2.65842724609375,-0.17906677722930908,-0.018657606095075607,0.7157121896743774
1761316080944410000,2.66841015625,-0.15291479229927063,-0.0954165980219841,0.745042622089386
1761316080954392800,2.678392822265625,-0.11345154792070389,-0.1774297058582306,0.7134900093078613
1761316080964376000,2.6883759765625,-0.05881839245557785,-0.2693993151187897,0.6209750175476074
1761316080974358000,2.69835791015625,-0.01640062779188156,-0.37853166460990906,0.4923749268054962
1761316080984341000,2.708341064453125,-0.00595674617215991,-0.4987078309059143,0.3613908886909485
1761316080994324000,2.718323974609375,-0.04545116052031517,-0.6095930933952332,0.23449578881263733
1761316081004306200,2.72830615234375,-0.13766558468341827,-0.6698148846626282,0.11601166427135468
1761316081014289000,2.738288818359375,-0.24933645129203796,-0.6457217931747437,0.01122346706688404
1761316081024272000,2.74827197265625,-0.35242941975593567,-0.5705349445343018,-0.0704398825764656
1761316081034254000,2.758254150390625,-0.43386995792388916,-0.43829458951950073,-0.14309464395046234
1761316081044236800,2.76823681640625,-0.47311967611312866,-0.22036249935626984,-0.19720634818077087
1761316081054220000,2.778219970703125,-0.48452866077423096,0.005194453988224268,-0.24824318289756775
1761316081064202000,2.788201904296875,-0.4838344156742096,0.1974981129169464,-0.3112605810165405
1761316081074185200,2.798185302734375,-0.43260666728019714,0.37722790241241455,-0.34431228041648865
1761316081084168000,2.80816796875,-0.32272234559059143,0.5800870656967163,-0.29796698689460754
1761316081094150100,2.818150146484375,-0.2002081573009491,0.715805172920227,-0.1315031796693802
1761316081104133000,2.828133056640625,-0.09493321925401688,0.7940369248390198,0.14807046949863434
1761316081114115800,2.83811572265625,0.010365236550569534,0.9257510304450989,0.4370245337486267
1761316081124098000,2.84809814453125,0.0727449581027031,1.1228467226028442,0.5342145562171936
1761316081134081000,2.8580810546875,0.09536957740783691,1.2110562324523926,0.3829296827316284
1761316081144064000,2.86806396484375,0.10928847640752792,1.0295774936676025,-0.03780169039964676
1761316081154046000,2.8780458984375,0.15963740646839142,0.538449764251709,-0.7364388108253479
1761316081164029200,2.888029296875,0.3522387742996216,0.009489284828305244,-1.4498566389083862
1761316081174012000,2.898011962890625,0.627311646938324,-0.34006205201148987,-1.8321549892425537
1761316081183994000,2.907994140625,0.8131165504455566,-0.40076375007629395,-1.707252025604248
1761316081193977000,2.91797705078125,0.8098608255386353,-0.22929826378822327,-1.0608195066452026
1761316081203960000,2.9279599609375,0.7774485349655151,0.06904534995555878,-0.24612705409526825
1761316081213942000,2.93794189453125,0.8300941586494446,0.2543816566467285,0.27544105052948
1761316081223925000,2.947925048828125,0.9594769477844238,0.2967675030231476,0.39666852355003357
1761316081233908000,2.957907958984375,1.0538716316223145,0.2984943091869354,0.20445354282855988
1761316081243891000,2.967890869140625,1.0496904850006104,0.3283402919769287,-0.150059312582016
1761316081253873200,2.977873046875,0.9235171675682068,0.4096370041370392,-0.5188248157501221
1761316081263855900,2.98785595703125,0.69316166639328,0.48503583669662476,-0.8080391883850098
1761316081273839000,2.997839111328125,0.41930052638053894,0.5094253420829773,-1.0053125619888306
1761316081283821000,3.007821044921875,0.15216127038002014,0.39445170760154724,-1.097983717918396
1761316081293804000,3.017803955078125,-0.06449033319950104,0.13778100907802582,-1.1093802452087402
1761316081303787000,3.027787109375,-0.1946634203195572,-0.21922634541988373,-1.0706342458724976
1761316081313769200,3.037769287109375,-0.22735558450222015,-0.5940678715705872,-0.9818572998046875
1761316081323752000,3.047751953125,-0.1668093055486679,-0.94581538438797,-0.8502337336540222
1761316081333735000,3.05773486328125,-0.04544025659561157,-1.2278763055801392,-0.6661914587020874
1761316081343717000,3.067717041015625,0.06840131431818008,-1.3695495128631592,-0.45849961042404175
1761316081353699800,3.077699951171875,0.11822772771120071,-1.3349401950836182,-0.25937291979789734
1761316081363683000,3.08768310546875,0.10337048768997192,-1.1541343927383423,-0.08946748822927475
1761316081373665000,3.0976650390625,0.06761807948350906,-0.8679951429367065,0.06621851027011871
1761316081383648000,3.10764794921875,0.02290789596736431,-0.5025625228881836,0.19065769016742706
1761316081393631000,3.117630859375,-0.03979996219277382,-0.12279709428548813,0.28715068101882935
1761316081403613200,3.12761328125,-0.1040300652384758,0.1701773852109909,0.3562207520008087
1761316081413596000,3.137595947265625,-0.15807998180389404,0.3508206903934479,0.40381890535354614
1761316081423579000,3.147578857421875,-0.20315764844417572,0.4250684678554535,0.43867382407188416
1761316081433561000,3.15756103515625,-0.23322179913520813,0.39685386419296265,0.45342132449150085
1761316081443543800,3.167543701171875,-0.24007409811019897,0.2894829213619232,0.4552317261695862
1761316081453527000,3.177527099609375,-0.23713929951190948,0.1494818776845932,0.4290057122707367
1761316081463509000,3.187509033203125,-0.22994592785835266,0.02229538932442665,0.38369452953338623
1761316081473492000,3.197491943359375,-0.23540142178535461,-0.05310988798737526,0.3294115960597992
1761316081483475000,3.207474853515625,-0.2599685490131378,-0.08055776357650757,0.287777841091156
1761316081493457200,3.21745703125,-0.3084293007850647,-0.0820816233754158,0.277728408575058
1761316081503439400,3.227439453125,-0.3755345344543457,-0.048687953501939774,0.3062700927257538
1761316081513422600,3.237422607421875,-0.4653698801994324,0.010895216837525368,0.3430930972099304
1761316081523404500,3.247404541015625,-0.5712368488311768,0.07405819743871689,0.34411951899528503
1761316081533387500,3.257387451171875,-0.6714345812797546,0.138167142868042,0.3141789138317108
1761316081543370500,3.26737060546875,-0.7272141575813293,0.22564007341861725,0.2636389434337616
1761316081553352700,3.277352783203125,-0.7455116510391235,0.3063255846500397,0.18783660233020782
1761316081563335400,3.28733544921875,-0.7372165322303772,0.3481481075286865,0.07520559430122375
1761316081573318400,3.297318359375,-0.7256421446800232,0.31980037689208984,-0.05271908640861511
1761316081583300600,3.307300537109375,-0.6932401657104492,0.32425132393836975,-0.1365390121936798
1761316081593283300,3.317283447265625,-0.6259186863899231,0.32108962535858154,-0.15585412085056305
1761316081603266600,3.3272666015625,-0.5234708786010742,0.30887022614479065,-0.0751282274723053
1761316081613249500,3.33724951171875,-0.431170254945755,0.37330594658851624,0.22031541168689728
1761316081623231500,3.3472314453125,-0.38936758041381836,0.6131358742713928,0.6956980228424072
1761316081633214500,3.35721435546875,-0.38658642768859863,1.0567013025283813,1.0776305198669434
1761316081643197400,3.367197509765625,-0.35535359382629395,1.5516654253005981,1.1719876527786255
1761316081653179400,3.377179443359375,-0.16918079555034637,1.6886811256408691,0.940456211566925
1761316081663162400,3.387162353515625,0.052722811698913574,1.362330436706543,0.42230111360549927
1761316081673145600,3.3971455078125,0.22761766612529755,0.6809430718421936,-0.12494147568941116
1761316081683127300,3.407127197265625,0.38438311219215393,0.015375517308712006,-0.46583762764930725
1761316081693110500,3.417110595703125,0.5281243324279785,-0.44765952229499817,-0.48757806420326233
1761316081703093500,3.427093505859375,0.6466650366783142,-0.6231813430786133,-0.24151380360126495
1761316081713075500,3.437075439453125,0.7515243291854858,-0.5837588310241699,0.20563973486423492
1761316081723058400,3.447058349609375,0.8485546112060547,-0.36708053946495056,0.6724100112915039
1761316081733041400,3.45704150390625,0.913162350654602,-0.19815810024738312,0.9211388230323792
1761316081743023400,3.4670234375,0.9773830771446228,-0.11680147796869278,0.8820717334747314
1761316081753006300,3.47700634765625,1.0024091005325317,-0.18489158153533936,0.6319359540939331
1761316081762989600,3.486989501953125,0.9562321305274963,-0.3961934447288513,0.27004894614219666
1761316081772971500,3.496971435546875,0.8249350786209106,-0.6216835379600525,-0.10722509026527405
1761316081782954500,3.50695458984375,0.6340888738632202,-0.751554012298584,-0.4655945897102356
1761316081792937500,3.5169375,0.4327560067176819,-0.7554307579994202,-0.7462757229804993
1761316081802919700,3.526919677734375,0.24608314037322998,-0.6878633499145508,-0.9293361902236938
1761316081812902400,3.53690234375,0.093040332198143,-0.5743857622146606,-1.0108296871185303
1761316081822885600,3.5468857421875,-0.03837566077709198,-0.3920575976371765,-0.9761354327201843
1761316081832867600,3.55686767578125,-0.15635129809379578,-0.1347874402999878,-0.8176522850990295
1761316081842850600,3.5668505859375,-0.2592237591743469,0.13426759839057922,-0.5723754167556763
1761316081852833500,3.57683349609375,-0.36245906352996826,0.3536345660686493,-0.2925213873386383
1761316081862815700,3.586815673828125,-0.47235438227653503,0.4529796838760376,-0.017335504293441772
1761316081872798500,3.596798583984375,-0.5617638826370239,0.4611334800720215,0.22673627734184265
1761316081882781400,3.606781494140625,-0.5983917713165283,0.40710726380348206,0.42168495059013367
1761316081892763600,3.616763671875,-0.5701143145561218,0.27865689992904663,0.5877676606178284
1761316081902746400,3.626746337890625,-0.4819346070289612,0.14944063127040863,0.73652583360672
1761316081912729600,3.6367294921875,-0.3341163694858551,0.028474532067775726,0.9074898362159729
1761316081922711600,3.646711669921875,-0.14921070635318756,-0.11150923371315002,1.1182258129119873
1761316081932694500,3.656694580078125,0.03964203968644142,-0.25020506978034973,1.349053144454956
1761316081942677500,3.666677490234375,0.1853136122226715,-0.4078271985054016,1.5645389556884766
1761316081952659700,3.67665966796875,0.32297027111053467,-0.5633286237716675,1.745344877243042
1761316081962642400,3.686642333984375,0.4587220549583435,-0.7051469683647156,1.8807405233383179
1761316081972625400,3.69662548828125,0.5423080325126648,-0.8439189791679382,1.9736565351486206
1761316081982607600,3.706607666015625,0.5702936053276062,-0.9801031947135925,2.031096935272217
1761316081992590300,3.71659033203125,0.5542936325073242,-1.1209001541137695,2.0409352779388428
1761316082002573600,3.726573486328125,0.519044816493988,-1.2864052057266235,2.007929563522339
1761316082012555500,3.736555419921875,0.46655896306037903,-1.4533947706222534,1.941697359085083
1761316082022538500,3.74653857421875,0.40844792127609253,-1.5176039934158325,1.8280584812164307
1761316082032521500,3.756521484375,0.3622220754623413,-1.5259513854980469,1.6133283376693726
1761316082042504400,3.76650439453125,0.31799814105033875,-1.4840127229690552,1.3197039365768433
1761316082052486400,3.776486328125,0.2816241681575775,-1.3339017629623413,0.9893839955329895
1761316082062469400,3.786469482421875,0.2692326605319977,-1.130282998085022,0.6484713554382324
1761316082072452600,3.79645263671875,0.2651151418685913,-0.9391916990280151,0.3433074951171875
1761316082082434300,3.806434326171875,0.22818544507026672,-0.7408990859985352,0.10953320562839508
1761316082092417500,3.81641748046875,0.14001324772834778,-0.46135690808296204,-0.06348038464784622
1761316082102400500,3.826400390625,0.04516993463039398,-0.1502981185913086,-0.1833914965391159
1761316082112382500,3.836382568359375,-0.029378868639469147,0.16009382903575897,-0.24825944006443024
1761316082122365400,3.846365478515625,-0.06891798973083496,0.486507385969162,-0.3062409460544586
1761316082132348400,3.856348388671875,-0.09205367416143417,0.8024289011955261,-0.4191432595252991
1761316082142330400,3.866330322265625,-0.11195110529661179,1.0756102800369263,-0.5618703365325928
1761316082152313300,3.876313232421875,-0.09031877666711807,1.3440147638320923,-0.6669061779975891
1761316082162296600,3.886296630859375,0.03681696951389313,1.6607710123062134,-0.7452620267868042
1761316082172278500,3.896278564453125,0.22944314777851105,1.9273899793624878,-0.9371438026428223
1761316082182261500,3.906261474609375,0.2994619309902191,1.8371700048446655,-1.383921504020691
1761316082192244500,3.916244384765625,0.24935536086559296,1.1074618101119995,-2.077714204788208
1761316082202226400,3.926226318359375,0.16846837103366852,0.08069217950105667,-2.864811658859253
1761316082212209400,3.93620947265625,0.1019977405667305,-0.6353045105934143,-3.5251476764678955
1761316082222192600,3.946192626953125,0.025953389704227448,-0.7353511452674866,-3.784619092941284
1761316082232174300,3.95617431640625,-0.12145789712667465,-0.15324780344963074,-3.502791166305542
1761316082242157600,3.966157470703125,-0.2602480351924896,0.7091297507286072,-2.812905788421631
1761316082252140500,3.976140625,-0.1923222541809082,1.4173260927200317,-2.0430874824523926
1761316082262122800,3.986122802734375,0.09586112946271896,1.753296971321106,-1.4905214309692383
1761316082272105500,3.99610546875,0.43056347966194153,1.7125005722045898,-1.2379403114318848
1761316082282088400,4.00608837890625,0.6880443692207336,1.333275556564331,-1.1272385120391846
1761316082292070700,4.016070556640625,0.8150204420089722,0.721843421459198,-1.007852554321289
1761316082302053400,4.026053466796875,0.8179369568824768,-0.09079962968826294,-0.8731198906898499
1761316082312036600,4.03603662109375,0.7380554676055908,-1.0082929134368896,-0.7190679907798767
1761316082322018600,4.0460185546875,0.6173568367958069,-1.7236220836639404,-0.5479535460472107
1761316082332001500,4.05600146484375,0.5204494595527649,-1.9751113653182983,-0.4620613157749176
1761316082341984500,4.065984619140625,0.44075703620910645,-1.7106084823608398,-0.5569522380828857
1761316082351966700,4.075966796875,0.35483840107917786,-1.0558346509933472,-0.7852048873901367
1761316082361949400,4.085949462890625,0.24956727027893066,-0.18322964012622833,-1.0290273427963257
1761316082371932400,4.095932373046875,0.13625960052013397,0.6932584643363953,-1.2096562385559082
1761316082381914600,4.10591455078125,0.006167350336909294,1.3750543594360352,-1.285799264907837
1761316082391897300,4.1158974609375,-0.08394470065832138,1.7952582836151123,-1.2294996976852417
1761316082401880600,4.125880615234375,-0.10307911038398743,1.9426887035369873,-1.0191051959991455
1761316082411862500,4.135862548828125,-0.06574317812919617,1.8562507629394531,-0.6813415884971619
1761316082421845500,4.145845458984375,-0.010280695743858814,1.5933352708816528,-0.2752624452114105
1761316082431828500,4.155828369140625,0.030894706025719643,1.19180166721344,0.17090119421482086
1761316082441810700,4.165810791015625,0.07216846942901611,0.7343813180923462,0.6386247277259827
1761316082451793400,4.17579345703125,0.1358281373977661,0.27578362822532654,1.1173173189163208
1761316082461776400,4.1857763671875,0.21801310777664185,-0.09340551495552063,1.5670125484466553
1761316082471758600,4.195758544921875,0.30151864886283875,-0.3393886685371399,1.969612956047058
1761316082481741300,4.2057412109375,0.37210193276405334,-0.4749643802642822,2.3047947883605957
1761316082491724500,4.215724609375,0.43353894352912903,-0.49640733003616333,2.570737838745117
1761316082501706500,4.22570654296875,0.48079296946525574,-0.41881510615348816,2.7540030479431152
1761316082511690200,4.235690185546875,0.48108431696891785,-0.2867971658706665,2.861767292022705
1761316082521673200,4.245673095703125,0.44048628211021423,-0.09356323629617691,2.888972759246826
1761316082531655200,4.2556552734375,0.3786649703979492,0.07228884845972061,2.8590199947357178
1761316082541638100,4.26563818359375,0.31079500913619995,0.1854388415813446,2.7983522415161133
1761316082551621000,4.27562109375,0.25083205103874207,0.22257715463638306,2.7113397121429443
1761316082561603000,4.28560302734375,0.183354452252388,0.1706463098526001,2.5782105922698975
1761316082571586000,4.2955859375,0.10536058247089386,0.027642562985420227,2.424882173538208
1761316082581569300,4.3055693359375,-0.014064417220652103,-0.18170294165611267,2.2685329914093018
1761316082591551000,4.315551025390625,-0.16079233586788177,-0.43050506711006165,2.1198208332061768
1761316082601534200,4.3255341796875,-0.29819533228874207,-0.64341139793396,1.9420170783996582
1761316082611517200,4.33551708984375,-0.4227606952190399,-0.7474778294563293,1.7040913105010986
1761316082621499100,4.3454990234375,-0.5189757943153381,-0.7530474662780762,1.416832685470581
1761316082631482000,4.355482177734375,-0.5819070935249329,-0.7492942810058594,1.1040462255477905
1761316082641465000,4.365465087890625,-0.6091590523719788,-0.7725198864936829,0.7550135850906372
1761316082651447000,4.375447021484375,-0.5964999794960022,-0.7539179921150208,0.3749544024467468
1761316082661430000,4.385429931640625,-0.5231111645698547,-0.6471722722053528,0.017320243641734123
1761316082671413200,4.395413330078125,-0.382992148399353,-0.4542659819126129,-0.19181087613105774
1761316082681395000,4.40539501953125,-0.263649582862854,-0.08089980483055115,-0.2863539159297943
1761316082691378200,4.415378173828125,-0.2860555648803711,0.4252576529979706,-0.27821850776672363
1761316082701361200,4.425361083984375,-0.43721556663513184,0.9013224244117737,-0.0931757315993309
1761316082711343000,4.435343017578125,-0.5806973576545715,1.19644033908844,0.17407141625881195
1761316082721326000,4.445326171875,-0.6172778010368347,1.1164730787277222,0.29008370637893677
1761316082731309000,4.45530908203125,-0.5424482822418213,0.5033364295959473,-0.07399756461381912
1761316082741291000,4.465291015625,-0.39501941204071045,-0.4716790020465851,-1.0779435634613037
1761316082751274000,4.47527392578125,-0.10895518958568573,-1.2269251346588135,-2.4325010776519775
1761316082761257200,4.48525732421875,0.2531554102897644,-1.3723220825195312,-3.442917585372925
1761316082771240200,4.495240234375,0.48139896988868713,-1.0127161741256714,-3.7291245460510254
1761316082781222100,4.50522216796875,0.5403403639793396,-0.36979156732559204,-3.33994460105896
1761316082791205000,4.515205078125,0.520283579826355,0.356084406375885,-2.5818402767181396
1761316082801188400,4.525188232421875,0.5118952393531799,0.9162694215774536,-1.875565528869629
1761316082811170000,4.535170166015625,0.5874504446983337,1.1134690046310425,-1.4863914251327515
1761316082821153300,4.5451533203125,0.6951082348823547,1.0088638067245483,-1.3888473510742188
1761316082831136300,4.55513623046875,0.7529246807098389,0.5983705520629883,-1.4567837715148926
1761316082841118200,4.5651181640625,0.7053397297859192,0.004460892174392939,-1.5482999086380005
1761316082851101200,4.57510107421875,0.5730575919151306,-0.6515196561813354,-1.5721349716186523
1761316082861084200,4.585084228515625,0.4348466098308563,-1.229556918144226,-1.579746961593628
1761316082871066000,4.595066162109375,0.29205936193466187,-1.5203360319137573,-1.6677180528640747
1761316082881049000,4.605049072265625,0.2021586149930954,-1.479174256324768,-1.7821497917175293
1761316082891032300,4.6150322265625,0.15735997259616852,-1.193603515625,-1.8631306886672974
1761316082901014000,4.625013916015625,0.12014272063970566,-0.7656353712081909,-1.8583711385726929
1761316082910997200,4.634997314453125,0.08655653148889542,-0.27910566329956055,-1.736197829246521
1761316082920980200,4.644980224609375,0.0696161538362503,0.12462273985147476,-1.5164196491241455
1761316082930962200,4.654962158203125,0.05340975150465965,0.3923551142215729,-1.2121769189834595
1761316082940945200,4.664945068359375,0.007210007403045893,0.5201563835144043,-0.853748083114624
1761316082950928100,4.67492822265625,-0.0703180730342865,0.5515848994255066,-0.4650447964668274
1761316082960910000,4.68491015625,-0.17374899983406067,0.511045515537262,-0.08150333166122437
1761316082970893000,4.69489306640625,-0.2645486891269684,0.40820541977882385,0.28192758560180664
1761316082980876300,4.704876220703125,-0.3253884017467499,0.25115111470222473,0.6318951845169067
1761316082990858000,4.71485791015625,-0.36224523186683655,0.0878002792596817,0.9446975588798523
1761316083000841200,4.72484130859375,-0.3570973575115204,-0.05855248123407364,1.210524082183838
1761316083010824200,4.73482421875,-0.3103066682815552,-0.19570448994636536,1.3947386741638184
1761316083020806100,4.74480615234375,-0.22289465367794037,-0.2785014510154724,1.5054068565368652
1761316083030789000,4.7547890625,-0.11319717764854431,-0.2758771479129791,1.571101427078247
1761316083040772000,4.764772216796875,0.02643020823597908,-0.17530463635921478,1.6052926778793335
1761316083050754000,4.774754150390625,0.18607445061206818,-0.020368054509162903,1.620886206626892
1761316083060737000,4.784737060546875,0.33445870876312256,0.1747245043516159,1.6349552869796753
1761316083070720300,4.79472021484375,0.4378301203250885,0.3565220236778259,1.6576851606369019
1761316083080702000,4.804701904296875,0.47970861196517944,0.475055068731308,1.6719075441360474
1761316083090685200,4.814685302734375,0.45235475897789,0.44791293144226074,1.6783989667892456
1761316083100668200,4.824668212890625,0.3490327000617981,0.26974600553512573,1.6519875526428223
1761316083110650000,4.834650146484375,0.22577761113643646,0.04141724109649658,1.5821282863616943
1761316083120633000,4.844633056640625,0.09198904782533646,-0.18491864204406738,1.478670358657837
1761316083130616000,4.854615966796875,-0.057489387691020966,-0.3745484948158264,1.3370932340621948
1761316083140598000,4.864597900390625,-0.20842213928699493,-0.48272109031677246,1.157921314239502
1761316083150581200,4.874581298828125,-0.3466112017631531,-0.5157908797264099,0.9599490165710449
1761316083160564200,4.884564208984375,-0.46528664231300354,-0.5315466523170471,0.7621660232543945
1761316083170546200,4.894546142578125,-0.5494961142539978,-0.5555861592292786,0.5738317966461182
1761316083180529200,4.904529052734375,-0.5849643349647522,-0.5576394200325012,0.4032486379146576
1761316083190512000,4.91451220703125,-0.5476002097129822,-0.49222153425216675,0.3265877068042755
1761316083200494000,4.924494140625,-0.4739139676094055,-0.2351137101650238,0.3533440828323364
1761316083210477000,4.93447705078125,-0.45848867297172546,0.13153406977653503,0.5189761519432068
1761316083220460300,4.944460205078125,-0.47934991121292114,0.5315026044845581,0.7885589003562927
1761316083230442000,4.95444189453125,-0.42217209935188293,0.8629814386367798,0.9764236211776733
1761316083240425200,4.96442529296875,-0.2336193174123764,1.0327733755111694,0.9212527275085449
1761316083250408200,4.974408203125,-0.049310460686683655,0.7165473103523254,0.415117084980011
1761316083260390100,4.98439013671875,0.026792414486408234,-0.25244924426078796,-0.6212917566299438
1761316083270373000,4.994373046875,0.14399494230747223,-1.2629505395889282,-1.9197129011154175
1761316083280356000,5.004356201171875,0.421051949262619,-1.710435390472412,-2.990482807159424
1761316083290338000,5.014338134765625,0.6581135392189026,-1.4695473909378052,-3.345907688140869
1761316083300321000,5.024321044921875,0.6726841926574707,-0.7723658680915833,-2.7684342861175537
1761316083310304300,5.03430419921875,0.639113187789917,0.1328103393316269,-1.577893853187561
1761316083320286000,5.044285888671875,0.7461377382278442,0.9593833684921265,-0.43269097805023193
1761316083330269200,5.054269287109375,0.9020698070526123,1.4203884601593018,0.05182590335607529
1761316083340252200,5.064252197265625,0.9777182936668396,1.6993423700332642,-0.09076914936304092
1761316083350234000,5.074234130859375,0.8803541660308838,1.8322263956069946,-0.5470829010009766
1761316083360217000,5.084217041015625,0.5787806510925293,1.7950451374053955,-1.0254768133163452
1761316083370200000,5.094199951171875,0.17217828333377838,1.5727475881576538,-1.3790063858032227
1761316083380182000,5.10418212890625,-0.2250061333179474,1.2576043605804443,-1.5644737482070923
1761316083390165000,5.1141650390625,-0.49575507640838623,0.8850694298744202,-1.6107487678527832
1761316083400148200,5.124148193359375,-0.5872703194618225,0.4949991703033447,-1.5349538326263428
1761316083410130000,5.1341298828125,-0.5272243022918701,0.0816909521818161,-1.3622525930404663
1761316083420113200,5.144113037109375,-0.3772764801979065,-0.29178598523139954,-1.1195815801620483
1761316083430096100,5.15409619140625,-0.2176830917596817,-0.5498231053352356,-0.8346636295318604
1761316083440078000,5.164078125,-0.08454220741987228,-0.6808925271034241,-0.5489689111709595
1761316083450061000,5.17406103515625,-0.02676493488252163,-0.7358649373054504,-0.31072384119033813
1761316083460044000,5.1840439453125,-0.032822251319885254,-0.6957753300666809,-0.12130196392536163
1761316083470026200,5.194026123046875,-0.10316112637519836,-0.574435293674469,0.019831988960504532
1761316083480009000,5.204009033203125,-0.21559055149555206,-0.4151760935783386,0.12760286033153534
1761316083489992200,5.2139921875,-0.3330990672111511,-0.2576141655445099,0.21288660168647766
1761316083499974100,5.22397412109375,-0.4247269332408905,-0.12120524793863297,0.2820073664188385
1761316083509956600,5.23395654296875,-0.4824400544166565,-0.03853300213813782,0.35864007472991943
1761316083519939300,5.243939208984375,-0.4998219609260559,-0.05284286290407181,0.43581438064575195
1761316083529921500,5.253921630859375,-0.4989737570285797,-0.1355356127023697,0.5225124955177307
1761316083539904500,5.263904541015625,-0.4881047308444977,-0.24032807350158691,0.6065918207168579
1761316083549887500,5.273887451171875,-0.4705513119697571,-0.3313746154308319,0.664340615272522
1761316083559869400,5.283869384765625,-0.4714314341545105,-0.3789643347263336,0.6753846406936646
1761316083569852700,5.293852783203125,-0.4779125154018402,-0.3448692262172699,0.6681397557258606
1761316083579835400,5.30383544921875,-0.4920017719268799,-0.2600342035293579,0.6438477039337158
1761316083589817600,5.313817626953125,-0.5254396200180054,-0.11820729821920395,0.5847654938697815
1761316083599800600,5.323800537109375,-0.5896688103675842,0.09512799233198166,0.5144588351249695
1761316083609783300,5.333783203125,-0.6632199883460999,0.32565999031066895,0.4458361268043518
1761316083619765500,5.343765625,-0.7243088483810425,0.498493492603302,0.38908860087394714
1761316083629748500,5.35374853515625,-0.7429813742637634,0.6244814991950989,0.35067811608314514
1761316083639731500,5.3637314453125,-0.7340863347053528,0.7241473197937012,0.34046706557273865
1761316083649713400,5.37371337890625,-0.7036924958229065,0.7784761190414429,0.3561360538005829
1761316083659696600,5.383696533203125,-0.6593610048294067,0.8091834783554077,0.3646155297756195
1761316083669679400,5.393679443359375,-0.5979719758033752,0.8482592105865479,0.34165000915527344
1761316083679661600,5.40366162109375,-0.5513602495193481,0.8720311522483826,0.2853635847568512
1761316083689644500,5.41364453125,-0.5521267056465149,0.8239349722862244,0.20808053016662598
1761316083699627500,5.42362744140625,-0.5831471085548401,0.6400440335273743,0.10976551473140717
1761316083709609500,5.433609375,-0.629774808883667,0.37183597683906555,-0.008663926273584366
1761316083719592400,5.443592529296875,-0.6756042838096619,0.1470116376876831,-0.1326761394739151
1761316083729575400,5.453575439453125,-0.7106147408485413,0.03224910423159599,-0.17889264225959778
1761316083739557600,5.4635576171875,-0.6794069409370422,-0.014390507712960243,-0.036924947053194046
1761316083749540600,5.47354052734375,-0.5501629710197449,-0.004086204804480076,0.2854357957839966
1761316083759523600,5.483523681640625,-0.39519935846328735,0.02329745888710022,0.5778259038925171
1761316083769505500,5.493505615234375,-0.39162006974220276,0.05729750543832779,0.7050816416740417
1761316083779488500,5.503488525390625,-0.5446257591247559,0.04737168550491333,0.6187562942504883
1761316083789471700,5.5134716796875,-0.6594048142433167,-0.18659260869026184,0.23161013424396515
1761316083799453400,5.523453369140625,-0.6604034900665283,-0.6605056524276733,-0.5241988897323608
1761316083809436700,5.533436767578125,-0.5908291935920715,-1.195418119430542,-1.4671690464019775
1761316083819419600,5.543419677734375,-0.4356789290904999,-1.4910880327224731,-2.0816292762756348
1761316083829401600,5.553401611328125,-0.23967614769935608,-1.4525084495544434,-2.041066884994507
1761316083839384600,5.563384521484375,-0.011583198793232441,-1.0825281143188477,-1.3227170705795288
1761316083849367600,5.573367431640625,0.24140964448451996,-0.4357995092868805,-0.31866025924682617
1761316083859349500,5.583349609375,0.45387640595436096,0.2203892022371292,0.4830384850502014
1761316083869332500,5.59333251953125,0.5663488507270813,0.6536953449249268,0.7962446212768555
1761316083879315700,5.603315673828125,0.5878148078918457,0.9193387031555176,0.7019330263137817
1761316083889297400,5.61329736328125,0.544539213180542,1.019489049911499,0.3509707748889923
1761316083899280600,5.62328076171875,0.45676347613334656,1.0031489133834839,-0.06441059708595276
1761316083909263600,5.633263671875,0.3585450351238251,0.9078837037086487,-0.37619778513908386
1761316083919245600,5.64324560546875,0.2286270558834076,0.6701464653015137,-0.520233690738678
1761316083929228500,5.653228515625,0.04175703600049019,0.29921314120292664,-0.5064710378646851
1761316083939211500,5.66321142578125,-0.1860762983560562,-0.12828329205513,-0.4113480746746063
1761316083949193500,5.673193359375,-0.4303094744682312,-0.5324422121047974,-0.33408844470977783
1761316083959176400,5.683176513671875,-0.6462951898574829,-0.8044825196266174,-0.32862767577171326
1761316083969159700,5.69315966796875,-0.7869148850440979,-0.8390234112739563,-0.3777227997779846
1761316083979141400,5.703141357421875,-0.8404533863067627,-0.7204220294952393,-0.44349443912506104
1761316083989124600,5.71312451171875,-0.8246847987174988,-0.5111569166183472,-0.49617999792099
1761316083999106300,5.723106201171875,-0.7745994925498962,-0.2933073937892914,-0.5070953965187073
1761316084009089500,5.733089599609375,-0.695560872554779,-0.11771427094936371,-0.48699304461479187
1761316084019072500,5.743072509765625,-0.6078247427940369,-0.024172604084014893,-0.43748578429222107
1761316084029054500,5.753054443359375,-0.5408102869987488,-0.00350461108610034,-0.3507210612297058
1761316084039037400,5.763037353515625,-0.5037198662757874,-0.020331794396042824,-0.19247578084468842
1761316084049020400,5.7730205078125,-0.4778720438480377,-0.02397313341498375,0.010146839544177055
1761316084059002400,5.78300244140625,-0.4644491374492645,-0.031420137733221054,0.23998458683490753
1761316084068985300,5.7929853515625,-0.45405906438827515,-0.031067002564668655,0.46489840745925903
1761316084078968600,5.802968505859375,-0.42582255601882935,-0.007222597952932119,0.6577308773994446
1761316084088950300,5.8129501953125,-0.3592747151851654,0.037544071674346924,0.8372593522071838
1761316084098933500,5.82293359375,-0.2878521978855133,0.07128707319498062,0.9946150779724121
1761316084108916500,5.83291650390625,-0.24928270280361176,0.07784217596054077,1.0987423658370972
1761316084118898700,5.842898681640625,-0.25274658203125,0.04965788125991821,1.1417691707611084
1761316084128881400,5.85288134765625,-0.29125189781188965,-0.0033486108295619488,1.125073790550232
1761316084138864600,5.86286474609375,-0.36942312121391296,-0.0513187013566494,1.0464951992034912
1761316084148846600,5.8728466796875,-0.4674738049507141,-0.09026236832141876,0.9103285670280457
1761316084158829600,5.88282958984375,-0.5650249719619751,-0.09697595238685608,0.7313093543052673
1761316084168812500,5.8928125,-0.6170626282691956,-0.05182711407542229,0.5432505011558533
1761316084178794500,5.90279443359375,-0.6193307638168335,0.012622660957276821,0.38988736271858215
1761316084188777500,5.912777587890625,-0.5834422707557678,0.07718540728092194,0.29440662264823914
1761316084198760400,5.922760498046875,-0.5394355058670044,0.10257046669721603,0.2795986831188202
1761316084208742700,5.93274267578125,-0.513469934463501,0.10381842404603958,0.31527623534202576
1761316084218725400,5.942725341796875,-0.49702855944633484,0.10997830331325531,0.3933330178260803
1761316084228708600,5.95270849609375,-0.46359148621559143,0.1459283083677292,0.4874022603034973
1761316084238690600,5.962690673828125,-0.4053162634372711,0.22180688381195068,0.5473167896270752
1761316084248673500,5.972673583984375,-0.3658340871334076,0.2950792610645294,0.5420405268669128
1761316084258656500,5.982656494140625,-0.341472327709198,0.27828338742256165,0.42950019240379333
1761316084268638700,5.992638671875,-0.2573481500148773,0.29113900661468506,0.21279823780059814
1761316084278621400,6.002621337890625,-0.12058354169130325,0.47829073667526245,-0.0213223434984684
1761316084288604400,6.0126044921875,-0.04396945610642433,0.5397999286651611,-0.26933160424232483
1761316084298586600,6.022586669921875,-0.08790557831525803,0.4218551814556122,-0.4702589213848114
1761316084308569300,6.0325693359375,-0.19446717202663422,0.36889901757240295,-0.4735245108604431
1761316084318552600,6.042552490234375,-0.19677838683128357,0.3442738950252533,-0.19884765148162842
1761316084328534500,6.052534423828125,0.006213615648448467,0.2858891487121582,0.32953521609306335
1761316084338517500,6.062517578125,0.3717888295650482,0.24074433743953705,0.986545205116272
1761316084348500500,6.07250048828125,0.7211068272590637,0.13382108509540558,1.5797611474990845
1761316084358482700,6.082482666015625,0.8685221672058105,-0.10699023306369781,1.905281662940979
1761316084368465400,6.09246533203125,0.7915182113647461,-0.29924407601356506,1.9640132188796997
1761316084378448400,6.102448486328125,0.5595023036003113,-0.42148953676223755,1.81850004196167
1761316084388430600,6.1124306640625,0.2751651406288147,-0.45225146412849426,1.5015041828155518
1761316084398413300,6.122413330078125,0.056540802121162415,-0.3370889723300934,1.029015064239502
1761316084408396500,6.132396484375,-0.06479601562023163,-0.0893460214138031,0.47933512926101685
1761316084418378500,6.14237841796875,-0.14015306532382965,0.2331378012895584,-0.07696477323770523
1761316084428361500,6.152361572265625,-0.20182335376739502,0.545242965221405,-0.5852735042572021
1761316084438344400,6.162344482421875,-0.2566864788532257,0.834613561630249,-1.0180027484893799
1761316084448326700,6.17232666015625,-0.2680043876171112,1.0355852842330933,-1.3480395078659058
1761316084458309400,6.182309326171875,-0.2310391217470169,1.079254388809204,-1.5404366254806519
1761316084468292400,6.192292236328125,-0.1825711876153946,1.007607102394104,-1.5814220905303955
1761316084478274600,6.202274658203125,-0.14603620767593384,0.8760992288589478,-1.4982181787490845
1761316084488257500,6.212257568359375,-0.1682610809803009,0.770061731338501,-1.2575833797454834
1761316084498240500,6.222240478515625,-0.2731366455554962,0.6949171423912048,-0.8536236882209778
1761316084508222700,6.23222265625,-0.42679011821746826,0.6070759892463684,-0.32059386372566223
1761316084518206000,6.2422060546875,-0.6156870722770691,0.508713960647583,0.22133639454841614
1761316084528188700,6.252188720703125,-0.7768000960350037,0.4483640491962433,0.661543071269989
1761316084538171000,6.2621708984375,-0.8844614028930664,0.44744259119033813,0.9455083608627319
1761316084548153900,6.27215380859375,-0.9261054992675781,0.45380061864852905,1.0532101392745972
1761316084558136600,6.282136474609375,-0.9199201464653015,0.42535415291786194,1.0261811017990112
1761316084568118800,6.292118896484375,-0.856749951839447,0.38190868496894836,0.944582998752594
1761316084578101800,6.302101806640625,-0.7374252080917358,0.3285800814628601,0.8710283637046814
1761316084588084700,6.312084716796875,-0.5539169311523438,0.3015655279159546,0.8358280062675476
1761316084598066700,6.322066650390625,-0.35304588079452515,0.2990153133869171,0.832268238067627
1761316084608050000,6.3320498046875,-0.19972370564937592,0.2559993863105774,0.8320607542991638
1761316084618032600,6.34203271484375,-0.11179590970277786,0.16649062931537628,0.8127298355102539
1761316084628014800,6.352014892578125,-0.09876532852649689,0.070650115609169,0.7802931070327759
1761316084637997800,6.361997802734375,-0.13516901433467865,0.04352400451898575,0.7371223568916321
1761316084647979800,6.371979736328125,-0.22378703951835632,0.057941824197769165,0.6761295795440674
1761316084657962800,6.381962646484375,-0.31636396050453186,0.08739197999238968,0.6108253002166748
1761316084667946000,6.391946044921875,-0.376980721950531,0.15330387651920319,0.5645052194595337
1761316084677927700,6.401927734375,-0.39425814151763916,0.2741219401359558,0.5389028191566467
1761316084687911000,6.411910888671875,-0.3715541660785675,0.4573032259941101,0.5087656378746033
1761316084697894000,6.421893798828125,-0.34493643045425415,0.5738608837127686,0.44437268376350403
1761316084707875800,6.431875732421875,-0.3306712210178375,0.5696331262588501,0.3527386486530304
1761316084717858800,6.44185888671875,-0.32528603076934814,0.43347764015197754,0.26453980803489685
1761316084727841800,6.451841796875,-0.29685306549072266,0.22298721969127655,0.21124303340911865
1761316084737823700,6.46182373046875,-0.2698269486427307,0.008726831525564194,0.1805538386106491
1761316084747806700,6.471806640625,-0.21193598210811615,-0.1822013109922409,0.1302611082792282
1761316084757790000,6.4817900390625,-0.10777018964290619,-0.3235675096511841,0.06012643873691559
1761316084767771600,6.491771728515625,0.04805935546755791,-0.3826771676540375,-0.006793739274144173
1761316084777755000,6.5017548828125,0.19156606495380402,-0.4206344187259674,-0.09240815043449402
1761316084787737900,6.51173779296875,0.24927301704883575,-0.477973073720932,-0.24736469984054565
1761316084797719800,6.5217197265625,0.23151277005672455,-0.4397452473640442,-0.4898166358470917
1761316084807702800,6.531702880859375,0.19475848972797394,-0.2685801684856415,-0.8019137978553772
1761316084817685800,6.541685791015625,0.16575652360916138,-0.0033754073083400726,-1.083864450454712
1761316084827667700,6.551667724609375,0.11195746809244156,0.20401853322982788,-1.2614587545394897
1761316084837650700,6.561650634765625,0.008913208730518818,0.24540427327156067,-1.3482967615127563
1761316084847634000,6.571634033203125,-0.09719298779964447,0.2462216019630432,-1.352482795715332
1761316084857615600,6.58161572265625,-0.16491593420505524,0.19640539586544037,-1.215890645980835
1761316084867598800,6.591598876953125,-0.17462687194347382,0.047284357249736786,-0.8791290521621704
1761316084877581800,6.601581787109375,-0.17796200513839722,-0.1881900131702423,-0.4119414985179901
1761316084887563800,6.611563720703125,-0.20075039565563202,-0.5023716688156128,-0.027145879343152046
1761316084897546800,6.621546630859375,-0.2023589015007019,-0.855175256729126,0.11985158920288086
1761316084907529700,6.63152978515625,-0.16006524860858917,-1.0204657316207886,0.08123601973056793
1761316084917511700,6.64151171875,-0.08093709498643875,-0.816031277179718,-0.03609137982130051
1761316084927494700,6.65149462890625,-0.02568582259118557,-0.4258526563644409,-0.21944256126880646
1761316084937478000,6.661477783203125,0.018103014677762985,-0.08492111414670944,-0.4183480441570282
1761316084947459600,6.67145947265625,0.05199972912669182,0.09499698877334595,-0.5827100872993469
1761316084957442800,6.68144287109375,0.05188307166099548,0.09507935494184494,-0.6909826397895813
1761316084967425800,6.69142578125,-0.02221166156232357,-0.11441954225301743,-0.733218789100647
1761316084977407700,6.70140771484375,-0.13468186557292938,-0.4964233934879303,-0.6944496631622314
1761316084987390700,6.711390625,-0.20862986147403717,-0.8866012096405029,-0.5949651598930359
1761316084997373700,6.721373779296875,-0.22913575172424316,-1.2115634679794312,-0.4596318006515503
1761316085007355600,6.731355712890625,-0.17177338898181915,-1.3985352516174316,-0.3048430383205414
1761316085017339000,6.7413388671875,-0.06511366367340088,-1.374935507774353,-0.16730333864688873
1761316085027320800,6.75132080078125,0.03409814089536667,-1.1382907629013062,-0.1334039568901062
1761316085037303800,6.7613037109375,0.10180818289518356,-0.7397325038909912,-0.22570465505123138
1761316085047286800,6.771286865234375,0.10522209107875824,-0.26720917224884033,-0.40482911467552185
1761316085057268700,6.781268798828125,0.027330884709954262,0.2007308453321457,-0.6700090169906616
1761316085067252000,6.791251953125,-0.08867667615413666,0.5871491432189941,-0.9549555778503418
1761316085077234700,6.801234619140625,-0.22279734909534454,0.823652982711792,-1.1809004545211792
1761316085087217000,6.811216796875,-0.3677569329738617,0.863105058670044,-1.2760714292526245
1761316085097199900,6.821199951171875,-0.4128025770187378,0.7764816880226135,-1.1679879426956177
1761316085107182800,6.831182861328125,-0.3316240906715393,0.6007658243179321,-0.8612688779830933
1761316085117164800,6.841164794921875,-0.20928402245044708,0.4338781237602234,-0.4072956144809723
1761316085127148000,6.85114794921875,-0.10416027158498764,0.28196981549263,0.13874214887619019
1761316085137130800,6.861130859375,-0.05524143949151039,0.13694551587104797,0.6565395593643188
1761316085147113000,6.871113037109375,-0.05937546491622925,-0.006956258323043585,1.0180447101593018
1761316085157096000,6.881095947265625,-0.12114419043064117,-0.1888440102338791,1.1949485540390015
1761316085167078700,6.89107861328125,-0.22042790055274963,-0.3106154501438141,1.2091416120529175
1761316085177060900,6.901060791015625,-0.35059255361557007,-0.3536604046821594,1.081364631652832
1761316085187043800,6.9110439453125,-0.4692305326461792,-0.31951361894607544,0.8482531905174255
1761316085197026800,6.92102685546875,-0.5240005850791931,-0.1399705410003662,0.5350344777107239
1761316085207008800,6.9310087890625,-0.519385039806366,0.13614732027053833,0.18724294006824493
1761316085216992000,6.940991943359375,-0.48486360907554626,0.41967153549194336,-0.10588419437408447
1761316085226974700,6.950974609375,-0.42070910334587097,0.6378584504127502,-0.29758012294769287
1761316085236957000,6.96095703125,-0.30392739176750183,0.7601448893547058,-0.3932221233844757
1761316085246940000,6.97093994140625,-0.1578301042318344,0.7878406643867493,-0.4103398621082306
1761316085256922600,6.980922607421875,-0.05058082193136215,0.6264494061470032,-0.3692690134048462
1761316085266904800,6.99090478515625,-0.03800643980503082,0.36203107237815857,-0.32528769969940186
1761316085276887800,7.0008876953125,-0.10315275192260742,0.16279973089694977,-0.3026607632637024
1761316085286870800,7.010870849609375,-0.1988624930381775,0.025432812049984932,-0.33852291107177734
1761316085296852700,7.020852783203125,-0.31008443236351013,-0.03331573307514191,-0.38670676946640015
1761316085306836000,7.0308359375,-0.41020649671554565,0.11309048533439636,-0.3748184144496918
1761316085316818700,7.040818603515625,-0.5303021669387817,0.3879353702068329,-0.41678011417388916
1761316085326801000,7.05080078125,-0.7004011869430542,0.653135359287262,-0.6281818747520447
1761316085336784000,7.060783935546875,-0.8337257504463196,0.7044459581375122,-1.0409009456634521
1761316085346765800,7.070765869140625,-0.8848333954811096,0.6328791379928589,-1.5879470109939575
1761316085356748800,7.080748779296875,-0.8090362548828125,0.524908185005188,-2.0319974422454834
1761316085366731800,7.090731689453125,-0.568928599357605,0.43717753887176514,-2.0799317359924316
1761316085376713700,7.100713623046875,-0.21095775067806244,0.4205881953239441,-1.6960012912750244
1761316085386696700,7.11069677734375,0.10436052829027176,0.3693210184574127,-1.0650885105133057
1761316085396680000,7.120679931640625,0.23135371506214142,0.05754925310611725,-0.4122163653373718
1761316085406661600,7.13066162109375,0.22841252386569977,-0.3483937382698059,0.16998764872550964
1761316085416644900,7.140644775390625,0.17324435710906982,-0.7546525597572327,0.6162165999412537
1761316085426627800,7.1506279296875,0.12151805311441422,-1.1076334714889526,0.8601083159446716
1761316085436609800,7.16060986328125,0.12734583020210266,-1.3145148754119873,0.8816807270050049
1761316085446592800,7.1705927734375,0.15657003223896027,-1.3311010599136353,0.6692129373550415
1761316085456575700,7.18057568359375,0.13975803554058075,-1.2129948139190674,0.22906248271465302
1761316085466557700,7.1905576171875,0.055201079696416855,-1.056994080543518,-0.4113718271255493
1761316085476541000,7.200541015625,0.010496760718524456,-0.8472205996513367,-1.0755672454833984
1761316085486524000,7.21052392578125,0.15631762146949768,-0.5583272576332092,-1.5951288938522339
1761316085496505900,7.220505859375,0.3743549585342407,-0.34488341212272644,-1.960585594177246
1761316085506488800,7.23048876953125,0.5569639205932617,-0.19258655607700348,-2.1606245040893555
1761316085516472000,7.24047216796875,0.6540834307670593,-0.04940228536725044,-2.1984663009643555
1761316085526454300,7.250454345703125,0.6384434700012207,0.08501411974430084,-2.077552080154419
1761316085536437000,7.26043701171875,0.4928056299686432,0.2156083732843399,-1.801437497138977
1761316085546420200,7.270420166015625,0.2274157851934433,0.2725297212600708,-1.3940316438674927
1761316085556402200,7.280402099609375,-0.053416021168231964,0.2867603003978729,-0.8878298997879028
1761316085566385200,7.29038525390625,-0.27073633670806885,0.2701898515224457,-0.3524665832519531
1761316085576368000,7.3003681640625,-0.3850741982460022,0.2531595230102539,0.12824837863445282
1761316085586350000,7.31035009765625,-0.42441442608833313,0.2213382124900818,0.4885735511779785
1761316085596333000,7.3203330078125,-0.37017786502838135,0.18711520731449127,0.7584584355354309
1761316085606315000,7.33031494140625,-0.23473401367664337,0.15647953748703003,0.9736594557762146
1761316085616298200,7.34029833984375,-0.06114000454545021,0.13520435988903046,1.1501495838165283
1761316085626281000,7.350281005859375,0.08315778523683548,0.054729487746953964,1.308721661567688
1761316085636263200,7.36026318359375,0.14805005490779877,-0.061503879725933075,1.462525725364685
1761316085646246100,7.37024609375,0.10673590749502182,-0.19830752909183502,1.580510139465332
1761316085656229400,7.3802294921875,-0.007392731960862875,-0.28915730118751526,1.6354269981384277
1761316085666211000,7.390211181640625,-0.15278242528438568,-0.2831723690032959,1.6052757501602173
1761316085676194300,7.4001943359375,-0.299833208322525,-0.16550028324127197,1.5059893131256104
1761316085686177300,7.41017724609375,-0.4153826832771301,0.034058354794979095,1.3450223207473755
1761316085696159200,7.4201591796875,-0.4895097315311432,0.26625046133995056,1.127203106880188
1761316085706142200,7.43014208984375,-0.506441056728363,0.46912288665771484,0.8933449387550354
1761316085716125200,7.440125244140625,-0.48182886838912964,0.6103041172027588,0.6668301820755005
1761316085726107100,7.450107177734375,-0.44347402453422546,0.6559791564941406,0.4597683846950531
1761316085736090000,7.460090087890625,-0.39425128698349,0.6660440564155579,0.28535324335098267
1761316085746073300,7.4700732421875,-0.3191269636154175,0.633968710899353,0.16592484712600708
1761316085756055000,7.480054931640625,-0.24567295610904694,0.5786304473876953,0.11616301536560059
1761316085766038300,7.490038330078125,-0.17704728245735168,0.548987627029419,0.14866743981838226
1761316085776021200,7.500021240234375,-0.12662114202976227,0.5237265229225159,0.21559695899486542
1761316085786003200,7.510003173828125,-0.11343210935592651,0.4313909709453583,0.2643309235572815
1761316085795986200,7.519986083984375,-0.1685427725315094,0.24565209448337555,0.25400519371032715
1761316085805969200,7.52996923828125,-0.22906923294067383,0.09949035197496414,0.1983557641506195
1761316085815951000,7.539951171875,-0.2538844048976898,-0.012529177591204643,0.09808888286352158
1761316085825934000,7.54993408203125,-0.2445998340845108,-0.14872509241104126,-0.012819262221455574
1761316085835917300,7.559917236328125,-0.21547406911849976,-0.1728769838809967,-0.09690464287996292
1761316085845899000,7.56989892578125,-0.15165460109710693,-0.20965205132961273,-0.14717528223991394
1761316085855882200,7.57988232421875,-0.09475601464509964,-0.46142226457595825,-0.24313974380493164
1761316085865864000,7.589864013671875,-0.08193448930978775,-0.8412925601005554,-0.4195413887500763
1761316085875847200,7.59984716796875,-0.06626667082309723,-1.0789843797683716,-0.5992575883865356
1761316085885830100,7.609830078125,-0.06446424126625061,-1.1044710874557495,-0.7283857464790344
1761316085895812000,7.61981201171875,-0.12983496487140656,-0.9994543790817261,-0.8021483421325684
1761316085905795000,7.629795166015625,-0.23797447979450226,-0.8370721340179443,-0.8806695342063904
1761316085915778000,7.639778076171875,-0.30901554226875305,-0.6597065329551697,-0.9700220823287964
1761316085925760000,7.649760009765625,-0.309878408908844,-0.3371410369873047,-1.0210472345352173
1761316085935743000,7.659742919921875,-0.28376269340515137,0.047134436666965485,-0.974296510219574
1761316085945726200,7.669726318359375,-0.3153616189956665,0.3004327416419983,-0.8597193360328674
1761316085955708000,7.6797080078125,-0.4130338430404663,0.3650459349155426,-0.7665224075317383
1761316085965691100,7.689691162109375,-0.5333911180496216,0.2366272211074829,-0.7912916541099548
1761316085975674000,7.699674072265625,-0.6647547483444214,-0.05682947486639023,-0.9159851670265198
1761316085985656000,7.709656005859375,-0.7682113647460938,-0.3857956528663635,-1.0301014184951782
1761316085995639000,7.71963916015625,-0.8247484564781189,-0.6218276023864746,-1.079044222831726
1761316086005622300,7.729622314453125,-0.8446071147918701,-0.8074379563331604,-1.0663872957229614
1761316086015604200,7.739604248046875,-0.833320140838623,-0.8840800523757935,-0.9536259174346924
1761316086025587200,7.749587158203125,-0.7823387384414673,-0.8518877625465393,-0.7771672606468201
1761316086035570200,7.759570068359375,-0.7028588056564331,-0.7889998555183411,-0.5608139038085938
1761316086045552000,7.76955224609375,-0.6436055898666382,-0.7316625714302063,-0.3339274823665619
1761316086055535000,7.77953515625,-0.622800886631012,-0.718255877494812,-0.12350645661354065
1761316086065517300,7.789517333984375,-0.6261836290359497,-0.6998193264007568,0.05424010008573532
1761316086075500300,7.799500244140625,-0.6353957653045654,-0.6275617480278015,0.19302166998386383
1761316086085483000,7.80948291015625,-0.6438257098197937,-0.5032530426979065,0.24891342222690582
1761316086095465200,7.81946533203125,-0.6372349858283997,-0.3355192542076111,0.2211676388978958
1761316086105448200,7.8294482421875,-0.6054936051368713,-0.16024063527584076,0.12834316492080688
1761316086115431200,7.83943115234375,-0.5352296233177185,0.0041300212033092976,0.020755231380462646
1761316086125413000,7.8494130859375,-0.4223470091819763,0.17299680411815643,-0.05138181149959564
1761316086135396400,7.859396240234375,-0.27424269914627075,0.34697073698043823,-0.07609985768795013
1761316086145379000,7.869379150390625,-0.11612124741077423,0.45908820629119873,-0.051187314093112946
1761316086155361300,7.879361328125,0.0012282616226002574,0.46156203746795654,0.029619593173265457
1761316086165344300,7.88934423828125,0.06263143569231033,0.3744649291038513,0.11842189729213715
1761316086175327000,7.899326904296875,0.07187633216381073,0.3189220428466797,0.2055772989988327
1761316086185309200,7.90930908203125,0.06840144097805023,0.3603549897670746,0.305991530418396
1761316086195292200,7.919292236328125,0.06211633235216141,0.44865548610687256,0.40233340859413147
1761316086205275100,7.929275146484375,0.03836412727832794,0.5544655323028564,0.5103238224983215
1761316086215257000,7.939257080078125,-0.00010125618427991867,0.6097211241722107,0.6070854663848877
1761316086225240300,7.949240234375,-0.03129885718226433,0.6166632175445557,0.6704341173171997
1761316086235223000,7.95922314453125,-0.0250086672604084,0.6022248864173889,0.7129092216491699
1761316086245205200,7.969205322265625,0.02585105039179325,0.6260705590248108,0.7234079241752625
1761316086255188200,7.979188232421875,0.11803516745567322,0.6343627572059631,0.7049893140792847
1761316086265170200,7.989170166015625,0.22164064645767212,0.6150223612785339,0.6760809421539307
1761316086275153200,7.999153076171875,0.2982126772403717,0.5844383835792542,0.6381743550300598
1761316086285136100,8.00913623046875,0.32779425382614136,0.5072535276412964,0.5741564631462097
1761316086295118000,8.0191181640625,0.34972822666168213,0.40991583466529846,0.5140376687049866
1761316086305101000,8.02910107421875,0.3694790303707123,0.3634207844734192,0.44431695342063904
1761316086315084300,8.039084228515625,0.35073304176330566,0.3678240180015564,0.3512937128543854
1761316086325066000,8.04906591796875,0.3404889404773712,0.4262354075908661,0.19580717384815216
1761316086335049200,8.05904931640625,0.35272732377052307,0.585273265838623,-0.00918763130903244
1761316086345032200,8.0690322265625,0.33074691891670227,0.8396022319793701,-0.24306589365005493
1761316086355014100,8.07901416015625,0.25048375129699707,1.1153432130813599,-0.3750993013381958
1761316086364997000,8.0889970703125,0.1278795301914215,1.0362534523010254,-0.36115604639053345
1761316086374980000,8.09897998046875,0.11021582037210464,0.6437470316886902,-0.1885366439819336
1761316086384962000,8.108962158203125,0.2844957411289215,0.09968608617782593,0.054785728454589844
1761316086394945000,8.118945068359375,0.5941816568374634,-0.4116660952568054,0.242825448513031
1761316086404928300,8.12892822265625,0.8905028104782104,-0.7181459069252014,0.4067366123199463
1761316086414910000,8.138909912109375,0.9870654344558716,-0.9332584738731384,0.5022971034049988
1761316086424893200,8.14889306640625,0.8797743916511536,-1.1273994445800781,0.43160906434059143
1761316086434876200,8.158876220703124,0.640251636505127,-1.160184621810913,0.24519039690494537
1761316086444858000,8.168858154296874,0.3798384368419647,-0.928343653678894,0.01624428853392601
1761316086454841000,8.178841064453126,0.17174306511878967,-0.4912984073162079,-0.27573660016059875
1761316086464823300,8.1888232421875,0.03298172727227211,-0.04645303636789322,-0.6086772084236145
1761316086474806000,8.198805908203125,-0.09495172649621964,0.252806693315506,-0.9395677447319031
1761316086484789200,8.208789306640625,-0.20073968172073364,0.45410969853401184,-1.2387802600860596
1761316086494771200,8.218771240234375,-0.25235220789909363,0.546340823173523,-1.4971915483474731
1761316086504754200,8.228754150390625,-0.25122007727622986,0.5840187072753906,-1.674570083618164
1761316086514737200,8.238737060546875,-0.2545557916164398,0.6119117736816406,-1.73841392993927
1761316086524719400,8.24871923828125,-0.2578948736190796,0.6142734885215759,-1.690273642539978
1761316086534702000,8.2587021484375,-0.2573147416114807,0.6085744500160217,-1.5578763484954834
1761316086544685000,8.26868505859375,-0.25031810998916626,0.5477765798568726,-1.3612096309661865
1761316086554667300,8.278667236328126,-0.2501274347305298,0.4285161793231964,-1.1017111539840698
1761316086564650000,8.28864990234375,-0.24666371941566467,0.3134700357913971,-0.7631543278694153
1761316086574633200,8.29863330078125,-0.24385564029216766,0.17803576588630676,-0.3528977930545807
1761316086584615200,8.308615234375,-0.24670761823654175,0.01739441603422165,0.07839953154325485
1761316086594598100,8.31859814453125,-0.22589528560638428,-0.102198027074337,0.4572691023349762
1761316086604581000,8.3285810546875,-0.15633724629878998,-0.18329180777072906,0.74506676197052
1761316086614563300,8.338563232421874,-0.07175704836845398,-0.25406429171562195,0.9383484125137329
1761316086624546000,8.348546142578124,0.01621115580201149,-0.35709667205810547,1.0417463779449463
1761316086634528300,8.3585283203125,0.06624624878168106,-0.43774598836898804,1.0420734882354736
1761316086644511200,8.36851123046875,0.0760999470949173,-0.4266989231109619,0.9397549629211426
1761316086654494000,8.378493896484375,0.09819675981998444,-0.28671374917030334,0.7810896039009094
1761316086664476200,8.38847607421875,0.1294337809085846,-0.09628360718488693,0.5822044610977173
1761316086674459100,8.398459228515625,0.15418487787246704,0.047722529619932175,0.37138211727142334
1761316086684442000,8.408442138671875,0.2096116542816162,0.20037998259067535,0.218777135014534
1761316086694424000,8.418424072265625,0.27887246012687683,0.36206790804862976,0.14572815597057343
1761316086704407300,8.4284072265625,0.32792070508003235,0.48355117440223694,0.1347319632768631
1761316086714390000,8.43839013671875,0.3406376242637634,0.5077977180480957,0.15623444318771362
1761316086724372200,8.448372314453126,0.32794153690338135,0.49282142519950867,0.22439724206924438
1761316086734355200,8.458355224609376,0.3135237395763397,0.4787100851535797,0.3365389108657837
1761316086744338000,8.468337890625,0.32469117641448975,0.46168848872184753,0.5001776218414307
1761316086754320100,8.478320068359375,0.3536372780799866,0.3855349123477936,0.7018468379974365
1761316086764303000,8.48830322265625,0.37940338253974915,0.22349193692207336,0.9051956534385681
1761316086774286000,8.4982861328125,0.3873395323753357,0.03518678992986679,1.0515053272247314
1761316086784268000,8.50826806640625,0.366615891456604,-0.031646303832530975,1.1089121103286743
1761316086794251300,8.518251220703124,0.3557898998260498,0.021130377426743507,1.0972603559494019
1761316086804233000,8.52823291015625,0.3921995759010315,0.14468853175640106,1.0683996677398682
1761316086814216200,8.53821630859375,0.41909322142601013,0.295077383518219,1.041369915008545
1761316086824199200,8.54819921875,0.4110768437385559,0.4006783664226532,0.953575611114502
1761316086834181000,8.55818115234375,0.4164618253707886,0.44742196798324585,0.8128969669342041
1761316086844164000,8.5681640625,0.4581863582134247,0.45755743980407715,0.6542212963104248
1761316086854147000,8.57814697265625,0.5089583396911621,0.47483792901039124,0.5255183577537537
1761316086864129000,8.58812890625,0.5143978595733643,0.48331740498542786,0.41544780135154724
1761316086874112300,8.5981123046875,0.4707234501838684,0.48382335901260376,0.2757781147956848
1761316086884095200,8.60809521484375,0.4288116991519928,0.5263457894325256,0.15241782367229462
1761316086894077200,8.6180771484375,0.36496758460998535,0.38198599219322205,0.2903338074684143
1761316086904060200,8.62806005859375,0.2558307349681854,-0.2275836020708084,0.30139127373695374
1761316086914043100,8.638043212890626,0.18425968289375305,-0.7701566219329834,0.29914015531539917
1761316086924025000,8.648025146484375,0.0319356694817543,-1.1953719854354858,0.08025814592838287
1761316086934008000,8.658008056640625,-0.020592758432030678,-1.4818243980407715,-0.3228873312473297
1761316086943991300,8.6679912109375,0.08909805119037628,-1.410942792892456,-0.7282904386520386
1761316086953973000,8.677972900390625,0.21045471727848053,-1.2961570024490356,-1.049049735069275
1761316086963956200,8.687956298828125,0.29978060722351074,-1.305389404296875,-1.2082159519195557
