time,seconds_elapsed,z,y,x
1761379937231697000,0.09769677734375,0.0662325769662857,-0.03803751990199089,0.10277124494314194
1761379937241725000,0.107724853515625,0.05682312324643135,-0.05773908644914627,0.09989012032747269
1761379937251763200,0.11776318359375,0.04951205849647522,-0.07425975799560547,0.09609302878379822
1761379937261796000,0.127796142578125,0.041185107082128525,-0.09865773469209671,0.08228694647550583
1761379937271823000,0.137822998046875,0.029044410213828087,-0.09019754827022552,0.05472473055124283
1761379937281835800,0.147835693359375,0.022516079246997833,-0.06300172209739685,0.025280628353357315
1761379937291874600,0.15787451171875,0.014488897286355495,-0.03224195912480354,0.004030244890600443
1761379937301899000,0.16789892578125,0.0002997702977154404,-0.007710758130997419,-0.004679747391492128
1761379937311913500,0.17791357421875,-0.01375612523406744,0.0011324655497446656,-0.006478368770331144
1761379937321945300,0.1879453125,-0.02806182950735092,0.004929556045681238,-0.005295941606163979
1761379937331974400,0.197974365234375,-0.03803751990199089,0.005795558914542198,-0.012873467989265919
1761379937341981000,0.20798095703125,-0.04088533669710159,0.00987576600164175,-0.028861217200756073
1761379937352027000,0.21802685546875,-0.03812078759074211,0.017803024500608444,-0.05001167580485344
1761379937362048000,0.228048095703125,-0.0329747311770916,0.032258614897727966,-0.06488361209630966
1761379937372079000,0.2380791015625,-0.02204976975917816,0.04095195233821869,-0.06606604158878326
1761379937382108000,0.24810791015625,-0.010591883212327957,0.038437213748693466,-0.052992723882198334
1761379937392115200,0.258115234375,-0.003130934201180935,0.025580398738384247,-0.030676493421196938
1761379937402135600,0.268135498046875,0.0013822740875184536,0.006678215693682432,-0.00634513795375824
1761379937412193300,0.278193359375,0.008643376640975475,-0.006828100886195898,0.013639547862112522
1761379937422204200,0.2882041015625,0.012806852348148823,-0.017852986231446266,0.019218606874346733
1761379937432231400,0.2982314453125,0.010408690199255943,-0.020234493538737297,0.010958269238471985
1761379937442248200,0.308248291015625,0.01723679155111313,-0.006195252761244774,-0.008343606255948544
1761379937452272000,0.318272216796875,0.007361026015132666,0.0013323123566806316,-0.03678847476840019
1761379937462319000,0.328319091796875,-0.002864471636712551,0.008010528050363064,-0.061019908636808395
1761379937472334000,0.338333984375,-0.0037471286486834288,0.012307235971093178,-0.08346936851739883
1761379937482349000,0.34834912109375,0.0008826569537632167,0.03127603232860565,-0.09619295597076416
1761379937492385500,0.358385498046875,0.01662059687077999,0.06878062337636948,-0.10703464597463608
1761379937502411300,0.368411376953125,0.01417247299104929,0.08451856672763824,-0.09284552186727524
1761379937512429000,0.378428955078125,0.004030244890600443,0.08966462314128876,-0.07019621133804321
1761379937522462700,0.388462646484375,-0.00712787127122283,0.07299406826496124,-0.04459915682673454
1761379937532488400,0.398488525390625,-0.02759552001953125,0.04338342323899269,-0.004230091813951731
1761379937542526700,0.408526611328125,-0.04058556631207466,0.012823506258428097,0.025397205725312233
1761379937552540400,0.41854052734375,-0.03637212887406349,-0.01640409603714943,0.03610566630959511
1761379937562556700,0.428556640625,-0.01920195296406746,-0.027562212198972702,0.03280819207429886
1761379937572590800,0.4385908203125,-0.003247511340305209,-0.029160987585783005,0.017253445461392403
1761379937582616600,0.448616455078125,0.006211906671524048,-0.029827143996953964,0.00016653904458507895
1761379937592642300,0.458642333984375,0.004713055212050676,-0.03432369604706764,-0.015854516997933388
1761379937602668800,0.468668701171875,-0.006478368770331144,-0.03395731374621391,-0.03548946976661682
1761379937612683300,0.478683349609375,-0.018652373924851418,-0.016920367255806923,-0.053542304784059525
1761379937622720000,0.488719970703125,-0.022682618349790573,0.011141462251543999,-0.06551646441221237
1761379937632728000,0.49872802734375,-0.018802259117364883,0.043566614389419556,-0.06874731928110123
1761379937642771500,0.508771484375,-0.017053598538041115,0.05823870375752449,-0.042151033878326416
1761379937652799000,0.518799072265625,-0.027861982583999634,0.03958633169531822,0.02033441700041294
1761379937662825000,0.528824951171875,-0.04969525337219238,-0.018652373924851418,0.10828369110822678
1761379937672850200,0.53885009765625,-0.06936351209878922,-0.09790830314159393,0.19811485707759857
1761379937682865700,0.54886572265625,-0.07522568851709366,-0.1674383580684662,0.2678447365760803
1761379937692901000,0.558901123046875,-0.07386007159948349,-0.21633422374725342,0.3122773766517639
1761379937702918700,0.568918701171875,-0.05785566568374634,-0.21373622119426727,0.3061653971672058
1761379937712940800,0.57894091796875,-0.03294142335653305,-0.16893720626831055,0.26098334789276123
1761379937722978600,0.588978515625,-0.011158116161823273,-0.10203847289085388,0.1955001950263977
1761379937733001700,0.599001708984375,-0.00920960959047079,-0.04887920990586281,0.13935987651348114
1761379937743006500,0.60900634765625,-0.008360260166227818,0.0021983154583722353,0.07707427442073822
1761379937753042400,0.61904248046875,-0.0013989279977977276,0.04796324670314789,0.01911868341267109
1761379937763080200,0.629080078125,0.009026416577398777,0.07482599467039108,-0.03430704399943352
1761379937773100300,0.639100341796875,0.012823506258428097,0.08909839391708374,-0.06764816492795944
1761379937783128600,0.649128662109375,0.005479134619235992,0.07181163877248764,-0.07624157518148422
1761379937793159200,0.6591591796875,-0.008376914076507092,0.03612231835722923,-0.057839009910821915
1761379937803196200,0.669196044921875,-0.021983154118061066,-0.0082436827942729,-0.020933957770466805
1761379937813197000,0.679197021484375,-0.034290388226509094,-0.0519268736243248,0.017519908025860786
1761379937823224800,0.689224853515625,-0.037254784256219864,-0.0709456354379654,0.039503064006567
1761379937833259300,0.69925927734375,-0.031126148998737335,-0.06475038081407547,0.033874042332172394
1761379937843284200,0.7092841796875,-0.02831163816154003,-0.02947741188108921,0.003580589545890689
1761379937853310500,0.719310546875,-0.03114280290901661,0.02000133879482746,-0.0444992333650589
1761379937863336200,0.729336181640625,-0.033041346818208694,0.07690773159265518,-0.09680914878845215
1761379937873361200,0.739361083984375,-0.02972722053527832,0.12666960060596466,-0.13834398984909058
1761379937883387600,0.7493876953125,-0.040102601051330566,0.1754322350025177,-0.17783039808273315
1761379937893412600,0.75941259765625,-0.04178464785218239,0.23595252633094788,-0.22342878580093384
1761379937903438800,0.76943896484375,-0.033507656306028366,0.2741565704345703,-0.25412192940711975
1761379937913454000,0.7794541015625,-0.03364088758826256,0.2427639663219452,-0.2469274401664734
1761379937923489800,0.78948974609375,-0.039219945669174194,0.17165179550647736,-0.19476741552352905
1761379937933515500,0.799515625,-0.04003598541021347,0.07675784826278687,-0.1137128621339798
1761379937943541000,0.809541015625,-0.033374425023794174,-0.018236026167869568,-0.0193684920668602
1761379937953567000,0.81956689453125,-0.02174999937415123,-0.07842323929071426,0.0630350261926651
1761379937963592700,0.8295927734375,-0.012856814078986645,-0.10148889571428299,0.10708460956811905
1761379937973618200,0.8396181640625,-0.011541156098246574,-0.09919065982103348,0.10360394418239594
1761379937983639300,0.849639404296875,-0.009825804270803928,-0.062268950045108795,0.0654665008187294
1761379937993669400,0.85966943359375,-0.00567898154258728,-0.014855283312499523,0.007277756463736296
1761379938003696000,0.869696044921875,-0.0038470521103590727,0.025996744632720947,-0.0535256490111351
1761379938013720800,0.879720947265625,-0.004280053544789553,0.05832197517156601,-0.0962928757071495
1761379938023746800,0.889746826171875,-0.007361026015132666,0.0678979679942131,-0.11166442930698395
1761379938033772500,0.8997724609375,-0.010275458917021751,0.056173622608184814,-0.09929057955741882
1761379938043791400,0.909791259765625,-0.015271631069481373,0.024997511878609657,-0.06455053389072418
1761379938053826000,0.919825927734375,-0.0177031010389328,0.0006161945057101548,-0.020317763090133667
1761379938063850200,0.929850341796875,-0.020817380398511887,-0.01458882074803114,0.016304172575473785
1761379938073866800,0.93986669921875,-0.027695443481206894,-0.024164816364645958,0.03349100425839424
1761379938083903000,0.949903076171875,-0.03460681438446045,-0.023198889568448067,0.033424388617277145
1761379938093927000,0.959927001953125,-0.03795424848794937,-0.0164873655885458,0.016637250781059265
1761379938103952100,0.9699521484375,-0.034623466432094574,-0.008460183627903461,-0.009309533052146435
1761379938113967400,0.97996728515625,-0.024414625018835068,0.0011990811908617616,-0.03535623848438263
1761379938124003800,0.99000390625,-0.01269027590751648,0.016937021166086197,-0.052543070167303085
1761379938134029600,1.000029541015625,-0.0010825038189068437,0.030493300408124924,-0.05260968580842018
1761379938144050000,1.0100498046875,-0.0004996171337552369,0.029993683099746704,-0.03875363618135452
1761379938154085000,1.020085205078125,-0.003397396532818675,0.015288284979760647,-0.02196650020778179
1761379938164104400,1.0301044921875,-0.003930321428924799,0.004779670853167772,-0.008993108756840229
1761379938174126800,1.040126953125,-0.0054624807089567184,0.005645673722028732,0.0072111408226192
1761379938184160500,1.050160400390625,-0.010125573724508286,0.0025980090722441673,0.02847817726433277
1761379938194195500,1.060195556640625,-0.01778637059032917,-0.020517610013484955,0.040802065283060074
1761379938204189700,1.070189697265625,-0.016304172575473785,-0.044449273496866226,0.03560604900121689
1761379938214226400,1.080226318359375,-0.002997702918946743,-0.039436448365449905,0.013306469656527042
1761379938224260400,1.09026025390625,0.012873467989265919,-0.011058192700147629,-0.00799387414008379
1761379938234285800,1.100285888671875,0.01400593388825655,0.010008996352553368,-0.019851455464959145
1761379938244305700,1.1103056640625,0.005978751927614212,0.019185299053788185,-0.020684149116277695
1761379938254337300,1.120337158203125,-0.0015321592800319195,0.01836925745010376,-0.01202411949634552
1761379938264362800,1.13036279296875,-0.006778139155358076,0.012323889881372452,-0.004879594314843416
1761379938274386000,1.140385986328125,-0.003064318560063839,0.00584552064538002,-0.0016320826252922416
1761379938284414700,1.150414794921875,0.0012490428052842617,0.004030244890600443,0.0024980856105685234
1761379938294440200,1.160440185546875,-0.006644907873123884,-0.003530627815052867,0.009176301769912243
1761379938304466200,1.170466064453125,-0.015055130235850811,-0.011308001354336739,0.00962595734745264
1761379938314491600,1.18049169921875,-0.02000133879482746,-0.015121745876967907,0.0019818146247416735
1761379938324517400,1.190517333984375,-0.022016461938619614,-0.007660796400159597,-0.010591883212327957
1761379938334542600,1.20054248046875,-0.024331355467438698,0.003014356829226017,-0.01995137706398964
1761379938344550700,1.210550537109375,-0.028661370277404785,0.00489624822512269,-0.023098966106772423
1761379938354594800,1.2205947265625,-0.03190888091921806,0.003280819160863757,-0.02120042033493519
1761379938364620300,1.230620361328125,-0.02847817726433277,0.006328484043478966,-0.015221669338643551
1761379938374646000,1.24064599609375,-0.021566806361079216,0.007810681592673063,-0.00841022189706564
1761379938384650200,1.250650146484375,-0.01720348373055458,0.0010825038189068437,-0.005579058080911636
1761379938394697000,1.260697021484375,-0.006378445774316788,0.0014988514594733715,-0.006295176222920418
1761379938404713000,1.270712890625,0.0007993874605745077,0.0025313934311270714,-0.008976454846560955
1761379938414748200,1.280748046875,-0.002997702918946743,-0.0018152756383642554,-0.009326186962425709
1761379938424774700,1.290774658203125,-0.010242151096463203,-0.00866003055125475,-0.004746363032609224
1761379938434801200,1.30080126953125,-0.01417247299104929,-0.01400593388825655,-0.002914433367550373
1761379938444804900,1.310804931640625,-0.009359494782984257,-0.003547281725332141,-0.004396630916744471
1761379938454830300,1.320830322265625,-0.0012990045361220837,0.008043835870921612,-0.00551244243979454
1761379938464855800,1.330855712890625,0.0007660796400159597,0.002797855995595455,-0.003080972470343113
1761379938474881500,1.340881591796875,-0.0038137442898005247,-0.003031010739505291,0.0076108346693217754
1761379938484906800,1.35090673828125,-0.006062021479010582,-0.0007660796400159597,0.026196591556072235
1761379938494932500,1.360932373046875,-0.0045964778400957584,-0.0008326952229253948,0.045115429908037186
1761379938504957200,1.370957275390625,-0.0014988514594733715,-0.004180130083113909,0.056173622608184814
1761379938514972700,1.38097265625,0.006228560581803322,-0.003547281725332141,0.05690639093518257
1761379938525008000,1.3910078125,0.011990811675786972,-0.000016653904822305776,0.0453319288790226
1761379938535042800,1.401042724609375,0.008293644525110722,0.005795558914542198,0.028028521686792374
1761379938545068000,1.411068115234375,0.00018319295486435294,0.015837863087654114,0.01425574254244566
1761379938555112000,1.42111181640625,-0.007977220229804516,0.014355666004121304,0.0053459033370018005
1761379938565127700,1.431127685546875,-0.008360260166227818,-0.0013323123566806316,-0.003946975339204073
1761379938575160800,1.441160888671875,0.005262633785605431,-0.011208077892661095,-0.015221669338643551
1761379938585179600,1.4511796875,0.019518377259373665,-0.01740333065390587,-0.027612173929810524
1761379938595208700,1.461208740234375,0.018802259117364883,-0.03069314733147621,-0.04053560271859169
1761379938605236500,1.471236572265625,0.004429938737303019,-0.023898353800177574,-0.035672664642333984
1761379938615241200,1.4812412109375,-0.01284016016870737,0.002464778022840619,-0.009959034621715546
1761379938625286000,1.491285888671875,-0.030709801241755486,0.019268568605184555,0.024481240659952164
1761379938635313000,1.50131298828125,-0.04083537310361862,0.018269333988428116,0.04881259426474571
1761379938645328000,1.511327880859375,-0.03125938028097153,0.011591117829084396,0.05449157580733299
1761379938655364600,1.521364501953125,-0.014372319914400578,-0.0011657733703032136,0.0420677624642849
1761379938665390000,1.53139013671875,-0.005046132951974869,-0.015171707607805729,0.022099731490015984
1761379938675403800,1.54140380859375,-0.005196018144488335,-0.020634187385439873,0.006761485245078802
1761379938685441300,1.551441162109375,-0.007677450310438871,-0.017836332321166992,-0.0026812786236405373
1761379938695467800,1.5614677734375,-0.012673621997237206,-0.018169410526752472,-0.011674387380480766
1761379938705485300,1.5714853515625,-0.014139165170490742,-0.019151991233229637,-0.021433575078845024
1761379938715518200,1.581518310546875,-0.013972626067698002,-0.015871170908212662,-0.025746935978531837
1761379938725544400,1.59154443359375,-0.020734110847115517,-0.01715352199971676,-0.017669793218374252
1761379938735568000,1.60156787109375,-0.03444027528166771,-0.027195826172828674,0.003147588111460209
1761379938745585700,1.611585693359375,-0.043733153492212296,-0.040102601051330566,0.025696974247694016
1761379938755621400,1.621621337890625,-0.04163476079702377,-0.050960950553417206,0.03807082772254944
1761379938765632800,1.6316328125,-0.03199215233325958,-0.05006163939833641,0.03322454169392586
1761379938775672800,1.6416728515625,-0.022282924503087997,-0.04036906361579895,0.014488897286355495
1761379938785698600,1.651698486328125,-0.01728675328195095,-0.025230666622519493,-0.014971860684454441
1761379938795713500,1.661713623046875,-0.01698698289692402,-0.003364088712260127,-0.04881259426474571
1761379938805750500,1.67175048828125,-0.0189188364893198,0.02279919572174549,-0.078789621591568
1761379938815777000,1.681777099609375,-0.018685681745409966,0.03792094066739082,-0.0942111387848854
1761379938825803000,1.691802978515625,-0.018152756616473198,0.03520635515451431,-0.09622626006603241
1761379938835828000,1.701827880859375,-0.00962595734745264,0.024098200723528862,-0.08220367133617401
1761379938845854500,1.7118544921875,0.004979517310857773,0.011641079559922218,-0.058055512607097626
1761379938855880200,1.721880126953125,0.015138399787247181,0.0005995405954308808,-0.02676282450556755
1761379938865905200,1.7319052734375,0.01728675328195095,-0.011507848277688026,0.009009762667119503
1761379938875927300,1.74192724609375,0.012590352445840836,-0.028328292071819305,0.04286715015769005
1761379938885934000,1.75193408203125,0.00937614869326353,-0.0412350669503212,0.06451722979545593
1761379938895980000,1.76197998046875,0.010908307507634163,-0.04842955619096756,0.06455053389072418
1761379938906006500,1.772006591796875,0.013606240041553974,-0.04091864451766014,0.045281969010829926
1761379938916031500,1.782031494140625,0.015454824082553387,-0.01861906610429287,0.02141692116856575
1761379938926058000,1.79205810546875,0.014938552863895893,-0.002348200650885701,-0.0013323123566806316
1761379938936087300,1.80208740234375,0.007810681592673063,-0.0016487365355715156,-0.019818147644400597
1761379938946102800,1.812102783203125,0.0005662327748723328,-0.0054291728883981705,-0.033291157335042953
1761379938956125700,1.822125732421875,-0.004713055212050676,0.0010991577291861176,-0.036588627845048904
1761379938966134800,1.832134765625,-0.009359494782984257,0.012623660266399384,-0.026229899376630783
1761379938976174300,1.84217431640625,-0.012973391450941563,0.01748660020530224,-0.005495788529515266
1761379938986212000,1.852212158203125,-0.011507848277688026,0.0075775268487632275,0.013306469656527042
1761379938996229000,1.86222900390625,-0.00008326952229253948,-0.0018985451897606254,0.01925191469490528
1761379939006262500,1.872262451171875,0.013139930553734303,-0.008110451512038708,0.012257274240255356
1761379939016295400,1.88229541015625,0.017519908025860786,-0.01612097956240177,-0.005196018144488335
1761379939026313700,1.892313720703125,0.015687977895140648,-0.017103560268878937,-0.027695443481206894
1761379939036329200,1.9023291015625,0.012140696868300438,0.006778139155358076,-0.04208441823720932
1761379939046366500,1.912366455078125,0.009725880809128284,0.034123849123716354,-0.04000267758965492
1761379939056395800,1.922395751953125,0.006511676590889692,0.03394065797328949,-0.02454785630106926
1761379939066417400,1.93241748046875,0.00729441037401557,0.011790964752435684,-0.010342074558138847
1761379939076443400,1.942443359375,0.01828598789870739,-0.008709992282092571,-0.0022149693686515093
1761379939086469600,1.9524697265625,0.023148927837610245,-0.02546382136642933,0.0021483537275344133
1761379939096494800,1.962494873046875,0.010192189365625381,-0.0415848009288311,0.00687806261703372
1761379939106512400,1.972512451171875,-0.009226263500750065,-0.036338821053504944,0.010891653597354889
1761379939116545500,1.982545654296875,-0.02579689770936966,-0.010541921481490135,0.0074609494768083096
1761379939126571800,1.99257177734375,-0.03185892105102539,0.0160377100110054,-0.0026812786236405373
1761379939136597200,2.00259716796875,-0.0283949077129364,0.03557274118065834,-0.016520673409104347
1761379939146625500,2.01262548828125,-0.016337480396032333,0.0436665378510952,-0.02667955495417118
1761379939156649200,2.022649169921875,-0.007427641656249762,0.04095195233821869,-0.024531202390789986
1761379939166674200,2.032674072265625,-0.009076378308236599,0.02759552001953125,-0.004130168352276087
1761379939176691500,2.04269140625,-0.012723583728075027,0.0018652373692020774,0.021733345463871956
1761379939186725600,2.0527255859375,-0.013556278310716152,-0.02692936360836029,0.03670520707964897
1761379939196752000,2.062751953125,-0.006511676590889692,-0.038104135543107986,0.03365754336118698
1761379939206756600,2.072756591796875,0.005029479041695595,-0.028128445148468018,0.015271631069481373
1761379939216806700,2.082806640625,0.00882656965404749,-0.0156546700745821,-0.004146822262555361
1761379939226826500,2.092826416015625,0.003414050443097949,-0.0061785988509655,-0.011974157765507698
1761379939236833500,2.10283349609375,-0.005695635452866554,-0.003713820828124881,-0.006128637120127678
1761379939246882800,2.1128828125,-0.01194084994494915,-0.004413284827023745,0.01144123263657093
1761379939256906200,2.12290625,-0.015105091966688633,-0.007361026015132666,0.03945310041308403
1761379939266931000,2.132930908203125,-0.017303407192230225,-0.02174999937415123,0.07037939876317978
1761379939276957000,2.14295703125,-0.017553215846419334,-0.03635547310113907,0.09431106597185135
1761379939286983000,2.15298291015625,-0.016170941293239594,-0.04618127644062042,0.10175535827875137
1761379939297009000,2.1630087890625,-0.013572932220995426,-0.04578158259391785,0.0872664600610733
1761379939307025700,2.173025634765625,-0.009409456513822079,-0.03289146348834038,0.052626337856054306
1761379939317059300,2.183059326171875,-0.003513973904773593,-0.012057427316904068,0.008426875807344913
1761379939327073800,2.19307373046875,0.004746363032609224,0.011707695201039314,-0.03653866797685623
1761379939337116200,2.2031162109375,0.009742534719407558,0.0341571569442749,-0.06786466389894485
1761379939347116300,2.2131162109375,0.012340543791651726,0.048779286444187164,-0.08217036724090576
1761379939357140700,2.223140625,0.009942381642758846,0.04566500708460808,-0.0749758780002594
1761379939367180000,2.233179931640625,0.002381508471444249,0.027778713032603264,-0.05250976234674454
1761379939377202700,2.24320263671875,-0.004379977006465197,0.0045631700195372105,-0.02493089623749256
1761379939387239700,2.25323974609375,-0.004846286494284868,-0.01878560520708561,-0.0020983919966965914
1761379939397264600,2.2632646484375,0.0000666156192892231,-0.029743874445557594,0.01005895808339119
1761379939407279900,2.27327978515625,0.0054458267986774445,-0.03362423554062843,0.01670386642217636
1761379939417315800,2.28331591796875,0.008876531384885311,-0.027329057455062866,0.017769716680049896
1761379939427342000,2.293342041015625,0.006511676590889692,-0.016054363921284676,0.014688744209706783
1761379939437379300,2.30337939453125,0.0037804364692419767,-0.00712787127122283,0.008110451512038708
1761379939447393300,2.313393310546875,-0.002481431933119893,0.004263399634510279,-0.004912902135401964
1761379939457419500,2.32341943359375,-0.010258805006742477,0.018485834822058678,-0.01682044379413128
1761379939467444700,2.33344482421875,-0.019518377259373665,0.03365754336118698,-0.02579689770936966
1761379939477447000,2.343447021484375,-0.023365428671240807,0.05255972221493721,-0.032625000923871994
1761379939487495700,2.35349560546875,-0.015921132639050484,0.06503349542617798,-0.03828732669353485
1761379939497522000,2.36352197265625,-0.006811446975916624,0.06288514286279678,-0.04150152951478958
1761379939507548000,2.3735478515625,-0.004046898800879717,0.045065466314554214,-0.041651416569948196
1761379939517563600,2.383563720703125,-0.007810681592673063,0.023948315531015396,-0.03752124682068825
1761379939527598300,2.393598388671875,-0.015155053697526455,0.005629019811749458,-0.030909648165106773
1761379939537624300,2.403624267578125,-0.023698506876826286,-0.0045298621989786625,-0.024364663287997246
1761379939547649800,2.41364990234375,-0.02926091104745865,-0.0000666156192892231,-0.01900210604071617
1761379939557664800,2.423664794921875,-0.027112556621432304,0.020717456936836243,-0.018302641808986664
1761379939567702000,2.433701904296875,-0.021267035976052284,0.042983729392290115,-0.02213303931057453
1761379939577727000,2.44372705078125,-0.015971094369888306,0.056839779019355774,-0.026946017518639565
1761379939587753500,2.45375341796875,-0.013273161835968494,0.06328483670949936,-0.029993683099746704
1761379939597779000,2.463779052734375,-0.007877296768128872,0.06015390530228615,-0.029577335342764854
1761379939607809500,2.4738095703125,0.0014155819080770016,0.04245080426335335,-0.022566040977835655
1761379939617830700,2.48383056640625,0.007727412041276693,0.01978483982384205,-0.007760719861835241
1761379939627846400,2.493846435546875,0.009592649526894093,0.005029479041695595,0.007677450310438871
1761379939637884000,2.5038837890625,0.010042304173111916,0.0025480473414063454,0.018802259117364883
1761379939647907000,2.513906982421875,0.009675919078290462,-0.0022649310994893312,0.027612173929810524
1761379939657922800,2.5239228515625,0.007227794732898474,-0.011757656931877136,0.03039337694644928
1761379939667958300,2.533958251953125,0.008793261833488941,-0.013323123566806316,0.025397205725312233
1761379939677984000,2.54398388671875,0.015005168505012989,-0.007677450310438871,0.01653732731938362
1761379939688003000,2.554003173828125,0.019151991233229637,0.0007993874605745077,0.006744831334799528
1761379939698036000,2.564035888671875,0.01895214430987835,0.0022982389200478792,0.0003330780891701579
1761379939708061700,2.574061767578125,0.01966826245188713,0.00008326952229253948,0.0026646247133612633
1761379939718079200,2.584079345703125,0.022016461938619614,-0.0074609494768083096,0.010408690199255943
1761379939728105700,2.594105712890625,0.024314701557159424,-0.020800726488232613,0.01458882074803114
1761379939738130200,2.604130126953125,0.02696267142891884,-0.03410719707608223,0.01210738904774189
1761379939748167000,2.6141669921875,0.030926302075386047,-0.034673430025577545,0.00626186840236187
1761379939758182000,2.624181884765625,0.03155915066599846,-0.0308929942548275,-0.0020317763555794954
1761379939768215000,2.634215087890625,0.028461523354053497,-0.019934723153710365,-0.010608537122607231
1761379939778240800,2.64424072265625,0.025780243799090385,-0.006528330501168966,-0.014938552863895893
1761379939788277200,2.65427734375,0.02095061168074608,0.0021483537275344133,-0.015404862351715565
1761379939798292000,2.6642919921875,0.015604709275066853,0.003130934201180935,-0.012257274240255356
1761379939808318500,2.674318359375,0.017819678410887718,-0.002947741188108921,-0.0094594182446599
1761379939818343700,2.68434375,0.021316997706890106,-0.015121745876967907,-0.011374616995453835
1761379939828359000,2.69435888671875,0.023865045979619026,-0.02538055181503296,-0.017253445461392403
1761379939838378800,2.704378662109375,0.025863513350486755,-0.025746935978531837,-0.02446458674967289
1761379939848420400,2.71442041015625,0.021217074245214462,-0.0185357965528965,-0.035506125539541245
1761379939858446600,2.724446533203125,0.011907542124390602,-0.006161944940686226,-0.04596477746963501
1761379939868472300,2.734472412109375,0.0009659265051595867,0.011890888214111328,-0.04814643785357475
1761379939878487600,2.744487548828125,-0.007161179091781378,0.022849157452583313,-0.040852028876543045
1761379939888519400,2.75451953125,-0.014405627734959126,0.024397971108555794,-0.028661370277404785
1761379939898549200,2.76454931640625,-0.020434340462088585,0.024364663287997246,-0.01607101783156395
1761379939908575000,2.774574951171875,-0.02513074316084385,0.022099731490015984,-0.006811446975916624
1761379939918589200,2.784589111328125,-0.029943721368908882,0.021017227321863174,-0.0022815850097686052
1761379939928626200,2.794626220703125,-0.03182561323046684,0.020317763090133667,-0.004779670853167772
1761379939938651400,2.8046513671875,-0.029927067458629608,0.02224961668252945,-0.009559341706335545
1761379939948677000,2.814677001953125,-0.02696267142891884,0.027195826172828674,-0.004613131750375032
1761379939958692600,2.824692626953125,-0.028294984251260757,0.020234493538737297,0.005545750260353088
1761379939968719000,2.834718994140625,-0.02621324546635151,0.0045631700195372105,0.010342074558138847
1761379939978754300,2.84475439453125,-0.020017992705106735,-0.003114280290901661,0.009992342442274094
1761379939988770000,2.85477001953125,-0.01308996882289648,0.0025813551619648933,0.0038803599309176207
1761379939998807300,2.864807373046875,-0.007177833002060652,0.015105091966688633,-0.0014488897286355495
1761379940008821200,2.8748212890625,-0.005046132951974869,0.018169410526752472,-0.0011491194600239396
1761379940018859500,2.884859619140625,-0.0027312403544783592,0.00937614869326353,-0.0004996171337552369
1761379940028872400,2.89487255859375,0.005245979875326157,0.002831163816154003,-0.00016653904458507895
1761379940038909000,2.904908935546875,0.012290582060813904,-0.006111983209848404,0.0020983919966965914
1761379940048926000,2.914926025390625,0.010858345776796341,-0.024531202390789986,0.006278522312641144
1761379940058967600,2.924967529296875,0.00567898154258728,-0.038137443363666534,0.006328484043478966
1761379940068985600,2.934985595703125,0.004363323096185923,-0.036755166947841644,-0.00024980856687761843
1761379940079011000,2.945010986328125,0.002981049008667469,-0.02224961668252945,-0.013139930553734303
1761379940089028900,2.95502880859375,0.002381508471444249,-0.0005995405954308808,-0.025946782901883125
1761379940099051800,2.9650517578125,-0.0022815850097686052,0.018935490399599075,-0.028045175597071648
1761379940109072000,2.97507177734375,-0.005212672054767609,0.02358192950487137,-0.020634187385439873
1761379940119118300,2.985118408203125,-0.00704460171982646,0.013789433054625988,-0.012373851612210274
1761379940129127400,2.99512744140625,-0.007677450310438871,0.005262633785605431,-0.006561638321727514
1761379940139168800,3.005168701171875,-0.006411753129214048,-0.0027312403544783592,0.0007993874605745077
1761379940149195000,3.015195068359375,-0.009309533052146435,-0.021233728155493736,0.004379977006465197
1761379940159200300,3.0252001953125,-0.00979249645024538,-0.02964395098388195,0.003563935635611415
1761379940169242600,3.03524267578125,-0.0038137442898005247,-0.023765122517943382,-0.0038470521103590727
1761379940179268000,3.04526806640625,0.00016653904458507895,-0.014538859017193317,-0.015521439723670483
1761379940189283300,3.055283447265625,-0.002398162381723523,-0.0011657733703032136,-0.01900210604071617
1761379940199319000,3.065319091796875,-0.005745597183704376,0.010808384045958519,-0.013639547862112522
1761379940209335000,3.0753349609375,-0.009509379975497723,0.014488897286355495,-0.0053958650678396225
1761379940219359700,3.08535986328125,-0.012790199369192123,0.012257274240255356,0.0005162710440345109
1761379940229375200,3.095375244140625,-0.015454824082553387,0.011058192700147629,0.0006328483577817678
1761379940239422000,3.105421875,-0.018968798220157623,0.01458882074803114,0.004230091813951731
1761379940249448000,3.115447998046875,-0.023681852966547012,0.0156546700745821,0.012473775073885918
1761379940259463400,3.12546337890625,-0.026246553286910057,0.005629019811749458,0.021716691553592682
1761379940269499600,3.135499755859375,-0.025147397071123123,-0.009692572988569736,0.021733345463871956
1761379940279526000,3.14552587890625,-0.01933518424630165,-0.016504019498825073,0.010108919814229012
1761379940289552100,3.15555224609375,-0.014289050363004208,-0.014322358183562756,-0.013040007092058659
1761379940299577600,3.16557763671875,-0.015105091966688633,-0.006078675389289856,-0.03740467131137848
1761379940309581800,3.175581787109375,-0.018152756616473198,0.012573698535561562,-0.05169371888041496
1761379940319629000,3.185629150390625,-0.01698698289692402,0.02797855995595455,-0.05014490708708763
1761379940329654800,3.19565478515625,-0.015155053697526455,0.023265505209565163,-0.03535623848438263
1761379940339674400,3.20567431640625,-0.006078675389289856,0.013772779144346714,-0.016170941293239594
1761379940349706500,3.21570654296875,0.006678215693682432,-0.0015155053697526455,0.0007161179091781378
1761379940359720200,3.22572021484375,0.010991577059030533,-0.021316997706890106,0.011291347444057465
1761379940369746400,3.235746337890625,0.009043070487678051,-0.031159456819295883,0.017336715012788773
1761379940379783000,3.245782958984375,0.006078675389289856,-0.027329057455062866,0.020351070910692215
1761379940389809000,3.255808837890625,0.0054291728883981705,-0.020484302192926407,0.01383939478546381
1761379940399824000,3.265823974609375,0.012373851612210274,-0.0008160413126461208,0.0014488897286355495
1761379940409849600,3.275849609375,0.022699272260069847,0.026146629825234413,-0.007161179091781378
1761379940419886000,3.285885986328125,0.024997511878609657,0.03385739028453827,-0.008210374973714352
1761379940429911000,3.2959111328125,0.018552450463175774,0.0156546700745821,-0.0008326952229253948
1761379940439937000,3.30593701171875,0.012490428984165192,-0.010791730135679245,0.002947741188108921
1761379940449963300,3.31596337890625,0.01005895808339119,-0.021766653284430504,0.0015321592800319195
1761379940459977000,3.32597705078125,0.012990045361220837,-0.011424578726291656,0.0009492725948803127
1761379940470004500,3.33600439453125,0.01607101783156395,-0.002797855995595455,0.003097626380622387
1761379940480040700,3.346040771484375,0.014355666004121304,-0.0005662327748723328,0.0038470521103590727
1761379940490058200,3.356058349609375,0.015171707607805729,0.002414816292002797,0.004379977006465197
1761379940500091600,3.366091552734375,0.018435873091220856,0.002348200650885701,0.0025647012516856194
1761379940510110200,3.376110107421875,0.014455589465796947,-0.0010325420880690217,0.0020151224453002214
1761379940520142600,3.386142578125,0.008193721063435078,-0.0038137442898005247,0.003047664649784565
1761379940530168600,3.39616845703125,0.003247511340305209,0.0007161179091781378,-0.00009992343257181346
1761379940540194000,3.406194091796875,-0.0001332312385784462,0.00816041324287653,-0.004862940404564142
1761379940550219800,3.4162197265625,-0.0044465926475822926,0.011374616995453835,-0.010525267571210861
1761379940560245500,3.42624560546875,-0.01005895808339119,0.012390505522489548,-0.015071784146130085
1761379940570259700,3.436259765625,-0.015588055364787579,0.009992342442274094,-0.01970157027244568
1761379940580297000,3.446296875,-0.023498659953475,0.009426110424101353,-0.0206175334751606
1761379940590322400,3.456322509765625,-0.03372415900230408,0.010342074558138847,-0.016770482063293457
1761379940600348700,3.4663486328125,-0.04131833836436272,0.013073314912617207,-0.006728177424520254
1761379940610374000,3.476373779296875,-0.051743682473897934,0.012057427316904068,0.002831163816154003
1761379940620391700,3.4863916015625,-0.050910986959934235,0.008593414910137653,0.005895482376217842
1761379940630425000,3.496425048828125,-0.04624789208173752,0.007644142489880323,0.0017486599972471595
1761379940640450800,3.506450927734375,-0.03883690759539604,0.008210374973714352,-0.005945444107055664
1761379940650476800,3.516476806640625,-0.03180895745754242,0.009059724397957325,-0.010541921481490135
1761379940660491000,3.526490966796875,-0.024164816364645958,0.005795558914542198,-0.009526033885776997
1761379940670528000,3.536528076171875,-0.018685681745409966,-0.0007494257297366858,-0.005262633785605431
1761379940680543700,3.546543701171875,-0.016837097704410553,-0.01325650792568922,-0.002381508471444249
1761379940690576000,3.556575927734375,-0.018985452130436897,-0.02479766495525837,-0.006844754796475172
1761379940700605200,3.566605224609375,-0.020301109179854393,-0.021883230656385422,-0.014388973824679852
1761379940710630100,3.576630126953125,-0.01712021417915821,-0.013955972157418728,-0.02208307757973671
1761379940720659200,3.5866591796875,-0.014555512927472591,-0.00799387414008379,-0.024414625018835068
1761379940730670000,3.596670166015625,-0.008976454846560955,0.0017986217280849814,-0.01284016016870737
1761379940740707000,3.60670703125,-0.007943912409245968,0.006211906671524048,0.004196783993393183
1761379940750733800,3.61673388671875,-0.009426110424101353,0.006844754796475172,0.021516844630241394
1761379940760759300,3.62675927734375,-0.008310298435389996,0.0022482771892100573,0.032208651304244995
1761379940770784800,3.63678466796875,-0.005728943273425102,-0.007644142489880323,0.03452354297041893
1761379940780810200,3.646810302734375,-0.00008326952229253948,-0.01773640885949135,0.027728751301765442
1761379940790824700,3.65682470703125,0.00791060458868742,-0.02333212085068226,0.01333977747708559
1761379940800862000,3.666862060546875,0.015721285715699196,-0.02120042033493519,-0.003197549842298031
1761379940810892800,3.676892822265625,0.019568338990211487,-0.017270099371671677,-0.019884763285517693
1761379940820918500,3.68691845703125,0.018352603539824486,-0.009559341706335545,-0.03114280290901661
1761379940830939100,3.696939208984375,0.017852986231446266,-0.0019818146247416735,-0.03793759644031525
1761379940840954600,3.70695458984375,0.014971860684454441,0.00004996171628590673,-0.040135908871889114
1761379940850977800,3.716977783203125,0.010808384045958519,0.003130934201180935,-0.03557274118065834
1761379940861011700,3.72701171875,0.006495022680610418,0.0015321592800319195,-0.02324885129928589
1761379940871030800,3.73703076171875,-0.0015821210108697414,-0.00576225109398365,-0.008310298435389996
1761379940881048300,3.74704833984375,-0.008193721063435078,-0.012873467989265919,0.0021983154583722353
1761379940891093200,3.75709326171875,-0.010541921481490135,-0.017419984564185143,0.008110451512038708
1761379940901104000,3.767104248046875,-0.009559341706335545,-0.012656968086957932,0.007027947809547186
1761379940911144000,3.77714404296875,-0.004879594314843416,-0.0026146629825234413,0.002947741188108921
1761379940921170000,3.787169921875,0.003647205187007785,0.004846286494284868,-0.002348200650885701
1761379940931195600,3.797195556640625,0.006977986078709364,0.010342074558138847,-0.002981049008667469
1761379940941221400,3.807221435546875,0.0045132082886993885,0.013156584464013577,0.0010991577291861176
1761379940951248000,3.817247802734375,0.0019984685350209475,0.011124808341264725,0.011391270905733109
1761379940961272800,3.82727294921875,0.003114280290901661,0.003580589545890689,0.018985452130436897
1761379940971298300,3.83729833984375,0.0037471286486834288,-0.011208077892661095,0.017053598538041115
1761379940981324500,3.847324462890625,0.002431470202282071,-0.01953503116965294,0.006977986078709364
1761379940991339000,3.857339111328125,0.003946975339204073,-0.0053625572472810745,-0.003480666084215045
1761379941001364200,3.8673642578125,0.0054624807089567184,0.01292342972010374,-0.00023315467115025967
1761379941011401000,3.87740087890625,0.0010825038189068437,0.018169410526752472,0.01194084994494915
1761379941021416000,3.887416015625,-0.0008160413126461208,0.0156546700745821,0.024148162454366684
1761379941031452200,3.8974521484375,0.0017320060869678855,0.006245214492082596,0.025946782901883125
1761379941041478100,3.90747802734375,0.0008660030434839427,-0.002747894264757633,0.017936255782842636
1761379941051492000,3.9174921875,-0.0018652373692020774,-0.0008326952229253948,0.010775076225399971
1761379941061529300,3.927529296875,-0.007694104220718145,0.008793261833488941,0.009476072154939175
1761379941071555000,3.93755517578125,-0.013373085297644138,0.012706929817795753,0.013806086964905262
1761379941081564000,3.94756396484375,-0.01300669927150011,0.012723583728075027,0.016504019498825073
1761379941091606500,3.9576064453125,-0.005995405837893486,0.013689509592950344,0.015687977895140648
1761379941101633000,3.967633056640625,0.0005662327748723328,0.012557044625282288,0.011491194367408752
1761379941111658000,3.977657958984375,0.005162710323929787,0.01119142398238182,0.008376914076507092
1761379941121672700,3.987672607421875,0.004679747391492128,0.00696133216843009,0.010208843275904655
1761379941131698400,3.997698486328125,-0.002797855995595455,-0.0020151224453002214,0.013556278310716152
1761379941141734700,4.007734619140625,-0.004979517310857773,-0.005012825131416321,0.015921132639050484
1761379941151751700,4.017751708984375,0.0013989279977977276,0.0005662327748723328,0.015621363185346127
1761379941161785600,4.02778564453125,0.007843988947570324,0.004379977006465197,0.010275458917021751
1761379941171800800,4.03780078125,0.006778139155358076,-0.0014488897286355495,0.0002831163874361664
1761379941181838000,4.047838134765625,0.0017986217280849814,-0.003430704353377223,-0.010342074558138847
1761379941191852000,4.05785205078125,-0.003447358263656497,0.01014222763478756,-0.01342304702848196
1761379941201889300,4.06788916015625,-0.010825037956237793,0.01841921918094158,-0.0045964778400957584
1761379941211910000,4.077909912109375,-0.018019525334239006,0.010125573724508286,0.006211906671524048
1761379941221940200,4.087940185546875,-0.015438170172274113,-0.009925727732479572,0.010275458917021751
1761379941231955000,4.097954833984375,-0.005579058080911636,-0.02036772482097149,0.006678215693682432
1761379941241991200,4.1079912109375,-0.0002664624771568924,-0.023731814697384834,0.002914433367550373
1761379941252011800,4.11801171875,-0.006495022680610418,-0.02617993764579296,-0.0010991577291861176
1761379941262032000,4.128031982421875,-0.015804555267095566,-0.015088438056409359,-0.00712787127122283
1761379941272069000,4.138069091796875,-0.017886294052004814,0.009492726065218449,-0.01333977747708559
1761379941282094800,4.1480947265625,-0.020933957770466805,0.029044410213828087,-0.018569104373455048
1761379941292120000,4.1581201171875,-0.027145864441990852,0.028694678097963333,-0.017419984564185143
1761379941302137900,4.168137939453125,-0.02662959322333336,0.011924196034669876,-0.010458651930093765
1761379941312171000,4.1781708984375,-0.019884763285517693,-0.010158881545066833,-0.0015654671005904675
1761379941322196700,4.18819677734375,-0.013123276643455029,-0.0316590741276741,0.007394333835691214
1761379941332223200,4.19822314453125,-0.011757656931877136,-0.04789663106203079,0.01055857539176941
1761379941342247700,4.20824755859375,-0.014888591133058071,-0.0428338423371315,0.00791060458868742
1761379941352274000,4.21827392578125,-0.022282924503087997,-0.02271592617034912,-0.00018319295486435294
1761379941362282800,4.22828271484375,-0.03480666130781174,-0.0025813551619648933,-0.0094594182446599
1761379941372302300,4.23830224609375,-0.047830015420913696,0.011158116161823273,-0.022183001041412354
1761379941382351000,4.24835107421875,-0.0522766076028347,0.02917764149606228,-0.03349100425839424
1761379941392376800,4.258376953125,-0.047696784138679504,0.04156814515590668,-0.03668855130672455
1761379941402391300,4.268391357421875,-0.04173468425869942,0.0387369841337204,-0.032125383615493774
1761379941412428000,4.278427978515625,-0.03424042835831642,0.023098966106772423,-0.0197515320032835
1761379941422454500,4.28845458984375,-0.02712921053171158,-0.0001498851488577202,-0.004013590980321169
1761379941432479500,4.2984794921875,-0.0259634368121624,-0.02704594098031521,0.0054458267986774445
1761379941442505200,4.308505126953125,-0.025780243799090385,-0.04987844452261925,-0.0026812786236405373
1761379941452530700,4.31853076171875,-0.019485069438815117,-0.045898161828517914,-0.02083403430879116
1761379941462556200,4.32855615234375,-0.010958269238471985,-0.01598774828016758,-0.04088533669710159
1761379941472579300,4.338579345703125,-0.005728943273425102,0.012490428984165192,-0.05161045119166374
1761379941482607600,4.348607666015625,-0.003547281725332141,0.03477335348725319,-0.04493223503232002
1761379941492633900,4.3586337890625,0.000016653904822305776,0.04571496695280075,-0.02279919572174549
1761379941502651100,4.368651123046875,0.003930321428924799,0.030576569959521294,0.003414050443097949
1761379941512685300,4.378685302734375,0.007660796400159597,0,0.023681852966547012
1761379941522711000,4.3887109375,0.011807618662714958,-0.028794601559638977,0.03119276463985443
1761379941532725200,4.398725341796875,0.013822740875184536,-0.04516538977622986,0.02196650020778179
1761379941542762000,4.408761962890625,0.013106622733175755,-0.04171803221106529,-0.00044965543202124536
1761379941552788000,4.4187880859375,0.016920367255806923,-0.018302641808986664,-0.0292276032269001
1761379941562802000,4.428802001953125,0.02083403430879116,0.00970922689884901,-0.052459798753261566
1761379941572840000,4.43883984375,0.02579689770936966,0.03215869143605232,-0.058721669018268585
1761379941582865000,4.448864990234375,0.0325583852827549,0.034506890922784805,-0.048163093626499176
1761379941592890400,4.458890380859375,0.0391533300280571,0.020517610013484955,-0.0333910807967186
1761379941602916600,4.46891650390625,0.0649835392832756,0.026146629825234413,-0.047863323241472244
1761379941612941800,4.47894189453125,0.07367687672376633,0.014921898953616619,-0.05494123324751854
1761379941622967800,4.4889677734375,0.055007848888635635,-0.003114280290901661,-0.043066997081041336
1761379941632971800,4.4989716796875,0.027295749634504318,-0.01047530584037304,-0.02646305412054062
1761379941643018000,4.50901806640625,0.01317323837429285,-0.007943912409245968,-0.021217074245214462
1761379941653044200,4.519044189453125,0.015371554531157017,0.008526799269020557,-0.0432501919567585
1761379941663070500,4.529070556640625,0.012423813343048096,0.01682044379413128,-0.061136484146118164
1761379941673084400,4.53908447265625,0.0044799004681408405,0.023398736491799355,-0.06045367568731308
1761379941683122200,4.5491220703125,-0.0026646247133612633,0.014388973824679852,-0.045398544520139694
1761379941693147600,4.559147705078125,-0.007394333835691214,0.003580589545890689,-0.020850688219070435
1761379941703172900,4.5691728515625,-0.010825037956237793,0.0013489662669599056,0.004663093481212854
1761379941713176800,4.5791767578125,-0.011491194367408752,-0.0002997702977154404,0.024081546813249588
1761379941723202000,4.5892021484375,-0.009492726065218449,-0.0013323123566806316,0.03752124682068825
1761379941733227800,4.599227783203125,-0.010658498853445053,-0.004363323096185923,0.041684724390506744
1761379941743253200,4.609253173828125,-0.014955206774175167,-0.01022549718618393,0.03908671438694
1761379941753279000,4.619279052734375,-0.022066423669457436,-0.019651608541607857,0.039103370159864426
1761379941763306000,4.629305908203125,-0.028944486752152443,-0.0271791722625494,0.050128255039453506
1761379941773315600,4.639315673828125,-0.026696208864450455,-0.024947550147771835,0.06385107338428497
1761379941783346200,4.64934619140625,-0.013356431387364864,-0.020567571744322777,0.07322721928358078
1761379941793371600,4.65937158203125,-0.0004996171337552369,-0.013406393118202686,0.07719084620475769
1761379941803405300,4.6694052734375,0.006994639988988638,-0.007277756463736296,0.07514242082834244
1761379941813440300,4.679440185546875,0.00866003055125475,-0.002797855995595455,0.06898047029972076
1761379941823466500,4.689466552734375,0.0026146629825234413,0.002947741188108921,0.05640677735209465
1761379941833506800,4.6995068359375,-0.005562404170632362,0.009675919078290462,0.03900344669818878
1761379941843518200,4.709518310546875,-0.006428407039493322,0.01723679155111313,0.015754593536257744
1761379941853546800,4.719546630859375,0.0007494257297366858,0.025480475276708603,-0.008293644525110722
1761379941863584000,4.729583984375,0.006311830133199692,0.033124618232250214,-0.026746170595288277
1761379941873598200,4.73959814453125,0.01055857539176941,0.03845386579632759,-0.03627220541238785
1761379941883624000,4.7496240234375,0.009909073822200298,0.034123849123716354,-0.037071593105793
1761379941893649700,4.759649658203125,0.003147588111460209,0.0185357965528965,-0.032458461821079254
1761379941903686100,4.76968603515625,-0.00782733503729105,-0.0008493491332046688,-0.018485834822058678
1761379941913712000,4.779712158203125,-0.02141692116856575,-0.028411561623215675,-0.002814509905874729
1761379941923737900,4.78973779296875,-0.02421477809548378,-0.04216768592596054,0.007161179091781378
1761379941933764000,4.79976416015625,-0.01342304702848196,-0.036338821053504944,0.004230091813951731
1761379941943789300,4.809789306640625,0.0017819678178057075,-0.01408920343965292,-0.011474540457129478
1761379941953803500,4.819803466796875,0.013539624400436878,0.019018759950995445,-0.027379019185900688
1761379941963841300,4.82984130859375,0.019901415333151817,0.04055225849151611,-0.03875363618135452
1761379941973868000,4.839867919921875,0.020184531807899475,0.03946975618600845,-0.04266730323433876
1761379941983881200,4.849881103515625,0.019385145977139473,0.021799961104989052,-0.04341673105955124
1761379941993918000,4.85991796875,0.014222434721887112,0.0020484302658587694,-0.04404957965016365
1761379942003943200,4.869943115234375,0.00979249645024538,0.006211906671524048,-0.0431835763156414
1761379942013964000,4.879964111328125,0.0026479708030819893,0.029610643163323402,-0.0444992333650589
1761379942023975700,4.8899755859375,0.005079440772533417,0.06313495337963104,-0.05540754273533821
1761379942034020600,4.9000205078125,0.04145156964659691,0.09362825006246567,-0.06659896671772003
1761379942044034300,4.910034423828125,0.09765850007534027,0.08218701928853989,-0.06769812107086182
1761379942054072300,4.920072265625,0.14172473549842834,0.046314507722854614,-0.05629019811749458
1761379942064099000,4.93009912109375,0.16983652114868164,0.03330780938267708,-0.0362388975918293
1761379942074123500,4.94012353515625,0.18339279294013977,0.02036772482097149,-0.015071784146130085
1761379942084149000,4.95014892578125,0.18918836116790771,0.006278522312641144,0.006245214492082596
1761379942094174200,4.96017431640625,0.19186963140964508,-0.02588016726076603,0.03640543669462204
1761379942104200000,4.970199951171875,0.18131105601787567,-0.07216136902570724,0.06639911979436874
1761379942114216400,4.980216552734375,0.15674655139446259,-0.10861676931381226,0.08053828030824661
1761379942124251400,4.99025146484375,0.12761887907981873,-0.11825937777757645,0.06786466389894485
1761379942134276600,5.000276611328125,0.1037205159664154,-0.09519372135400772,0.02742898091673851
1761379942144303600,5.0103037109375,0.08744965493679047,-0.04543185234069824,-0.029544027522206306
1761379942154328000,5.020328125,0.07809016108512878,0.013040007092058659,-0.08142094314098358
1761379942164343000,5.030343017578125,0.07454288005828857,0.05324253439903259,-0.11472874879837036
1761379942174381600,5.040381591796875,0.075325608253479,0.06708192825317383,-0.11924196034669876
1761379942184405800,5.05040576171875,0.07174502313137054,0.06631585210561752,-0.09805819392204285
1761379942194431200,5.06043115234375,0.06441730260848999,0.052876148372888565,-0.06278522312641144
1761379942204457500,5.07045751953125,0.05349234119057655,0.027279095724225044,-0.025114089250564575
1761379942214477000,5.08047705078125,0.03931986913084984,0.0002831163874361664,0.016004402190446854
1761379942224508400,5.09050830078125,0.027728751301765442,-0.014938552863895893,0.05172702670097351
1761379942234536200,5.1005361328125,0.022316232323646545,-0.009742534719407558,0.07412652671337128
1761379942244545800,5.1105458984375,0.023698506876826286,0.010275458917021751,0.08536791801452637
1761379942254573800,5.12057373046875,0.02338208258152008,0.028294984251260757,0.0863671526312828
1761379942264610600,5.130610595703125,0.018985452130436897,0.036588627845048904,0.07877296954393387
1761379942274624800,5.140624755859375,0.005995405837893486,0.03602239489555359,0.06893051415681839
1761379942284658700,5.15065869140625,-0.012756891548633575,0.03114280290901661,0.054674770683050156
1761379942294688300,5.160688232421875,-0.027445634827017784,0.030126914381980896,0.0333244651556015
1761379942304713200,5.170713134765625,-0.027478942647576332,0.04056891053915024,0.007843988947570324
1761379942314731300,5.180731201171875,-0.01458882074803114,0.04773009195923805,-0.014738705940544605
1761379942324765200,5.19076513671875,-0.0011990811908617616,0.048745978623628616,-0.022066423669457436
1761379942334781400,5.200781494140625,0.007361026015132666,0.039553023874759674,-0.01244046725332737
1761379942344816600,5.210816650390625,0.009609303437173367,0.023898353800177574,0.005745597183704376
1761379942354833000,5.2208330078125,0.00962595734745264,0.010508613660931587,0.025280628353357315
1761379942364868000,5.2308681640625,0.007810681592673063,-0.0010325420880690217,0.036755166947841644
1761379942374865000,5.240864990234375,0.007877296768128872,-0.006894716527312994,0.03364088758826256
1761379942384907500,5.250907470703125,0.013656201772391796,-0.002747894264757633,0.017553215846419334
1761379942394950400,5.260950439453125,0.02116711251437664,0.0038637060206383467,0.003530627815052867
1761379942404970500,5.270970458984375,0.021516844630241394,-0.0000666156192892231,-0.006594946142286062
1761379942414996000,5.280995849609375,0.01850248873233795,-0.00882656965404749,-0.013106622733175755
1761379942425021400,5.291021484375,0.016470711678266525,-0.013239854015409946,-0.0173200611025095
1761379942435047200,5.301047119140625,0.014955206774175167,-0.015404862351715565,-0.020983919501304626
1761379942445073200,5.3110732421875,0.011291347444057465,-0.008776607923209667,-0.02997702918946743
1761379942455099400,5.321099365234375,0.011757656931877136,0.006378445774316788,-0.03643874451518059
1761379942465124900,5.331124755859375,0.006578292232006788,0.010275458917021751,-0.0408187210559845
1761379942475150600,5.341150634765625,-0.004046898800879717,0.006928024347871542,-0.03815409541130066
1761379942485160200,5.35116015625,-0.010275458917021751,0.006145291030406952,-0.029294218868017197
1761379942495201300,5.361201171875,-0.009242917411029339,0.004046898800879717,-0.01811944879591465
1761379942505227300,5.371227294921875,-0.0009825803572311997,-0.0045132082886993885,-0.00782733503729105
1761379942515252700,5.381252685546875,0.009742534719407558,-0.014405627734959126,-0.0006161945057101548
1761379942525278500,5.391278564453125,0.017719754949212074,-0.018402565270662308,0.0000666156192892231
1761379942535304400,5.401304443359375,0.021683383733034134,-0.019485069438815117,-0.0038470521103590727
1761379942545318400,5.411318359375,0.022349540144205093,-0.018635720014572144,-0.010608537122607231
1761379942555347000,5.421346923828125,0.01632082648575306,-0.018935490399599075,-0.015238323248922825
1761379942565381400,5.43138134765625,0.0075442190282046795,-0.011574463918805122,-0.017852986231446266
1761379942575397600,5.441397705078125,0.005545750260353088,0.003247511340305209,-0.01765313930809498
1761379942585432800,5.451432861328125,0.0115245021879673,0.01300669927150011,-0.014289050363004208
1761379942595449600,5.46144970703125,0.013406393118202686,0.008310298435389996,-0.006495022680610418
1761379942605484500,5.471484619140625,0.010458651930093765,-0.003097626380622387,0.003930321428924799
1761379942615491300,5.4814912109375,0.002947741188108921,-0.006211906671524048,0.011790964752435684
1761379942625535200,5.49153515625,-0.0019984685350209475,-0.0006661561783403158,0.014805321581661701
1761379942635561500,5.5015615234375,-0.0045465161092579365,0.009825804270803928,0.0164873655885458
1761379942645586700,5.511586669921875,-0.00987576600164175,0.017220137640833855,0.019884763285517693
1761379942655619800,5.521619873046875,-0.01127469353377819,0.015687977895140648,0.024064892902970314
1761379942665638700,5.531638671875,-0.006328484043478966,0.006361791864037514,0.028528138995170593
1761379942675663400,5.541663330078125,0.00003330780964461155,-0.009759188629686832,0.029210949316620827
1761379942685676500,5.551676513671875,0.0075941807590425014,-0.01728675328195095,0.0267961323261261
1761379942695710200,5.561710205078125,0.01160777173936367,-0.019968030974268913,0.02053426392376423
1761379942705741600,5.571741455078125,0.005812212824821472,-0.020550917834043503,0.008926493115723133
1761379942715756000,5.581756103515625,-0.005712289363145828,-0.010425344109535217,-0.004213437903672457
1761379942725791500,5.59179150390625,-0.014655436389148235,0.012790199369192123,-0.01530493889003992
1761379942735818000,5.60181787109375,-0.02108384296298027,0.0288445632904768,-0.026662901043891907
1761379942745833000,5.6118330078125,-0.02629651501774788,0.03264165297150612,-0.036305513232946396
1761379942755858200,5.621858154296875,-0.02078407257795334,0.028078483417630196,-0.04086868092417717
1761379942765894400,5.631894287109375,-0.009659265168011189,0.021550152450799942,-0.037388015538454056
1761379942775909000,5.6419091796875,-0.004313361365348101,0.007843988947570324,-0.025030819699168205
1761379942785946600,5.651946533203125,-0.003613897366449237,-0.006361791864037514,-0.007960566319525242
1761379942795972900,5.661972900390625,-0.005562404170632362,-0.018002871423959732,0.0018485834589228034
1761379942805997600,5.67199755859375,-0.006195252761244774,-0.015205015428364277,0.0027312403544783592
1761379942816012000,5.682011962890625,-0.005079440772533417,-0.00729441037401557,-0.003364088712260127
1761379942826048800,5.692048828125,-0.006478368770331144,-0.008943147026002407,-0.006111983209848404
1761379942836075300,5.7020751953125,-0.008360260166227818,-0.01169104129076004,-0.002781202085316181
1761379942846100000,5.712099853515625,-0.005545750260353088,-0.01342304702848196,0.005712289363145828
1761379942856126000,5.7221259765625,-0.0025813551619648933,-0.01612097956240177,0.013439700938761234
1761379942866129000,5.73212890625,0.0009659265051595867,-0.011757656931877136,0.01811944879591465
1761379942876177400,5.742177490234375,0.00712787127122283,-0.005629019811749458,0.01723679155111313
1761379942886195200,5.7521953125,0.011807618662714958,-0.002348200650885701,0.00874330010265112
1761379942896221200,5.76222119140625,0.014722052030265331,-0.004046898800879717,-0.003380742622539401
1761379942906254800,5.7722548828125,0.016387442126870155,-0.00489624822512269,-0.014122511260211468
1761379942916259800,5.782259765625,0.015138399787247181,-0.006511676590889692,-0.01756986975669861
1761379942926305500,5.792305419921875,0.008260336704552174,-0.010708460584282875,-0.0156546700745821
1761379942936331800,5.802331787109375,0.0020317763555794954,-0.01778637059032917,-0.013406393118202686
1761379942946352600,5.8123525390625,-0.0005162710440345109,-0.019518377259373665,-0.01350631657987833
1761379942956382500,5.822382568359375,-0.0002831163874361664,-0.010791730135679245,-0.009276225231587887
1761379942966408400,5.832408447265625,-0.003147588111460209,-0.0045631700195372105,-0.004429938737303019
1761379942976436000,5.84243603515625,-0.00929287914186716,-0.00626186840236187,0.0005162710440345109
1761379942986460400,5.85246044921875,-0.013972626067698002,-0.014821975491940975,-0.0019151991000398993
1761379942996486000,5.86248583984375,-0.00679479306563735,-0.008260336704552174,-0.011874234303832054
1761379943006511400,5.872511474609375,0.006445060949772596,0.01047530584037304,-0.02120042033493519
1761379943016535000,5.88253515625,0.012157350778579712,0.01916864514350891,-0.021899884566664696
1761379943026562600,5.8925625,0.007860642857849598,0.015937786549329758,-0.0076108346693217754
1761379943036575700,5.90257568359375,0.008393567986786366,0.005495788529515266,0.016837097704410553
1761379943046602500,5.9126025390625,0.014938552863895893,-0.002747894264757633,0.03715486079454422
1761379943056640000,5.922639892578125,0.024397971108555794,-0.0044465926475822926,0.048662710934877396
1761379943066665500,5.93266552734375,0.030443338677287102,-0.006894716527312994,0.049162328243255615
1761379943076691000,5.94269091796875,0.031042879447340965,-0.013706163503229618,0.03723813220858574
1761379943086706000,5.952705810546875,0.031076187267899513,-0.011491194367408752,0.018335949629545212
1761379943096742700,5.96274267578125,0.031209418550133705,-0.0018485834589228034,-0.004280053544789553
1761379943106765000,5.97276513671875,0.03272492438554764,0.013306469656527042,-0.02538055181503296
1761379943116793600,5.982793701171875,0.033008038997650146,0.022516079246997833,-0.03369085118174553
1761379943126819000,5.992819091796875,0.02926091104745865,0.015754593536257744,-0.030876340344548225
1761379943136845000,6.002844970703125,0.026829440146684647,0.0022149693686515093,-0.01745329238474369
1761379943146855200,6.012855224609375,0.027628827840089798,-0.010292112827301025,-0.004280053544789553
1761379943156888600,6.022888671875,0.02901110239326954,-0.01538820844143629,0.000016653904822305776
1761379943166922000,6.032921875,0.02972722053527832,-0.012507082894444466,-0.002481431933119893
1761379943176936700,6.042936767578125,0.030959609895944595,-0.006378445774316788,-0.009126340039074421
1761379943186973200,6.05297314453125,0.02914433367550373,0.005862174555659294,-0.008709992282092571
1761379943196999700,6.062999755859375,0.023482006043195724,0.011258039623498917,0.0007494257297366858
1761379943207025200,6.073025146484375,0.0177031010389328,0.005096094682812691,0.014638782478868961
1761379943217039600,6.08303955078125,0.011924196034669876,-0.003114280290901661,0.02546382136642933
1761379943227076400,6.093076416015625,0.010924961417913437,-0.010641844943165779,0.026612939313054085
1761379943237101600,6.1031015625,0.011641079559922218,-0.016687212511897087,0.016920367255806923
1761379943247101200,6.11310107421875,0.010691806674003601,-0.013189892284572124,0.002398162381723523
1761379943257153000,6.123153076171875,0.009076378308236599,0.0005995405954308808,-0.005629019811749458
1761379943267178200,6.13317822265625,0.005545750260353088,0.013056661002337933,-0.005096094682812691
1761379943277192700,6.143192626953125,-0.0005995405954308808,0.015521439723670483,0.005812212824821472
1761379943287230500,6.15323046875,-0.006828100886195898,0.007161179091781378,0.01870233565568924
1761379943297256200,6.163256103515625,-0.012373851612210274,-0.004779670853167772,0.02374846860766411
1761379943307271000,6.17327099609375,-0.017086906358599663,-0.013206546194851398,0.016337480396032333
1761379943317307100,6.18330712890625,-0.020850688219070435,-0.015804555267095566,-0.003680513007566333
1761379943327333000,6.1933330078125,-0.02374846860766411,-0.012590352445840836,-0.03147587925195694
1761379943337359000,6.203359130859375,-0.022982388734817505,-0.0025313934311270714,-0.052326567471027374
1761379943347362800,6.21336279296875,-0.019401799887418747,0.012573698535561562,-0.0576225109398365
1761379943357410300,6.223410400390625,-0.01467209029942751,0.018319295719265938,-0.04371650144457817
1761379943367424000,6.233424072265625,-0.01433901209384203,0.007261102553457022,-0.017436638474464417
1761379943377451300,6.243451171875,-0.01367285568267107,-0.0103087667375803,0.009942381642758846
1761379943387487000,6.253487060546875,-0.012124042958021164,-0.024431278929114342,0.02797855995595455
1761379943397513000,6.263512939453125,-0.01765313930809498,-0.02881125546991825,0.033008038997650146
1761379943407538200,6.2735380859375,-0.02568032033741474,-0.018102794885635376,0.028444869443774223
1761379943417553000,6.283552978515625,-0.0325583852827549,-0.003497319994494319,0.016470711678266525
1761379943427578000,6.293578125,-0.03465677425265312,0.007311064284294844,0.00489624822512269
1761379943437615600,6.30361572265625,-0.027961906045675278,0.014738705940544605,-0.0026812786236405373
1761379943447641000,6.31364111328125,-0.017253445461392403,0.016587289050221443,-0.005778905004262924
1761379943457655300,6.3236552734375,-0.013456354849040508,0.010825037956237793,-0.0044465926475822926
1761379943467693000,6.333693115234375,-0.018885528668761253,-0.0054624807089567184,-0.0011657733703032136
1761379943477718300,6.34371826171875,-0.02468108758330345,-0.018352603539824486,-0.002414816292002797
1761379943487744000,6.353743896484375,-0.02493089623749256,-0.016004402190446854,-0.0075109112076461315
1761379943497760300,6.36376025390625,-0.02058422565460205,-0.002797855995595455,-0.00920960959047079
1761379943507795500,6.37379541015625,-0.01620424911379814,0.01169104129076004,-0.0017320060869678855
1761379943517821000,6.383821044921875,-0.012257274240255356,0.021783307194709778,0.012806852348148823
1761379943527837200,6.393837158203125,-0.011091500520706177,0.017636485397815704,0.026246553286910057
1761379943537863000,6.40386279296875,-0.010275458917021751,0.005579058080911636,0.034340351819992065
1761379943547900000,6.41389990234375,-0.012240620329976082,-0.0075608729384839535,0.0329081155359745
1761379943557923800,6.423923828125,-0.01252373680472374,-0.013972626067698002,0.021366959437727928
1761379943567940600,6.433940673828125,-0.011424578726291656,-0.01119142398238182,0.005912136286497116
1761379943577963800,6.4439638671875,-0.01055857539176941,-0.0001498851488577202,-0.010675152763724327
1761379943587998200,6.453998291015625,-0.013939318247139454,0.016254210844635963,-0.023998277261853218
1761379943598005000,6.4640048828125,-0.018602412194013596,0.02709590271115303,-0.030543262138962746
1761379943608051500,6.474051513671875,-0.022532733157277107,0.02814509905874729,-0.030293453484773636
1761379943618078500,6.484078369140625,-0.021100496873259544,0.0283949077129364,-0.025830205529928207
1761379943628111400,6.494111328125,-0.01252373680472374,0.031625766307115555,-0.016087671741843224
1761379943638118000,6.504117919921875,-0.0038137442898005247,0.02321554347872734,-0.0011657733703032136
1761379943648154600,6.514154541015625,0.002464778022840619,0.011091500520706177,0.015887824818491936
1761379943658179300,6.524179443359375,0.008060489781200886,-0.00018319295486435294,0.03119276463985443
1761379943668206600,6.53420654296875,0.009076378308236599,-0.012507082894444466,0.037587862461805344
1761379943678232300,6.544232421875,0.00866003055125475,-0.019351838156580925,0.03402392938733101
1761379943688257000,6.554257080078125,0.0103087667375803,-0.015687977895140648,0.02671286277472973
1761379943698275300,6.564275390625,0.014305704273283482,-0.007677450310438871,0.024314701557159424
1761379943708309200,6.574309326171875,0.015288284979760647,0.003014356829226017,0.02822836861014366
1761379943718334000,6.584333984375,0.01483862940222025,0.011241385713219643,0.03818740323185921
1761379943728352000,6.59435205078125,0.0144222816452384,0.0135895861312747,0.047696784138679504
1761379943738386000,6.604385986328125,0.014638782478868961,0.010092265903949738,0.05464146286249161
1761379943748399600,6.614399658203125,0.017253445461392403,0.00019984686514362693,0.05131068080663681
1761379943758439400,6.624439453125,0.020017992705106735,-0.011124808341264725,0.03668855130672455
1761379943768457200,6.634457275390625,0.023531967774033546,-0.01690371334552765,0.01400593388825655
1761379943778488300,6.64448828125,0.028078483417630196,-0.012040773406624794,-0.007744065951555967
1761379943788504800,6.6545048828125,0.030709801241755486,-0.002448124112561345,-0.014055895619094372
1761379943798529000,6.664529052734375,0.02889452502131462,0.0008660030434839427,-0.007144525181502104
1761379943808554200,6.67455419921875,0.02354862168431282,-0.0019651607144623995,0.006894716527312994
1761379943818591200,6.68459130859375,0.020401032641530037,-0.008143759332597256,0.022316232323646545
1761379943828617000,6.694616943359375,0.018269333988428116,-0.016837097704410553,0.030410030856728554
1761379943838642200,6.70464208984375,0.015704631805419922,-0.02271592617034912,0.03072645515203476
1761379943848667600,6.714667724609375,0.008676684461534023,-0.025247320532798767,0.024081546813249588
1761379943858683400,6.724683349609375,-0.003364088712260127,-0.025280628353357315,0.011957503855228424
1761379943868720000,6.73472021484375,-0.015521439723670483,-0.018186064437031746,-0.0019151991000398993
1761379943878745300,6.744745361328125,-0.02526397444307804,-0.006894716527312994,-0.017386676743626595
1761379943888771300,6.754771240234375,-0.02814509905874729,0.007777373772114515,-0.02881125546991825
1761379943898787300,6.764787353515625,-0.025280628353357315,0.012573698535561562,-0.0320754200220108
1761379943908810000,6.77481005859375,-0.02083403430879116,0.005096094682812691,-0.022599348798394203
1761379943918848300,6.78484814453125,-0.020967265591025352,-0.00807714369148016,-0.0021816615480929613
1761379943928863000,6.794863037109375,-0.027145864441990852,-0.017170175909996033,0.01875229738652706
1761379943938900200,6.804900146484375,-0.02976052835583687,-0.0074776033870875835,0.0345735065639019
1761379943948925000,6.814925048828125,-0.027945252135396004,0.0075608729384839535,0.038553789258003235
1761379943958934300,6.824934326171875,-0.02687940187752247,0.006311830133199692,0.039020098745822906
1761379943968976400,6.834976318359375,-0.024331355467438698,-0.008476837538182735,0.038770291954278946
1761379943979002600,6.845002685546875,-0.023198889568448067,-0.023265505209565163,0.03578924015164375
1761379943989016800,6.855016845703125,-0.024447932839393616,-0.026146629825234413,0.025913475081324577
1761379943999054800,6.865054931640625,-0.023598583415150642,-0.018968798220157623,0.0053958650678396225
1761379944009079800,6.875079833984375,-0.023198889568448067,-0.009409456513822079,-0.02103388123214245
1761379944019105000,6.88510498046875,-0.02199980802834034,0.00046630934230051935,-0.044782351702451706
1761379944029119000,6.895118896484375,-0.019052067771553993,0.01695367507636547,-0.06043701991438866
1761379944039156200,6.90515625,-0.017020290717482567,0.021566806361079216,-0.060803405940532684
1761379944049181700,6.915181640625,-0.018552450463175774,0.00841022189706564,-0.043982964009046555
1761379944059206700,6.92520654296875,-0.0197515320032835,-0.0082436827942729,-0.015588055364787579
1761379944069233400,6.9352333984375,-0.018086140975356102,-0.013206546194851398,0.010508613660931587
1761379944079248000,6.945247802734375,-0.01367285568267107,-0.013239854015409946,0.022149693220853806
1761379944089284600,6.95528466796875,-0.009026416577398777,-0.01047530584037304,0.018635720014572144
1761379944099289000,6.9652890625,-0.0019818146247416735,0.00009992343257181346,0.0054125189781188965
1761379944109336000,6.975336181640625,-0.0018985451897606254,0.01632082648575306,-0.008460183627903461
1761379944119362300,6.9853623046875,-0.004946209955960512,0.033124618232250214,-0.014888591133058071
1761379944129398800,6.995398681640625,-0.009309533052146435,0.029294218868017197,-0.0053958650678396225
1761379944139412500,7.00541259765625,-0.01135796308517456,0.0115245021879673,0.014305704273283482
1761379944149438200,7.015438232421875,-0.002997702918946743,0.010092265903949738,0.03437365964055061
1761379944159454500,7.025454345703125,0.006045367568731308,0.013889356516301632,0.04416615515947342
1761379944169478100,7.03547802734375,0.010908307507634163,0.028328292071819305,0.04120175912976265
1761379944179492600,7.04549267578125,0.014488897286355495,0.04902909696102142,0.03364088758826256
1761379944189541000,7.055541015625,0.012090735137462616,0.05870501324534416,0.02324885129928589
1761379944199567400,7.0655673828125,0.009809150360524654,0.05034475401043892,0.014988514594733715
1761379944209592300,7.07559228515625,0.008859877474606037,0.046197932213544846,0.00882656965404749
1761379944219618000,7.0856181640625,-0.0002165007608709857,0.04270061105489731,0.003713820828124881
1761379944229643800,7.095643798828125,-0.003996937070041895,0.020634187385439873,0.005245979875326157
1761379944239669800,7.105669677734375,-0.005629019811749458,0.018352603539824486,0.006211906671524048
1761379944249684000,7.11568408203125,-0.012057427316904068,0.038553789258003235,0.004613131750375032
1761379944259704000,7.1257041015625,-0.02229957841336727,0.07066252082586288,0.0007327718194574118
1761379944269747000,7.135746826171875,-0.023981623351573944,0.09874100238084793,-0.002314892830327153
1761379944279772200,7.145772216796875,-0.025980090722441673,0.1157279834151268,-0.005878828465938568
1761379944289798100,7.155798095703125,-0.027379019185900688,0.11183097213506699,-0.006195252761244774
1761379944299792000,7.1657919921875,-0.029610643163323402,0.08625057339668274,-0.011957503855228424
1761379944309850000,7.17585009765625,-0.027945252135396004,0.0633847638964653,-0.02158346027135849
1761379944319860700,7.18586083984375,-0.018902182579040527,0.05242649093270302,-0.023831738159060478
1761379944329901300,7.1959013671875,-0.01277354545891285,0.03327450156211853,-0.018735643476247787
1761379944339926300,7.20592626953125,-0.006245214492082596,0.018635720014572144,-0.010775076225399971
1761379944349956900,7.215956787109375,0.006195252761244774,0.025613704696297646,-0.00729441037401557
1761379944359966700,7.225966796875,0.0197515320032835,0.044948890805244446,-0.0054458267986774445
1761379944370003200,7.236003173828125,0.024098200723528862,0.051077526062726974,-0.0015155053697526455
1761379944380029200,7.246029296875,0.019151991233229637,0.04701397195458412,-0.0014155819080770016
1761379944390044000,7.2560439453125,0.011890888214111328,0.0407521054148674,-0.005612365901470184
1761379944400080400,7.266080322265625,0.0022982389200478792,0.02964395098388195,0.003164242021739483
1761379944410106000,7.276106201171875,-0.02246611751616001,0.049611981958150864,0.04624789208173752
1761379944420132000,7.286132080078125,-0.04205111041665077,-0.007227794732898474,0.05489126965403557
1761379944430147300,7.296147216796875,-0.04083537310361862,-0.04842955619096756,0.06420080363750458
1761379944440183000,7.30618310546875,-0.024564510211348534,-0.10325420647859573,0.04934551939368248
1761379944450209000,7.316208984375,-0.00849349144846201,-0.13133269548416138,0.02551378309726715
1761379944460223200,7.32622314453125,-0.0019651607144623995,-0.09634283930063248,-0.0006328483577817678
1761379944470260200,7.33626025390625,-0.006644907873123884,-0.03444027528166771,-0.0193684920668602
1761379944480286000,7.346285888671875,-0.006911370437592268,0.011757656931877136,-0.030210183933377266
1761379944490300700,7.35630078125,-0.0005495788645930588,0.030576569959521294,-0.04301703721284866
1761379944500337200,7.366337158203125,0.003114280290901661,0.03182561323046684,-0.06326818466186523
1761379944510363000,7.37636279296875,-0.002348200650885701,0.024281393736600876,-0.08433537185192108
1761379944520377600,7.386377685546875,-0.023948315531015396,0.01433901209384203,-0.08250344544649124
1761379944530414000,7.3964140625,-0.01841921918094158,0.004163476172834635,-0.048662710934877396
1761379944540440300,7.4064404296875,-0.00576225109398365,-0.043599922209978104,-0.0164873655885458
