time,seconds_elapsed,z,y,x
1761379664937588500,0.15258837890625,0.16853751242160797,-0.8743466734886169,0.5399196147918701
1761379664957661400,0.172661376953125,0.17041940987110138,-0.5364389419555664,0.5679814219474792
1761379664967650800,0.18265087890625,0.1478034108877182,-0.28120118379592896,0.5161211490631104
1761379664977713400,0.19271337890625,0.14380647242069244,-0.04754689708352089,0.3908504843711853
1761379664987719700,0.2027197265625,0.16369123756885529,0.15288284420967102,0.2233954817056656
1761379664997765000,0.21276513671875,0.1970156878232956,0.34138840436935425,0.04812978580594063
1761379665007791000,0.222791015625,0.21620099246501923,0.5054126977920532,-0.09744199365377426
1761379665017816600,0.232816650390625,0.20087939500808716,0.6194586157798767,-0.17419984936714172
1761379665027842300,0.24284228515625,0.13692840933799744,0.6926858425140381,-0.1931353360414505
1761379665037868500,0.25286865234375,0.036588627845048904,0.7377846240997314,-0.20374387502670288
1761379665047895000,0.26289501953125,-0.05547415837645531,0.7671288251876831,-0.22322894632816315
1761379665057921800,0.272921875,-0.11717687547206879,0.7732074856758118,-0.2533058822154999
1761379665067947000,0.282947021484375,-0.15229995548725128,0.7588684558868408,-0.2919429540634155
1761379665077973800,0.292973876953125,-0.17616499960422516,0.7113715410232544,-0.3425208628177643
1761379665087998000,0.302998046875,-0.21185432374477386,0.5886155962944031,-0.41128483414649963
1761379665098023700,0.313023681640625,-0.2679779827594757,0.39090046286582947,-0.491573303937912
1761379665108049400,0.32304931640625,-0.33562615513801575,0.1502348780632019,-0.5669822096824646
1761379665118075100,0.3330751953125,-0.4123673439025879,-0.09750860929489136,-0.6422744989395142
1761379665128101000,0.34310107421875,-0.4886755347251892,-0.31660738587379456,-0.739466667175293
1761379665138106000,0.353106201171875,-0.5350899696350098,-0.42773890495300293,-0.8315461277961731
1761379665148152600,0.363152587890625,-0.5103089809417725,-0.3421211540699005,-0.8402727842330933
1761379665158178600,0.373178466796875,-0.42247626185417175,-0.08465179800987244,-0.7107719779014587
1761379665168187600,0.383187744140625,-0.32050439715385437,0.24661102890968323,-0.43178579211235046
1761379665178235000,0.39323486328125,-0.23045673966407776,0.5800721645355225,-0.037071593105793
1761379665188240000,0.403239990234375,-0.14462250471115112,0.8467178344726562,0.3907006084918976
1761379665198303500,0.413303466796875,-0.05357561260461807,0.9519538283348083,0.7841491103172302
1761379665208296700,0.423296630859375,0.06488361209630966,0.910435676574707,1.1021887063980103
1761379665218333700,0.433333740234375,0.19010432064533234,0.778103768825531,1.3182564973831177
1761379665228359700,0.443359619140625,0.28564777970314026,0.6340141296386719,1.4151655435562134
1761379665238364700,0.45336474609375,0.36062365770339966,0.5536423921585083,1.4019091129302979
1761379665248390700,0.463390625,0.4527863562107086,0.5733106732368469,1.2905943393707275
1761379665258437400,0.473437255859375,0.5413018465042114,0.7165342569351196,1.0579060316085815
1761379665268463000,0.483463134765625,0.536888599395752,0.9088868498802185,0.6893051266670227
1761379665278489000,0.493489013671875,0.3482165038585663,0.9826303720474243,0.3014523386955261
1761379665288514800,0.503514892578125,-0.015238323248922825,0.8450357913970947,0.106351837515831
1761379665298539300,0.513539306640625,-0.4767346680164337,0.4804151952266693,0.19380149245262146
1761379665308571600,0.523571533203125,-0.9315694570541382,-0.11564471572637558,0.4411785900592804
1761379665318592300,0.53359228515625,-1.2469943761825562,-0.8070315718650818,0.6913202404975891
1761379665328618500,0.543618408203125,-1.2945746183395386,-1.297489047050476,0.9064720273017883
1761379665338624500,0.55362451171875,-0.9538524150848389,-1.3405060768127441,1.1686044931411743
1761379665348649000,0.56364892578125,-0.2559038996696472,-0.9940716028213501,1.4871604442596436
1761379665358695700,0.57369580078125,0.5593047142028809,-0.5943279266357422,1.7810518741607666
1761379665368722000,0.583721923828125,1.1749663352966309,-0.42872145771980286,1.8640881776809692
1761379665378747600,0.59374755859375,1.4612302780151367,-0.5872833132743835,1.619858741760254
1761379665388773600,0.603773681640625,1.4138832092285156,-0.9071215391159058,1.0082107782363892
1761379665398778600,0.613778564453125,1.1568301916122437,-1.2238954305648804,0.15984417498111725
1761379665408825000,0.6238251953125,0.8752626180648804,-1.4456255435943604,-0.7146689891815186
1761379665418850800,0.633850830078125,0.6337476968765259,-1.5981587171554565,-1.4892420768737793
1761379665428877800,0.6438779296875,0.3667023181915283,-1.553642749786377,-2.0267136096954346
1761379665438883800,0.6538837890625,0.12012461572885513,-1.1473208665847778,-2.211721897125244
1761379665448908300,0.663908203125,0.02083403430879116,-0.5310430526733398,-2.133148670196533
1761379665458934800,0.673934814453125,0.06696534901857376,-0.09361159801483154,-2.004563808441162
1761379665468955600,0.68395556640625,0.17038610577583313,0.11577794700860977,-1.8836898803710938
1761379665478985200,0.693985107421875,0.2624821960926056,0.21053867042064667,-1.707474946975708
1761379665489012700,0.7040126953125,0.27980226278305054,0.21899884939193726,-1.4793996810913086
1761379665499028000,0.714028076171875,0.21626760065555573,0.17964567244052887,-1.25174081325531
1761379665509053000,0.724052978515625,0.09602641314268112,0.09311198443174362,-1.0764085054397583
1761379665519096800,0.734096923828125,-0.07704096287488937,0.04972856119275093,-1.0032145977020264
1761379665529122600,0.74412255859375,-0.2801353335380554,0.18692342936992645,-1.061619758605957
1761379665539161900,0.754161865234375,-0.45641690492630005,0.48439547419548035,-1.2128705978393555
1761379665549187300,0.764187255859375,-0.5792227983474731,0.8104956150054932,-1.3676353693008423
1761379665559218000,0.774218017578125,-0.6765149235725403,1.1051198244094849,-1.4956039190292358
1761379665569218600,0.784218505859375,-0.7767547965049744,1.336875557899475,-1.5702800750732422
1761379665579246000,0.79424609375,-0.8896682262420654,1.532792091369629,-1.5445830821990967
1761379665589275400,0.804275390625,-1.0215171575546265,1.7135202884674072,-1.388802409172058
1761379665599292000,0.8142919921875,-1.1744333505630493,1.820238471031189,-1.1217737197875977
1761379665609342500,0.824342529296875,-1.3058992624282837,1.780951976776123,-0.7947576642036438
1761379665619368000,0.834367919921875,-1.3933156728744507,1.5583891868591309,-0.4343005418777466
1761379665629394000,0.844393798828125,-1.381191611289978,1.1741002798080444,-0.09695903211832047
1761379665639420400,0.85442041015625,-1.2841160297393799,0.712370753288269,0.15383212268352509
1761379665649446000,0.86444580078125,-1.2068418264389038,0.2690271735191345,0.277254194021225
1761379665659471600,0.8744716796875,-1.227442741394043,-0.1510009616613388,0.2888120114803314
1761379665669497600,0.88449755859375,-1.3484166860580444,-0.5833529829978943,0.2465943694114685
1761379665679523300,0.8945234375,-1.5188194513320923,-0.9550348520278931,0.1682877093553543
1761379665689549000,0.904549072265625,-1.6777642965316772,-1.2118713855743408,0.05962098017334938
1761379665699575000,0.914574951171875,-1.8212543725967407,-1.3154586553573608,-0.05778905004262924
1761379665709600800,0.924600830078125,-1.9386810064315796,-1.2223799228668213,-0.15298277139663696
1761379665719629300,0.93462939453125,-2.0047969818115234,-0.9343506693840027,-0.2222297042608261
1761379665729631700,0.9446318359375,-2.0014495849609375,-0.5284950137138367,-0.2819173038005829
1761379665739657700,0.95465771484375,-1.935583472251892,-0.14943549036979675,-0.37742745876312256
1761379665749704000,0.964703857421875,-1.8113453388214111,0.04583154618740082,-0.5183528065681458
1761379665759730000,0.97472998046875,-1.646538257598877,-0.002431470202282071,-0.6710025072097778
1761379665769755100,0.984755126953125,-1.4728047847747803,-0.2159844934940338,-0.7769712805747986
1761379665779782000,0.994781982421875,-1.3131604194641113,-0.46419429779052734,-0.7828834056854248
1761379665789807600,1.0048076171875,-1.2156184911727905,-0.6447725892066956,-0.6969825625419617
1761379665799815700,1.014815673828125,-1.2208811044692993,-0.7419980764389038,-0.5856512188911438
1761379665809859000,1.024859130859375,-1.2969727516174316,-0.8008196949958801,-0.5227327942848206
1761379665819885600,1.034885498046875,-1.3531631231307983,-0.8004199862480164,-0.4806816577911377
1761379665829913000,1.0449130859375,-1.3215206861495972,-0.6667057871818542,-0.3434201776981354
1761379665839916000,1.054916015625,-1.1405593156814575,-0.30729785561561584,0.010858345776796341
1761379665849966000,1.064966064453125,-0.7839492559432983,0.2704594135284424,0.5647672414779663
1761379665859994000,1.074994140625,-0.2702595591545105,0.8296975493431091,1.1177934408187866
1761379665870015000,1.085014892578125,0.33958977460861206,1.1853916645050049,1.4797494411468506
1761379665880040400,1.09504052734375,0.942611038684845,1.2208977937698364,1.5696139335632324
1761379665890066200,1.105066162109375,1.4116016626358032,0.899793803691864,1.4350169897079468
1761379665900093200,1.11509326171875,1.6587289571762085,0.2016121745109558,1.1404926776885986
1761379665910118000,1.125117919921875,1.6659067869186401,-0.8925160765647888,0.7423977851867676
1761379665920144600,1.13514453125,1.5076446533203125,-1.8298311233520508,0.4253573715686798
1761379665930141200,1.14514111328125,1.1649906635284424,-2.099890947341919,0.39318203926086426
1761379665940198700,1.15519873046875,0.7305235266685486,-1.8637551069259644,0.6023051142692566
1761379665950227200,1.165227294921875,0.5121575593948364,-1.3182731866836548,1.0225664377212524
1761379665960239900,1.175239990234375,0.8171238303184509,-0.48905855417251587,1.4222767353057861
1761379665970252800,1.185252685546875,1.525464415550232,0.37664470076560974,1.4812482595443726
1761379665980303600,1.1953037109375,2.268911361694336,1.183109998703003,1.151167869567871
1761379665990324700,1.20532470703125,2.6145131587982178,1.6566804647445679,0.41872912645339966
1761379666000350500,1.2153505859375,2.336942434310913,1.4385809898376465,-0.6103489398956299
1761379666010376400,1.22537646484375,1.6120647192001343,0.7786699533462524,-1.5858347415924072
1761379666020402700,1.235402587890625,0.7331881523132324,0.10265466570854187,-2.2534897327423096
1761379666030427600,1.245427734375,-0.10248813033103943,-0.29943719506263733,-2.6621432304382324
1761379666040454000,1.255453857421875,-0.7681280374526978,-0.3644040822982788,-2.928539276123047
1761379666050459400,1.26545947265625,-1.1805952787399292,-0.09985681623220444,-3.1110825538635254
1761379666060507400,1.27550732421875,-1.284582257270813,0.42355877161026,-3.2211151123046875
1761379666070532900,1.285532958984375,-1.1110485792160034,1.0714455842971802,-3.230607748031616
1761379666080542700,1.295542724609375,-0.712986946105957,1.6604275703430176,-3.093362808227539
1761379666090585000,1.305585205078125,-0.18878866732120514,2.0130741596221924,-2.790128707885742
1761379666100609000,1.315609130859375,0.29855453968048096,2.026963472366333,-2.3336284160614014
1761379666110636500,1.325636474609375,0.6135798096656799,1.741815209388733,-1.7945082187652588
1761379666120687900,1.33568798828125,0.7043436169624329,1.3030182123184204,-1.2748897075653076
1761379666130690000,1.34568994140625,0.5965595245361328,0.8154751062393188,-0.8920497298240662
1761379666140714500,1.355714599609375,0.378210186958313,0.40812060236930847,-0.7008129954338074
1761379666150740500,1.365740478515625,0.11491194367408752,0.21508517861366272,-0.6993807554244995
1761379666160766500,1.375766357421875,-0.13463017344474792,0.25508785247802734,-0.8614398837089539
1761379666170791200,1.385791259765625,-0.2713087499141693,0.5548581480979919,-1.0796393156051636
1761379666180817400,1.3958173828125,-0.267961323261261,0.9783836007118225,-1.2254942655563354
1761379666190844400,1.405844482421875,-0.2434634417295456,1.240349531173706,-1.1667559146881104
1761379666200872200,1.4158720703125,-0.3080139756202698,1.184708833694458,-0.8938816785812378
1761379666210897400,1.4258974609375,-0.4472073018550873,0.8903011083602905,-0.48594430088996887
1761379666220921600,1.435921630859375,-0.5873665809631348,0.5107419490814209,-0.04071879759430885
1761379666230948900,1.445948974609375,-0.7202813625335693,0.231672465801239,0.3778604567050934
1761379666240979200,1.455979248046875,-0.8113116025924683,0.1836259514093399,0.7243116497993469
1761379666250977300,1.465977294921875,-0.8149755001068115,0.4022417664527893,0.9794328212738037
1761379666261024300,1.476024169921875,-0.6961498856544495,0.7131535410881042,1.0699800252914429
1761379666271050200,1.48605029296875,-0.49084052443504333,0.905356228351593,0.968407928943634
1761379666281074000,1.496073974609375,-0.3803585469722748,0.6346636414527893,0.6694536805152893
1761379666291102200,1.506102294921875,-0.41351646184921265,-0.0864337682723999,0.2520734965801239
1761379666301127700,1.516127685546875,-0.4715886116027832,-0.916397750377655,-0.07552545517683029
1761379666311154700,1.52615478515625,-0.46599289774894714,-1.384006142616272,-0.13992610573768616
1761379666321180400,1.536180419921875,-0.32366862893104553,-1.1410422325134277,0.18850554525852203
1761379666331209700,1.546209716796875,0.021766653284430504,-0.30423352122306824,0.8714988231658936
1761379666341214700,1.556214599609375,0.5217168927192688,0.7123041749000549,1.6482203006744385
1761379666351254800,1.5662548828125,1.038637399673462,1.4513545036315918,2.190171718597412
1761379666361311200,1.576311279296875,1.4475574493408203,1.783616542816162,2.352114200592041
1761379666371311900,1.586311767578125,1.6943682432174683,1.5944448709487915,2.1767985820770264
1761379666381334800,1.596334716796875,1.9326190948486328,0.8662528395652771,1.945642352104187
1761379666391359700,1.60635986328125,2.161926746368408,-0.12233958393335342,2.0796563625335693
1761379666401387500,1.616387451171875,2.22104811668396,-1.1904211044311523,2.3985953330993652
1761379666411382300,1.62638232421875,2.107701539993286,-1.8862378597259521,2.6093006134033203
1761379666421438500,1.6364384765625,1.8782107830047607,-2.0030651092529297,2.62923526763916
1761379666431465000,1.64646484375,1.7037943601608276,-1.6085506677627563,2.460331439971924
1761379666441489700,1.65648974609375,1.6697871685028076,-0.792492687702179,2.138278007507324
1761379666451494400,1.666494384765625,1.631449818611145,0.3838391900062561,1.630200743675232
1761379666461522000,1.67652197265625,1.46700918674469,1.6685713529586792,0.9319358468055725
1761379666471568100,1.686568115234375,1.1572965383529663,2.5476644039154053,0.13569602370262146
1761379666481567700,1.696567626953125,0.738234281539917,2.719499349594116,-0.6637247204780579
1761379666491618800,1.706618896484375,0.28398239612579346,2.311095714569092,-1.4081209897994995
1761379666501644500,1.71664453125,-0.21468548476696014,1.4246083498001099,-2.1173441410064697
1761379666511649500,1.7266494140625,-0.7535725235939026,0.32110393047332764,-2.7998545169830322
1761379666521675300,1.73667529296875,-1.2665127515792847,-0.8085304498672485,-3.372415781021118
1761379666531723300,1.74672314453125,-1.724345326423645,-1.7404829263687134,-3.7563881874084473
1761379666541775400,1.756775390625,-2.0831871032714844,-2.342954635620117,-3.864771842956543
1761379666551774200,1.766774169921875,-2.272425413131714,-2.4361331462860107,-3.603421926498413
1761379666561799700,1.776799560546875,-2.2179503440856934,-1.9234260320663452,-2.9418790340423584
1761379666571825700,1.78682568359375,-1.850448727607727,-0.9447094202041626,-1.9345009326934814
1761379666581820700,1.796820556640625,-1.1990644931793213,0.0754588395357132,-0.7567367553710938
1761379666591878700,1.806878662109375,-0.49973371624946594,0.7483432292938232,0.3857210874557495
1761379666601908700,1.81690869140625,0.04433269426226616,0.9734373688697815,1.3285319805145264
1761379666611912700,1.82691259765625,0.33242860436439514,0.7324387431144714,1.9825141429901123
1761379666621955800,1.836955810546875,0.38249021768569946,0.07647473365068436,2.3235862255096436
1761379666631959800,1.846959716796875,0.252356618642807,-0.8245348334312439,2.249692678451538
1761379666642006500,1.857006591796875,0.07091232389211655,-1.875262975692749,1.7680284976959229
1761379666651999000,1.8669990234375,-0.06933020800352097,-2.723196506500244,1.0092766284942627
1761379666662059000,1.87705908203125,-0.13209877908229828,-3.0673162937164307,0.1153782531619072
1761379666672085000,1.8870849609375,-0.060187213122844696,-2.9203622341156006,-0.737751305103302
1761379666682107400,1.897107421875,0.052959416061639786,-2.4489734172821045,-1.4105690717697144
1761379666692137500,1.907137451171875,0.08658365160226822,-1.7082409858703613,-1.7815181016921997
1761379666702162200,1.917162109375,0.08586753159761429,-0.7150353789329529,-1.8200386762619019
1761379666712189400,1.927189453125,0.0802551656961441,0.24487902224063873,-1.5738606452941895
1761379666722220000,1.937219970703125,0.07662461698055267,0.8629054427146912,-1.1449226140975952
1761379666732238800,1.94723876953125,0.08043836057186127,1.1467546224594116,-0.6558141112327576
1761379666742244600,1.95724462890625,0.07868970185518265,1.1657233238220215,-0.1848083883523941
1761379666752310500,1.967310546875,0.0017653139075264335,0.8976621031761169,0.17388342320919037
1761379666762313700,1.977313720703125,-0.18649043142795563,0.4201280474662781,0.33637556433677673
1761379666772343300,1.98734326171875,-0.47093912959098816,-0.09577661007642746,0.2884622812271118
1761379666782347500,1.997347412109375,-0.7640145421028137,-0.4717218577861786,0.1173933744430542
1761379666792394800,2.007394775390625,-0.9217270016670227,-0.5994739532470703,-0.0019151991000398993
1761379666802420200,2.017420166015625,-0.8652536273002625,-0.5129569172859192,0.038437213748693466
1761379666812443000,2.02744287109375,-0.6403259634971619,-0.2557706832885742,0.29890426993370056
1761379666822472200,2.03747216796875,-0.3305799961090088,0.1037205159664154,0.7844322323799133
1761379666832498400,2.04749853515625,-0.01119142398238182,0.40429019927978516,1.4438602924346924
1761379666842524200,2.057524169921875,0.2657630145549774,0.507311224937439,2.1485202312469482
1761379666852535000,2.06753515625,0.4495221972465515,0.3841722905635834,2.7193660736083984
1761379666862575000,2.0775751953125,0.4940214455127716,0.055007848888635635,3.0370893478393555
1761379666872601600,2.0876015625,0.3401060402393341,-0.42740580439567566,3.015305995941162
1761379666882627600,2.097627685546875,-0.06183594837784767,-1.0127573013305664,2.589848756790161
1761379666892654300,2.107654296875,-0.5900811553001404,-1.4880096912384033,1.7966898679733276
1761379666902679800,2.1176796875,-0.9577161073684692,-1.578640341758728,0.8779438734054565
1761379666912705500,2.12770556640625,-0.9675918817520142,-1.151784062385559,0.23920004069805145
1761379666922731000,2.13773095703125,-0.6786965727806091,-0.4577159285545349,0.13834398984909058
1761379666932757800,2.1477578125,-0.33402737975120544,0.13374750316143036,0.47128885984420776
1761379666942744300,2.157744384765625,-0.2227126657962799,0.4545017182826996,0.8676684498786926
1761379666952810000,2.16781005859375,-0.2769211232662201,0.6685210466384888,1.0394700765609741
1761379666962834200,2.177834228515625,-0.19301876425743103,0.9063554406166077,0.8862208724021912
1761379666972859600,2.187859619140625,0.1855744570493698,0.9703230857849121,0.5784067511558533
1761379666982880000,2.1978798828125,0.6577959060668945,0.7059090733528137,0.30508288741111755
1761379666992890400,2.207890380859375,0.8836562037467957,0.23946650326251984,0.10805053263902664
1761379667002938600,2.217938720703125,0.7318225502967834,-0.34485241770744324,-0.13716155290603638
1761379667012968700,2.22796875,0.24134838581085205,-1.0666992664337158,-0.6429073214530945
1761379667022990000,2.237989990234375,-0.43636560440063477,-1.8563441038131714,-1.434001088142395
1761379667033016000,2.24801611328125,-1.058888554573059,-2.4127678871154785,-2.3177738189697266
1761379667043041300,2.258041259765625,-1.4495391845703125,-2.6333820819854736,-3.0404868125915527
1761379667053067000,2.26806689453125,-1.4977688789367676,-2.5367894172668457,-3.3933162689208984
1761379667063093200,2.27809326171875,-1.2492926120758057,-2.166623115539551,-3.277771472930908
1761379667073118700,2.28811865234375,-0.8502318263053894,-1.7638649940490723,-2.7887797355651855
1761379667083145000,2.29814501953125,-0.4990675747394562,-1.5068286657333374,-2.2282092571258545
1761379667093171000,2.3081708984375,-0.4284217059612274,-1.4277725219726562,-2.068131923675537
1761379667103201800,2.318201904296875,-0.7088568210601807,-1.3675353527069092,-2.504164457321167
1761379667113186000,2.32818603515625,-1.1507015228271484,-0.9931222796440125,-3.22454571723938
1761379667123242200,2.3382421875,-1.543583869934082,-0.10180532187223434,-3.847485065460205
1761379667133251300,2.348251220703125,-1.7350870370864868,1.1007565259933472,-4.1794304847717285
1761379667143262500,2.358262451171875,-1.669937014579773,2.101656198501587,-4.197017192840576
1761379667153325800,2.368325927734375,-1.398661494255066,2.5802061557769775,-3.975520133972168
1761379667163330000,2.378330078125,-0.9796493053436279,2.571962356567383,-3.549929618835449
1761379667173376500,2.38837646484375,-0.4802819490432739,2.1964001655578613,-2.9436442852020264
1761379667183403000,2.398403076171875,-0.004163476172834635,1.5291615724563599,-2.2004971504211426
1761379667193429500,2.408429443359375,0.35521113872528076,0.7621326446533203,-1.3804588317871094
1761379667203455200,2.418455322265625,0.5448158383369446,0.04203445464372635,-0.5700631737709045
1761379667213480200,2.428480224609375,0.5707959532737732,-0.5659163594245911,0.13657867908477783
1761379667223507000,2.4385068359375,0.49140676856040955,-1.0105589628219604,0.7202481031417847
1761379667233530400,2.4485302734375,0.3612065315246582,-1.2176169157028198,1.2055928707122803
1761379667243537200,2.458537109375,0.22407828271389008,-1.152117133140564,1.6350303888320923
1761379667253572000,2.468572021484375,0.13747797906398773,-0.8594580888748169,2.063169002532959
1761379667263609300,2.478609375,0.1323985457420349,-0.43711504340171814,2.494438409805298
1761379667273627600,2.488627685546875,0.22482772171497345,0.03652201220393181,2.873464822769165
1761379667283661300,2.498661376953125,0.4174467921257019,0.43206891417503357,3.1298017501831055
1761379667293676800,2.5086767578125,0.6788131594657898,0.6289014220237732,3.2529406547546387
1761379667303717000,2.518717041015625,0.908437192440033,0.6069015860557556,3.25692081451416
1761379667313753000,2.528753173828125,1.0134400129318237,0.4827800393104553,3.1651246547698975
1761379667323746000,2.53874609375,0.9660930037498474,0.32105398178100586,2.9904751777648926
1761379667333793000,2.54879296875,0.842038094997406,0.22830837965011597,2.7781543731689453
1761379667343813600,2.558813720703125,0.7304402589797974,0.32256948947906494,2.6034882068634033
1761379667353842000,2.568842041015625,0.6788131594657898,0.5989410281181335,2.5194525718688965
1761379667363862800,2.57886279296875,0.7321556210517883,0.9267731308937073,2.606086254119873
1761379667373893600,2.5888935546875,0.8790097236633301,1.158911943435669,2.8080482482910156
1761379667383911700,2.59891162109375,0.9285884499549866,1.1824605464935303,3.0396206378936768
1761379667393944000,2.608944091796875,0.7079408168792725,1.1642411947250366,3.2124216556549072
1761379667403971000,2.61897119140625,0.216117724776268,1.255371332168579,3.1884734630584717
1761379667413996800,2.628996826171875,-0.42587366700172424,1.2596014738082886,2.91408371925354
1761379667424022800,2.639022705078125,-1.037771463394165,0.8692339062690735,2.4184134006500244
1761379667434048300,2.64904833984375,-1.4148824214935303,0.016004402190446854,1.8659034967422485
1761379667444065500,2.6590654296875,-1.492106556892395,-1.1367123126983643,1.4220269918441772
1761379667454100500,2.6691005859375,-1.324318528175354,-2.34553599357605,1.1722683906555176
1761379667464126200,2.679126220703125,-1.0063954591751099,-3.206226348876953,1.2057594060897827
1761379667474141200,2.68914111328125,-0.7138862609863281,-3.466143846511841,1.488226294517517
1761379667484178000,2.699177978515625,-0.5685976147651672,-2.7739410400390625,1.8365260362625122
1761379667494204400,2.709204345703125,-0.5216502547264099,-1.4132170677185059,1.9310035705566406
1761379667504229600,2.719229736328125,-0.3504314720630646,-0.17891289293766022,1.7658801078796387
1761379667514233900,2.72923388671875,-0.28231698274612427,0.6444894671440125,1.242464542388916
1761379667524281600,2.739281494140625,-0.45899826288223267,0.7266265153884888,0.3305133879184723
1761379667534306800,2.749306884765625,-0.5986579060554504,0.13639548420906067,-0.6527331471443176
1761379667544332800,2.759332763671875,-0.6159446835517883,-0.5982748866081238,-1.502964973449707
1761379667554358500,2.769358642578125,-0.48426225781440735,-1.1784635782241821,-2.181361675262451
1761379667564385300,2.77938525390625,-0.25230666995048523,-1.5625193119049072,-2.7268271446228027
1761379667574414300,2.789414306640625,0.03294142335653305,-1.8267334699630737,-3.142275333404541
1761379667584437800,2.799437744140625,0.36422088742256165,-1.9237924814224243,-3.320805311203003
1761379667594475800,2.809475830078125,0.7182163000106812,-1.7589854001998901,-3.187124490737915
1761379667604478200,2.819478271484375,0.988359272480011,-1.3624060153961182,-2.753706455230713
1761379667614514400,2.829514404296875,1.1232059001922607,-0.7963564395904541,-2.1236560344696045
1761379667624524000,2.83952392578125,1.1369787454605103,-0.23675191402435303,-1.4846123456954956
1761379667634547700,2.849547607421875,1.0830867290496826,0.12598678469657898,-0.7725246548652649
1761379667644581000,2.8595810546875,0.9940882325172424,0.2113213986158371,-0.04583154618740082
1761379667654617900,2.869617919921875,0.8278656005859375,-0.02784532867372036,0.644589364528656
1761379667664640500,2.879640625,0.5410187244415283,-0.5016489028930664,1.057389736175537
1761379667674669600,2.889669677734375,0.15180034935474396,-1.0459485054016113,1.065666675567627
1761379667684697000,2.899697021484375,-0.19984686374664307,-1.4741703271865845,0.7793694138526917
1761379667694715000,2.90971484375,-0.30251818895339966,-1.705876111984253,0.3028346002101898
1761379667704742000,2.919741943359375,-0.09397798776626587,-1.5569401979446411,-0.2179829627275467
1761379667714776800,2.92977685546875,0.3001200258731842,-0.9442930817604065,-0.6789463758468628
1761379667724808000,2.939807861328125,0.709006667137146,-0.09994008392095566,-0.9582656621932983
1761379667734825000,2.949824951171875,1.0232325792312622,0.6919364333152771,-0.953519344329834
1761379667744829700,2.95982958984375,1.2193323373794556,1.2557710409164429,-0.7015957236289978
1761379667754867000,2.969866943359375,1.290844202041626,1.5495293140411377,-0.3069314658641815
1761379667764901400,2.9799013671875,1.1877731084823608,1.6025387048721313,0.1021217480301857
1761379667774909200,2.9899091796875,0.890734076499939,1.477018117904663,0.4353330731391907
1761379667784952800,2.999952880859375,0.38990122079849243,1.231789469718933,0.6283851265907288
1761379667794979600,3.0099794921875,-0.26093336939811707,0.8699000477790833,0.627236008644104
1761379667805005300,3.02000537109375,-0.8336611390113831,0.5383707880973816,0.46287864446640015
1761379667815031000,3.030031005859375,-1.078290343284607,0.34666767716407776,0.24011600017547607
1761379667825068500,3.040068603515625,-0.9077044129371643,0.316024512052536,0.049495406448841095
1761379667835072500,3.050072509765625,-0.3712655007839203,0.4936050772666931,0.05280953273177147
1761379667845107700,3.060107666015625,0.3367752730846405,0.875645637512207,0.4287547767162323
1761379667855134700,3.070134765625,0.8816077709197998,1.4585822820663452,0.8609569072723389
1761379667865151500,3.0801513671875,1.1574796438217163,1.813810110092163,1.349482536315918
1761379667875177700,3.090177734375,1.1758322715759277,1.9270399808883667,1.7232295274734497
1761379667885212200,3.100212158203125,0.958865225315094,1.9015928506851196,1.8966132402420044
1761379667895239000,3.110239013671875,0.6301671266555786,1.665190577507019,1.8443533182144165
1761379667905264000,3.12026416015625,0.3277322053909302,1.296673059463501,1.6033713817596436
1761379667915289600,3.13028955078125,0.15679651498794556,1.0043137073516846,1.263048768043518
1761379667925310500,3.140310546875,0.15984417498111725,0.9725380539894104,0.9434103965759277
1761379667935341300,3.15034130859375,0.3604571223258972,1.175249457359314,0.7614665031433105
1761379667945367300,3.1603671875,0.7014124989509583,1.4381979703903198,0.9070882201194763
1761379667955384000,3.170384033203125,0.7557209134101868,1.8133937120437622,0.8967461585998535
1761379667965422600,3.180422607421875,0.4750026762485504,1.9281724691390991,0.7098227143287659
1761379667975446300,3.1904462890625,0.24900919198989868,1.6886227130889893,0.6482199430465698
1761379667985470700,3.200470703125,0.09614299237728119,1.3473008871078491,0.6363124251365662
1761379667995500300,3.210500244140625,0.05865505337715149,1.0565403699874878,0.6426408886909485
1761379668005500700,3.220500732421875,0.24925899505615234,0.8494324088096619,0.7531395554542542
1761379668015550000,3.230550048828125,0.5466144680976868,0.6124973297119141,0.9202615022659302
1761379668025586000,3.2405859375,0.690420925617218,0.1483529806137085,0.9092366099357605
1761379668035602200,3.250602294921875,0.6549147963523865,-0.5344570875167847,0.5845687389373779
1761379668045627100,3.260627197265625,0.5559073686599731,-1.307448148727417,0.003197549842298031
1761379668055635500,3.270635498046875,0.4312029182910919,-1.9133172035217285,-0.771791934967041
1761379668065678000,3.280677978515625,0.16199253499507904,-2.1414923667907715,-1.6475541591644287
1761379668075704300,3.290704345703125,-0.28534799814224243,-1.9733378887176514,-2.495521068572998
1761379668085731000,3.30073095703125,-0.7550547122955322,-1.3817744255065918,-3.232006549835205
1761379668095755500,3.310755615234375,-1.0443331003189087,-0.4145823121070862,-3.795924425125122
1761379668105762300,3.32076220703125,-0.9912570714950562,0.6300338506698608,-4.131000995635986
1761379668115785200,3.33078515625,-0.6063686609268188,1.3314297199249268,-4.236770153045654
1761379668125810200,3.34081005859375,-0.10077277570962906,1.538554310798645,-4.092264175415039
1761379668135859500,3.350859375,0.26737844944000244,1.3160748481750488,-3.6670732498168945
1761379668145885000,3.360885009765625,0.41656410694122314,0.8283485770225525,-2.9636623859405518
1761379668155888400,3.370888427734375,0.37456297874450684,0.17423315346240997,-2.080322504043579
1761379668165937200,3.380937255859375,0.1580788642168045,-0.5730774998664856,-1.1939517259597778
1761379668175963100,3.390963134765625,-0.16843760013580322,-1.2763885259628296,-0.4588983356952667
1761379668185989000,3.400989013671875,-0.4896247982978821,-1.7208479642868042,0.03250842168927193
1761379668196015000,3.41101513671875,-0.726842999458313,-1.7711594104766846,0.22362864017486572
1761379668216067000,3.431067138671875,-0.8791096806526184,-0.9490227699279785,-0.29097703099250793
1761379668226059500,3.4410595703125,-0.7762884497642517,-0.3916831910610199,-0.7607337236404419
1761379668236118300,3.4511181640625,-0.5590382814407349,0.119891457259655,-1.1625924110412598
1761379668246143500,3.4611435546875,-0.30488303303718567,0.46954017877578735,-1.4009097814559937
1761379668256151600,3.471151611328125,-0.09590984135866165,0.6008562445640564,-1.4324190616607666
1761379668266195700,3.48119580078125,0.04588150605559349,0.5488460659980774,-1.2390005588531494
1761379668276221000,3.491220947265625,0.12075746059417725,0.38533803820610046,-0.859041690826416
1761379668286247000,3.501246826171875,0.13054996728897095,0.16194257140159607,-0.36555320024490356
1761379668296274000,3.51127392578125,0.08871535211801529,-0.018469180911779404,0.15864509344100952
1761379668306299000,3.521298828125,0.03568931668996811,-0.050328101962804794,0.6247045993804932
1761379668316324600,3.53132470703125,0.021700037643313408,0.08708326518535614,0.9739536643028259
1761379668326350600,3.5413505859375,0.052126720547676086,0.29402467608451843,1.1852917671203613
1761379668336354300,3.551354248046875,0.06964662671089172,0.39817821979522705,1.264630913734436
1761379668346402600,3.561402587890625,0.02413150854408741,0.32270270586013794,1.2475106716156006
1761379668356428500,3.571428466796875,-0.08480168133974075,0.14388974010944366,1.2072415351867676
1761379668366454000,3.5814541015625,-0.188555508852005,0.06083671376109123,1.2999871969223022
1761379668376480000,3.59147998046875,-0.23343777656555176,0.3658696413040161,1.6116650104522705
1761379668386505700,3.601505615234375,-0.1718849539756775,1.1430740356445312,2.0817713737487793
1761379668396532200,3.6115322265625,0.08285317569971085,2.1490530967712402,2.582737445831299
1761379668406557000,3.621556884765625,0.5236820578575134,2.822403907775879,3.0341415405273438
1761379668416583400,3.63158349609375,0.8842057585716248,2.9348344802856445,3.067932367324829
1761379668426586400,3.64158642578125,0.9846121668815613,2.3468017578125,2.7416157722473145
1761379668436635400,3.651635498046875,1.0565736293792725,1.4522205591201782,2.445209503173828
1761379668446662000,3.661661865234375,1.227992296218872,0.8708660006523132,2.2344045639038086
1761379668456664000,3.6716640625,1.774756669998169,0.63801109790802,2.361673593521118
1761379668466712600,3.681712646484375,2.5505621433258057,1.0514442920684814,2.0899152755737305
1761379668476738800,3.69173876953125,3.5430848598480225,1.9233927726745605,1.2930924892425537
1761379668486764800,3.701764892578125,4.606037139892578,2.681312084197998,0.5365055203437805
1761379668496767700,3.711767822265625,5.131401062011719,2.7956244945526123,0.05419180542230606
1761379668506815700,3.721815673828125,4.926358222961426,1.929404854774475,-0.042983729392290115
1761379668516842200,3.73184228515625,4.29973840713501,0.1880558878183365,0.24359667301177979
1761379668526867000,3.741866943359375,3.399744749069214,-1.693535566329956,0.6693370938301086
1761379668536894200,3.751894287109375,2.051861047744751,-2.9535534381866455,0.8008529543876648
1761379668546919700,3.761919677734375,0.48820921778678894,-3.47200608253479,0.37637823820114136
1761379668556945700,3.771945556640625,-0.6916199922561646,-3.376828908920288,-0.4174967408180237
1761379668566971400,3.781971435546875,-1.240699291229248,-2.6316168308258057,-1.2490928173065186
1761379668576996900,3.791996826171875,-1.2264268398284912,-1.4074214696884155,-1.8557945489883423
1761379668587036400,3.802036376953125,-0.8708160519599915,-0.1711188703775406,-2.129368305206299
1761379668597026600,3.812026611328125,-0.41310012340545654,0.6724846959114075,-2.158928871154785
1761379668607074800,3.82207470703125,-0.03635547310113907,1.1026883125305176,-2.0634021759033203
1761379668617099800,3.832099853515625,0.14692075550556183,1.3285152912139893,-1.9141665697097778
1761379668627103700,3.842103759765625,0.11782637983560562,1.42720627784729,-1.7429476976394653
1761379668637147000,3.85214697265625,-0.09412787109613419,1.388952374458313,-1.5638682842254639
1761379668647178200,3.86217822265625,-0.39311543107032776,1.3185396194458008,-1.388802409172058
1761379668657197300,3.872197265625,-0.7047932744026184,1.372548222541809,-1.2126374244689941
1761379668667230500,3.88223046875,-0.9844622611999512,1.6248215436935425,-1.0120245218276978
1761379668677255000,3.8922548828125,-1.1911371946334839,1.9848955869674683,-0.7761052846908569
1761379668687281700,3.90228173828125,-1.3000870943069458,2.333195447921753,-0.5431004762649536
1761379668697307000,3.912306884765625,-1.3060492277145386,2.55289363861084,-0.3686508238315582
1761379668707332600,3.92233251953125,-1.2203315496444702,2.6372790336608887,-0.26891058683395386
1761379668717358800,3.93235888671875,-1.0668658018112183,2.6248552799224854,-0.2547881007194519
1761379668727384800,3.942384765625,-0.9089868068695068,2.4844961166381836,-0.36535337567329407
1761379668737410600,3.95241064453125,-0.777487576007843,2.1432909965515137,-0.5633683204650879
1761379668747435800,3.962435791015625,-0.6395765542984009,1.6776810884475708,-0.7301738262176514
1761379668757439500,3.972439453125,-0.46925708651542664,1.275472640991211,-0.7704762816429138
1761379668767489000,3.982489013671875,-0.32118719816207886,0.9312363862991333,-0.7023451328277588
1761379668777514200,3.99251416015625,-0.19936388731002808,0.6631085276603699,-0.5084103941917419
1761379668787513000,4.00251318359375,-0.0717783272266388,0.5589216947555542,-0.28641384840011597
1761379668797565400,4.0125654296875,0.09579326212406158,0.6029046773910522,0.006528330501168966
1761379668807593000,4.022593017578125,0.21130473911762238,0.7907773852348328,0.29149329662323
1761379668817617700,4.03261767578125,0.175848588347435,0.982530415058136,0.43336790800094604
1761379668827642600,4.042642578125,0.08003866672515869,0.9770179986953735,0.48765963315963745
1761379668837668900,4.0526689453125,-0.02396496944129467,0.6658897399902344,0.4529695510864258
1761379668847695000,4.062695068359375,-0.15464815497398376,0.19055397808551788,0.3702995777130127
1761379668857699300,4.07269921875,-0.2922593653202057,-0.26641252636909485,0.3498152792453766
1761379668867746600,4.08274658203125,-0.4122340977191925,-0.6502350568771362,0.46712538599967957
1761379668877772300,4.092772216796875,-0.4928390085697174,-0.9776341915130615,0.7514575123786926
1761379668887798300,4.10279833984375,-0.4874264895915985,-1.3041505813598633,1.172085165977478
1761379668897824000,4.112823974609375,-0.3534291684627533,-1.7061259746551514,1.6294180154800415
1761379668907850200,4.122850341796875,-0.04987844452261925,-2.1515846252441406,2.0249316692352295
1761379668917875700,4.132875732421875,0.46642592549324036,-2.4459424018859863,2.41867995262146
1761379668927901400,4.1429013671875,0.9923562407493591,-2.392716407775879,2.7183337211608887
1761379668937904400,4.152904296875,1.1542987823486328,-2.348933458328247,2.6743006706237793
1761379668947954000,4.162953857421875,0.6969825625419617,-2.589265823364258,1.9940552711486816
1761379668957979400,4.1729794921875,-0.15158383548259735,-3.0310773849487305,0.8681846857070923
1761379668968006000,4.183005859375,-0.8316627144813538,-3.599308490753174,-0.12438801676034927
1761379668978031600,4.193031494140625,-0.9409789443016052,-4.172668933868408,-0.47655147314071655
1761379668988057000,4.20305712890625,-0.5300604701042175,-4.1391282081604,0.22053100168704987
1761379668998083300,4.213083251953125,-0.1198248416185379,-3.033658742904663,1.9176138639450073
1761379669008108000,4.22310791015625,0.0006161945057101548,-1.4203616380691528,3.9097206592559814
1761379669018111200,4.233111328125,0.2055591493844986,0.06861408799886703,5.318291187286377
1761379669028160300,4.24316015625,0.7279921174049377,1.0743600130081177,5.585936069488525
1761379669038187000,4.25318701171875,1.3084973096847534,1.748360276222229,4.798472881317139
1761379669048211700,4.263211669921875,1.5181200504302979,1.9646445512771606,3.379976511001587
1761379669058237700,4.27323779296875,1.154865026473999,1.7913273572921753,1.601955771446228
1761379669068263700,4.283263671875,0.5025148987770081,1.684076189994812,-0.29960376024246216
1761379669078289400,4.293289306640625,-0.14831967651844025,1.3770947456359863,-2.1736509799957275
1761379669088315000,4.30331494140625,-0.6435901522636414,0.7498920559883118,-3.890934944152832
1761379669098341400,4.31334130859375,-0.9531029462814331,0.017902947962284088,-5.19408655166626
1761379669108364800,4.32336474609375,-1.0432838201522827,-0.6757988333702087,-5.948192119598389
1761379669118402300,4.33340234375,-0.8540788292884827,-1.1515508890151978,-6.099942207336426
1761379669128418600,4.34341845703125,-0.4705394208431244,-1.2382510900497437,-5.49210786819458
1761379669138445000,4.353445068359375,-0.05255972221493721,-0.7822672128677368,-4.23317289352417
1761379669148470000,4.363469970703125,0.35930800437927246,-0.13534627854824066,-2.85259747505188
1761379669158473000,4.373472900390625,0.9943047165870667,0.2405489981174469,-1.1992143392562866
1761379669168500000,4.3835,1.4957205057144165,0.5301437377929688,0.4057057797908783
1761379669178547500,4.39354736328125,1.6691875457763672,0.49154001474380493,1.7448296546936035
1761379669188573200,4.4035732421875,1.5735608339309692,0.03527297079563141,2.6571805477142334
1761379669198567400,4.4135673828125,1.380841851234436,-0.4574328064918518,3.055741786956787
1761379669208624400,4.423624267578125,1.138810634613037,-0.7132368087768555,3.0269970893859863
1761379669218651400,4.4336513671875,0.9119012355804443,-0.620657742023468,2.57409405708313
1761379669228678000,4.443677978515625,0.7608169913291931,-0.24016596376895905,1.824018955230713
1761379669238703400,4.453703369140625,0.6974322199821472,0.24965868890285492,1.0157216787338257
1761379669248719400,4.46371923828125,0.7369519472122192,0.6818774938583374,0.4693070352077484
1761379669266251500,4.48125146484375,0.8827568888664246,1.090381145477295,0.3731473982334137
1761379669276277200,4.49127734375,0.9157149791717529,0.8760287165641785,0.7046933174133301
1761379669286304500,4.501304443359375,0.8562771677970886,0.46294525265693665,1.2045270204544067
1761379669296330500,4.51133056640625,0.6999969482421875,0.08556776493787766,1.7259607315063477
1761379669306352000,4.52135205078125,0.5127237439155579,-0.2125704437494278,2.1065192222595215
1761379669316392700,4.531392822265625,0.3483164310455322,-0.4068715572357178,2.2063260078430176
1761379669326395000,4.541394775390625,0.22862480580806732,-0.40595558285713196,2.010026454925537
1761379669336420900,4.5514208984375,0.15553081035614014,-0.22531068325042725,1.6152288913726807
1761379669346447600,4.561447509765625,0.09322855621576309,0.08418548852205276,1.1780972480773926
1761379669356472600,4.57147265625,0.019851455464959145,0.4815809726715088,0.8814911842346191
1761379669366517800,4.581517822265625,-0.05360892042517662,0.850065290927887,0.8424710631370544
1761379669376543000,4.59154296875,-0.12205646932125092,1.0631519556045532,0.9718219637870789
1761379669386584800,4.601584716796875,-0.16970328986644745,1.047913670539856,1.1634917259216309
1761379669396609800,4.61160986328125,-0.15201684832572937,0.8169406652450562,1.4513545036315918
1761379669406635500,4.621635498046875,-0.12248946726322174,0.423075795173645,1.8269166946411133
1761379669416660700,4.63166064453125,-0.15802890062332153,-0.052076760679483414,2.1544322967529297
1761379669426687500,4.6416875,-0.2900277376174927,-0.5163376927375793,2.333894968032837
1761379669436713500,4.65171337890625,-0.4458250403404236,-0.6716686487197876,2.364254951477051
1761379669446739700,4.66173974609375,-0.483029842376709,-0.2818673253059387,2.2969231605529785
1761379669456765200,4.67176513671875,-0.37018299102783203,0.4765681326389313,2.1215574741363525
1761379669466790700,4.681790771484375,-0.2695101499557495,0.9477570652961731,1.6847590208053589
1761379669476817200,4.691817138671875,-0.37556222081184387,0.6440731287002563,0.955501139163971
1761379669486843100,4.701843017578125,-0.7162011861801147,-0.10536925494670868,0.19385145604610443
1761379669496868900,4.711868896484375,-1.0365056991577148,-0.48211389780044556,-0.2858309745788574
1761379669506894600,4.72189453125,-1.0686144828796387,-0.34458595514297485,-0.44226109981536865
1761379669516919800,4.731919921875,-0.6837093830108643,0.06616596132516861,-0.3457850217819214
1761379669526923300,4.74192333984375,-0.010941615328192711,0.5368719100952148,-0.1468208283185959
1761379669536949000,4.751948974609375,0.6302836537361145,0.9269729852676392,-0.08826569467782974
1761379669546998300,4.761998291015625,1.0556577444076538,1.256870150566101,-0.2705260217189789
1761379669557023500,4.7720234375,1.182310700416565,1.5287785530090332,-0.8694837093353271
1761379669567050200,4.78205029296875,0.9736871719360352,1.5693141222000122,-2.0562243461608887
1761379669577075500,4.792075439453125,0.39324864745140076,1.3389739990234375,-3.775573492050171
1761379669587101000,4.802100830078125,-0.5282785296440125,0.8021519780158997,-5.6898064613342285
1761379669597126100,4.812126220703125,-1.6314165592193604,0.1923026442527771,-7.325786113739014
1761379669607153200,4.822153076171875,-2.660144805908203,-0.2527729570865631,-8.397232055664062
1761379669617179100,4.83217919921875,-3.382141590118408,-0.5246978998184204,-8.759870529174805
1761379669627204400,4.842204345703125,-3.5895326137542725,-0.5556575059890747,-8.33033275604248
1761379669637229800,4.852229736328125,-3.1453731060028076,-0.19401799142360687,-7.0761942863464355
1761379669647256600,4.862256591796875,-2.212571144104004,0.32090410590171814,-5.204861640930176
1761379669657282600,4.872282470703125,-1.1941015720367432,0.7501251697540283,-3.1263043880462646
1761379669667307000,4.88230712890625,-0.3549613356590271,0.9743033647537231,-1.2140862941741943
1761379669677334000,4.892333984375,0.23730148375034332,0.964211106300354,0.4293709695339203
1761379669687337500,4.90233740234375,0.49322205781936646,0.7288081645965576,1.4759689569473267
1761379669697385700,4.9123857421875,0.5498619675636292,0.30445003509521484,1.8675522804260254
1761379669707412000,4.922411865234375,0.5193686485290527,-0.12109053879976273,1.6412923336029053
1761379669717436400,4.9324365234375,0.5139561295509338,-0.3616895079612732,0.9746531248092651
1761379669727463200,4.942463134765625,0.47293758392333984,-0.21338647603988647,-0.1091996505856514
1761379669737489000,4.952489013671875,0.43928003311157227,0.10578560084104538,-1.1198252439498901
1761379669747514600,4.9625146484375,0.42094409465789795,0.4191288352012634,-1.7182832956314087
1761379669757541000,4.972541015625,0.3625388443470001,0.5961098670959473,-1.8436205387115479
1761379669767566300,4.98256640625,0.30911311507225037,0.5247312188148499,-1.5649508237838745
1761379669777592800,4.9925927734375,0.3388569951057434,0.3062153458595276,-0.9570499658584595
1761379669787618000,5.0026181640625,0.4844454228878021,0.1579289734363556,-0.09146324545145035
1761379669797643300,5.012643310546875,0.6930522322654724,0.04789663106203079,0.8459850549697876
1761379669807669200,5.022669189453125,0.8259503841400146,-0.1729341447353363,1.594628095626831
1761379669817696300,5.0326962890625,0.8171571493148804,-0.5592880845069885,2.053826093673706
1761379669827722000,5.042721923828125,0.7142193913459778,-0.9832631945610046,2.2338383197784424
1761379669837718000,5.052718017578125,0.5423843860626221,-1.225510835647583,2.172468662261963
1761379669847750400,5.06275048828125,0.34077221155166626,-1.1998639106750488,1.973171353340149
1761379669857790700,5.072790771484375,0.15160049498081207,-0.9680748581886292,1.7490097284317017
1761379669867824400,5.082824462890625,-0.01169104129076004,-0.6259869933128357,1.5937952995300293
1761379669877851100,5.09285107421875,-0.1550145447254181,-0.3257337212562561,1.5936954021453857
1761379669887876000,5.1028759765625,-0.27745404839515686,-0.1641242355108261,1.7338213920593262
1761379669897901800,5.11290185546875,-0.3204544484615326,-0.21015562117099762,1.9557679891586304
1761379669907903500,5.122903564453125,-0.25716960430145264,-0.4928223490715027,2.2496261596679688
1761379669917931300,5.13293115234375,-0.1393265724182129,-0.9762852191925049,2.61274790763855
1761379669927979000,5.14297900390625,0.013189892284572124,-1.3930658102035522,2.949073553085327
1761379669938005800,5.153005859375,0.25968432426452637,-1.5535428524017334,3.2463788986206055
1761379669948031700,5.16303173828125,0.644939124584198,-1.3722484111785889,3.6395442485809326
1761379669958057000,5.173056884765625,0.9640612602233887,-0.7197984457015991,3.580955982208252
1761379669968083000,5.1830830078125,1.193019151687622,0.050827719271183014,3.2179007530212402
1761379669978109000,5.19310888671875,1.3758124113082886,0.5980250835418701,2.747727870941162
1761379669988112100,5.203112060546875,1.2881128787994385,0.6812446117401123,2.0908477306365967
1761379669998161700,5.21316162109375,0.9793828129768372,0.5114414095878601,1.3545953035354614
1761379670008185900,5.223185791015625,0.8084471821784973,0.12835164368152618,0.8191889524459839
1761379670018189600,5.233189453125,0.5032143592834473,-1.1901379823684692,0.17694774270057678
1761379670028238000,5.243238037109375,-0.0075442190282046795,-2.0885162353515625,-0.34347012639045715
1761379670038264000,5.25326416015625,-0.3615562617778778,-1.7537894248962402,-0.3980782926082611
1761379670048290300,5.263290283203125,-0.3405057489871979,-0.8089801073074341,0.016337480396032333
1761379670058316300,5.27331640625,0.09854115545749664,-0.12455455213785172,0.8160579800605774
1761379670068341000,5.283341064453125,0.8101791739463806,0.046647585928440094,1.7761389017105103
1761379670078367500,5.293367431640625,1.5258973836898804,-0.18194390833377838,2.4828805923461914
1761379670088393000,5.30339306640625,1.9154155254364014,-0.5307433009147644,2.622357130050659
1761379670098419000,5.3134189453125,1.9689245223999023,-0.8134599924087524,2.24792742729187
1761379670108444400,5.3234443359375,1.846651554107666,-1.0305269956588745,1.4445430040359497
1761379670118449200,5.33344921875,1.6450227499008179,-1.0735273361206055,0.30541595816612244
1761379670128473600,5.3434736328125,1.3829902410507202,-0.9307034611701965,-0.9110684990882874
1761379670138523100,5.353523193359375,1.042434573173523,-0.6383441686630249,-1.8859047889709473
1761379670148540400,5.36354052734375,0.6836428046226501,-0.2558872401714325,-2.413383960723877
1761379670158574600,5.37357470703125,0.38137441873550415,0.12803521752357483,-2.4524872303009033
1761379670168600300,5.383600341796875,0.23045673966407776,0.48472854495048523,-2.04305100440979
1761379670178626300,5.393626220703125,0.24662767350673676,0.7297574281692505,-1.3050665855407715
1761379670188670000,5.403669921875,0.3474504053592682,0.7173336148262024,-0.40797069668769836
1761379670198654700,5.41365478515625,0.4590815305709839,0.4522700905799866,0.48787614703178406
1761379670208703700,5.423703857421875,0.5650836229324341,0.09634283930063248,1.2309234142303467
1761379670218707500,5.43370751953125,0.6604105830192566,-0.24238093197345734,1.7715091705322266
1761379670228755500,5.44375537109375,0.7109052538871765,-0.4796990752220154,2.0948779582977295
1761379670238781400,5.453781494140625,0.6981816291809082,-0.5204511880874634,2.178480625152588
1761379670248807400,5.463807373046875,0.6370951533317566,-0.36483708024024963,2.0484137535095215
1761379670258832400,5.473832275390625,0.5567566752433777,-0.09058059006929398,1.7555214166641235
1761379670268859000,5.48385888671875,0.48316308856010437,0.2372182160615921,1.3738138675689697
1761379670278884000,5.493884033203125,0.42214319109916687,0.5927124619483948,1.0035309791564941
1761379670288887800,5.5038876953125,0.371415376663208,0.8722649216651917,0.7100892066955566
1761379670298936300,5.513936279296875,0.3319123089313507,0.9798991084098816,0.4977685511112213
1761379670308961800,5.5239619140625,0.3043334484100342,0.924774706363678,0.3689172863960266
1761379670318965200,5.53396533203125,0.2748394012451172,0.7948742508888245,0.32182005047798157
1761379670329014500,5.5440146484375,0.22834168374538422,0.6653568148612976,0.30278465151786804
1761379670339039500,5.55403955078125,0.14976856112480164,0.5535424947738647,0.2502582371234894
1761379670349043200,5.564043212890625,0.049661945551633835,0.5113248229026794,0.15319927036762238
1761379670359069000,5.57406884765625,-0.05322587862610817,0.5144890546798706,0.05156048759818077
1761379670369094100,5.58409423828125,-0.13712824881076813,0.5556908249855042,-0.0411684513092041
1761379670379120600,5.59412060546875,-0.19475075602531433,0.5889154076576233,-0.10745099186897278
1761379670389146600,5.604146728515625,-0.2468608319759369,0.5866837501525879,-0.12134034931659698
1761379670399171600,5.614171630859375,-0.3116278648376465,0.6325985789299011,-0.03765447810292244
1761379670409199000,5.62419921875,-0.3850049674510956,0.7509245872497559,0.12901780009269714
1761379670419213000,5.634213134765625,-0.4363323152065277,0.8950807452201843,0.31325995922088623
1761379670429257200,5.64425732421875,-0.48779287934303284,0.91056889295578,0.42212653160095215
1761379670439283500,5.654283447265625,-0.5546749830245972,0.7386673092842102,0.4149986505508423
1761379670449323800,5.66432373046875,-0.608034074306488,0.40677163004875183,0.3326117992401123
1761379670459349800,5.674349853515625,-0.636911928653717,-0.04646439477801323,0.2170836478471756
1761379670469350100,5.68435009765625,-0.6208075881004333,-0.43864721059799194,0.1091330349445343
1761379670479401500,5.6944013671875,-0.5345070958137512,-0.6365455389022827,0.039852794259786606
1761379670489427500,5.704427490234375,-0.36173945665359497,-0.664274275302887,0.0019651607144623995
1761379670499421400,5.71442138671875,-0.09645941853523254,-0.6191921830177307,-0.053875382989645004
1761379670509479200,5.724479248046875,0.18191060423851013,-0.6519337296485901,-0.2268095314502716
1761379670519484000,5.73448388671875,0.3319789469242096,-0.788529098033905,-0.5828866958618164
1761379670529530600,5.744530517578125,0.29680588841438293,-0.9278389811515808,-1.0700966119766235
1761379670539556000,5.75455615234375,0.0942111387848854,-1.1333814859390259,-1.5806220769882202
1761379670549582600,5.76458251953125,-0.20422683656215668,-1.4324190616607666,-1.9107691049575806
1761379670559607800,5.77460791015625,-0.44697415828704834,-1.7041608095169067,-1.8741638660430908
1761379670569633800,5.7846337890625,-0.5244814157485962,-1.8318462371826172,-1.5564240217208862
1761379670579660000,5.794659912109375,-0.43012040853500366,-1.7166844606399536,-1.1999305486679077
1761379670589685000,5.80468505859375,-0.25392207503318787,-1.4335181713104248,-1.029994010925293
1761379670599711700,5.814711669921875,-0.23073984682559967,-1.1093999147415161,-1.1571799516677856
1761379670609737700,5.82473779296875,-0.47293758392333984,-0.8431872129440308,-1.5499955415725708
1761379670619763700,5.834763671875,-0.8689008355140686,-0.8044502139091492,-2.1053366661071777
1761379670629789200,5.8447890625,-1.2274926900863647,-0.9615298509597778,-2.640126943588257
1761379670639814700,5.854814697265625,-1.4175803661346436,-1.155830979347229,-3.0002009868621826
1761379670649840600,5.864840576171875,-1.428255558013916,-1.3181731700897217,-3.095311403274536
1761379670659866000,5.8748662109375,-1.3085472583770752,-1.4570001363754272,-2.9232099056243896
1761379670669875200,5.884875244140625,-1.085634708404541,-1.506062626838684,-2.534541130065918
1761379670679918600,5.894918701171875,-0.7918265461921692,-1.4255242347717285,-1.9962036609649658
1761379670689968600,5.90496875,-0.47535240650177,-1.2506749629974365,-1.3830734491348267
1761379670699969800,5.9149697265625,-0.17872971296310425,-1.026979684829712,-0.7789530754089355
1761379670709996000,5.92499609375,0.05622358247637749,-0.8076977133750916,-0.2620824873447418
1761379670720021500,5.935021484375,0.22314566373825073,-0.6468876004219055,0.12397167086601257
1761379670730047000,5.945046875,0.33737480640411377,-0.58202064037323,0.3330947458744049
1761379670740055300,5.95505517578125,0.4271393418312073,-0.5745264291763306,0.3602406084537506
1761379670750100000,5.965099853515625,0.5046799182891846,-0.5895981788635254,0.2382507622241974
1761379670759953200,5.974953125,0.563568115234375,-0.6116146445274353,0.0010825038189068437
1761379670770154800,5.98515478515625,0.6070514917373657,-0.600473165512085,-0.2927590012550354
1761379670780144600,5.99514453125,0.6527997851371765,-0.5609201788902283,-0.5702630281448364
1761379670790203000,6.005202880859375,0.7108885645866394,-0.5455152988433838,-0.7823171615600586
1761379670800205600,6.01520556640625,0.7677949666976929,-0.5419180393218994,-0.8900179862976074
1761379670810254600,6.025254638671875,0.8197551369667053,-0.45127084851264954,-0.8512476682662964
1761379670820280600,6.035280517578125,0.841555118560791,-0.25237327814102173,-0.667988121509552
1761379670830267100,6.04526708984375,0.7964397072792053,-0.03437365964055061,-0.37922605872154236
1761379670840332800,6.055332763671875,0.6797791123390198,0.1702195554971695,-0.05752258747816086
1761379670850357000,6.06535693359375,0.5284783840179443,0.3045666217803955,0.2115378975868225
1761379670860383700,6.0753837890625,0.4098859131336212,0.3326117992401123,0.40150898694992065
1761379670870409700,6.08540966796875,0.3563602566719055,0.2576192617416382,0.5127737522125244
1761379670880412200,6.095412109375,0.32909780740737915,0.11589452624320984,0.5805384516716003
1761379670890461000,6.1054609375,0.2986045181751251,-0.0037970903795212507,0.6896881461143494
1761379670900487700,6.11548779296875,0.25225669145584106,-0.029544027522206306,0.8652536273002625
1761379670910512600,6.1255126953125,0.2003464698791504,0.08137097954750061,1.0546751022338867
1761379670920539100,6.1355390625,0.15060126781463623,0.26876071095466614,1.1889889240264893
1761379670930565400,6.1455654296875,0.12925095856189728,0.45656681060791016,1.2315562963485718
1761379670940590800,6.1555908203125,0.14635451138019562,0.5747762322425842,1.2008131742477417
1761379670950593000,6.165593017578125,0.14430607855319977,0.4916399121284485,1.1593116521835327
1761379670960643600,6.1756435546875,0.12650306522846222,0.31833937764167786,1.2196154594421387
1761379670970671600,6.185671630859375,0.13716155290603638,0.21961504220962524,1.4269065856933594
1761379670980673300,6.19567333984375,0.18960469961166382,0.2856144607067108,1.7384178638458252
1761379670990720500,6.205720458984375,0.31410929560661316,0.4270893931388855,2.058072805404663
1761379671000745200,6.2157451171875,0.47085586190223694,0.4682578444480896,2.231873035430908
1761379671010771200,6.225771240234375,0.565283477306366,0.35715964436531067,2.185758352279663
1761379671020797000,6.235796875,0.5482965111732483,0.21052201092243195,2.0138401985168457
1761379671030822700,6.24582275390625,0.37812691926956177,0.009142993949353695,1.8259007930755615
1761379671040849400,6.255849365234375,0.08128771185874939,-0.20064625144004822,1.6466715335845947
1761379671050851800,6.265851806640625,-0.28028520941734314,-0.22949080169200897,1.4273395538330078
1761379671060901000,6.275901123046875,-0.6903876066207886,0.017819678410887718,0.9957369565963745
1761379671070928400,6.285928466796875,-1.1304337978363037,0.4254906177520752,0.18773946166038513
1761379671080951300,6.295951416015625,-1.5061291456222534,0.9320690631866455,-0.95701664686203
1761379671090978000,6.30597802734375,-1.6789467334747314,1.5395702123641968,-2.175999164581299
1761379671101003300,6.316003173828125,-1.6156952381134033,2.1239724159240723,-3.2025959491729736
1761379671111030500,6.326030517578125,-1.4230594635009766,2.40895414352417,-3.9556021690368652
1761379671121055200,6.33605517578125,-1.2202816009521484,2.4021425247192383,-4.355095863342285
1761379671131080400,6.34608056640625,-0.9966862201690674,2.3017361164093018,-4.353763580322266
1761379671141106400,6.3561064453125,-0.7617995738983154,2.0904481410980225,-4.004997730255127
1761379671151144400,6.36614453125,-0.5325252413749695,1.7845325469970703,-3.41196870803833
1761379671161158700,6.37615869140625,-0.3456684350967407,1.4235591888427734,-2.7084412574768066
1761379671171184400,6.386184326171875,-0.22531068325042725,1.0422680377960205,-2.019902229309082
1761379671181191400,6.39619140625,-0.1464211344718933,0.6635082364082336,-1.4018924236297607
1761379671191236600,6.406236572265625,-0.10002335160970688,0.3061487376689911,-0.8688508868217468
1761379671201262000,6.416261962890625,-0.09391137212514877,0.04919563606381416,-0.4242415726184845
1761379671211288300,6.426288330078125,-0.11091500520706177,-0.06673219799995422,-0.09847453981637955
1761379671221290800,6.436290771484375,-0.11049865931272507,-0.11471209675073624,0.10438667237758636
1761379671231338800,6.4463388671875,-0.058555129915475845,-0.1631416529417038,0.22734245657920837
1761379671241365800,6.45636572265625,0.043233536183834076,-0.24632790684700012,0.3029012084007263
1761379671251391500,6.4663916015625,0.18502488732337952,-0.3457850217819214,0.37955915927886963
1761379671261417200,6.476417236328125,0.3352930545806885,-0.3958300054073334,0.49660277366638184
1761379671271443500,6.486443359375,0.45343586802482605,-0.3691004812717438,0.6541820168495178
1761379671281468400,6.496468505859375,0.5294609665870667,-0.2899611294269562,0.8373416662216187
1761379671291495000,6.506494873046875,0.5690972208976746,-0.1945842206478119,1.0470476150512695
1761379671301521700,6.516521728515625,0.5683977603912354,-0.14580494165420532,1.2567869424819946
1761379671311536400,6.526536376953125,0.5293943285942078,-0.18767285346984863,1.417197346687317
1761379671321572400,6.536572265625,0.49420464038848877,-0.24907580018043518,1.5049301385879517
1761379671331598300,6.546598388671875,0.49931737780570984,-0.21441902220249176,1.499884009361267
1761379671341623300,6.556623291015625,0.5228160619735718,-0.12748564779758453,1.3745300769805908
1761379671351627300,6.566627197265625,0.4989343285560608,-0.15817879140377045,1.072128415107727
1761379671361676300,6.57667626953125,0.34513550996780396,-0.3382408022880554,0.5937449932098389
1761379671371702300,6.586702392578125,0.08270329236984253,-0.4029412269592285,0.056423429399728775
1761379671381704200,6.5967041015625,-0.20261140167713165,-0.2328549027442932,-0.411684513092041
1761379671391753700,6.606753662109375,-0.46754172444343567,0.09026416391134262,-0.7682779431343079
1761379671401756400,6.61675634765625,-0.6784467697143555,0.41676396131515503,-1.019235610961914
1761379671411782400,6.626782470703125,-0.778370201587677,0.6878895163536072,-1.1527832746505737
1761379671421823000,6.636822998046875,-0.7211140990257263,0.937798023223877,-1.1492526531219482
1761379671431833900,6.646833740234375,-0.5241483449935913,1.0762419700622559,-1.0434670448303223
1761379671441881900,6.6568818359375,-0.2855978012084961,1.018269658088684,-0.9086370468139648
1761379671451907600,6.666907470703125,-0.11972492188215256,0.7936418056488037,-0.7729410529136658
1761379671461934000,6.67693408203125,-0.04524866119027138,0.5120076537132263,-0.5914467573165894
1761379671471960000,6.6869599609375,0.013706163503229618,0.30388379096984863,-0.31472548842430115
1761379671481962800,6.696962646484375,0.10976588726043701,0.24349674582481384,0.041518185287714005
1761379671492011500,6.707011474609375,0.22536064684391022,0.2772875130176544,0.40921974182128906
1761379671502037200,6.717037353515625,0.3164408504962921,0.2831830084323883,0.6986812949180603
1761379671512034600,6.72703466796875,0.3761450946331024,0.23108957707881927,0.876878023147583
1761379671522089200,6.737089111328125,0.419711709022522,0.15289950370788574,0.9399796724319458
1761379671532115200,6.747115234375,0.44059571623802185,0.038970138877630234,0.861723005771637
1761379671542141000,6.757140869140625,0.4393799602985382,-0.12656967341899872,0.6401094794273376
1761379671562192100,6.777192138671875,0.3336276710033417,-0.6226728558540344,-0.14435604214668274
1761379671572218000,6.787218017578125,0.21963170170783997,-0.7858311533927917,-0.518436074256897
1761379671582243800,6.797243896484375,0.052709609270095825,-0.8194387555122375,-0.7744398713111877
1761379671592270000,6.80727001953125,-0.10476971417665482,-0.6473206281661987,-0.8241351246833801
1761379671602296000,6.817296142578125,-0.19218605756759644,-0.27792036533355713,-0.6848751902580261
1761379671612321800,6.82732177734375,-0.1883390098810196,0.10498621314764023,-0.45203694701194763
1761379671622347500,6.837347412109375,-0.1099657341837883,0.3819073438644409,-0.19624961912631989
1761379671632373000,6.847373046875,-0.015438170172274113,0.5385872721672058,0.052792876958847046
1761379671642399200,6.857399169921875,0.06684877723455429,0.57667475938797,0.2620158791542053
1761379671652424400,6.867424560546875,0.15544754266738892,0.4486728608608246,0.4039571285247803
1761379671662450200,6.8774501953125,0.2607002258300781,0.19156986474990845,0.4767346680164337
1761379671672476400,6.887476318359375,0.35860854387283325,-0.0700463205575943,0.5111416578292847
1761379671682481200,6.897481201171875,0.3986944854259491,-0.21117150783538818,0.5298439860343933
1761379671692528000,6.907528076171875,0.36163952946662903,-0.23085643351078033,0.5456485152244568
1761379671702553300,6.91755322265625,0.29805493354797363,-0.1692536324262619,0.579289436340332
1761379671712579300,6.927579345703125,0.24789337813854218,-0.04679747298359871,0.6386106610298157
1761379671722596600,6.9375966796875,0.22379517555236816,0.08298640698194504,0.7073579430580139
1761379671732608500,6.9476083984375,0.22675956785678864,0.19794830679893494,0.7621992826461792
1761379671742658000,6.957657958984375,0.2649136781692505,0.28939491510391235,0.7904109954833984
1761379671752683800,6.967683837890625,0.3241182863712311,0.33472684025764465,0.7771544456481934
1761379671762709500,6.97770947265625,0.3577924966812134,0.29320865869522095,0.7106887102127075
1761379671772734700,6.987734619140625,0.340305894613266,0.15156719088554382,0.5850017070770264
1761379671782761200,6.99776123046875,0.2804017961025238,-0.023565275594592094,0.4234088659286499
1761379671792780000,7.007780029296875,0.20071285963058472,-0.1515505313873291,0.24502889811992645
1761379671802813200,7.017813232421875,0.12052430957555771,-0.2342371642589569,0.07101225107908249
1761379671812815600,7.027815673828125,0.016753828153014183,-0.29675593972206116,-0.07754058390855789
1761379671822864400,7.037864501953125,-0.10493625700473785,-0.3321954309940338,-0.1475202888250351
1761379671832868600,7.04786865234375,-0.20019659399986267,-0.28433212637901306,-0.12067419290542603
1761379671842893300,7.057893310546875,-0.2392999529838562,-0.11409590393304825,-0.038387250155210495
1761379671852942000,7.067942138671875,-0.2113880068063736,0.12522071599960327,0.05219333618879318
1761379671862966800,7.077966796875,-0.14132504165172577,0.3296140730381012,0.1254538595676422
1761379671872993800,7.087993896484375,-0.07795692980289459,0.43498334288597107,0.1775139719247818
1761379671883019500,7.09801953125,-0.03883690759539604,0.4567166864871979,0.2257603406906128
1761379671893045500,7.10804541015625,-0.014388973824679852,0.42061102390289307,0.24747702479362488
1761379671903070200,7.1180703125,0.005795558914542198,0.37562882900238037,0.2274257242679596
1761379671913097200,7.12809716796875,0.012590352445840836,0.35666003823280334,0.15236657857894897
1761379671923123000,7.138123046875,-0.031009571626782417,0.3682344853878021,0.024564510211348534
1761379671933148200,7.148148193359375,-0.11534494161605835,0.40643855929374695,-0.10362059623003006
1761379671943174100,7.158174072265625,-0.19928061962127686,0.48369601368904114,-0.2056923806667328
1761379671953199900,7.168199951171875,-0.2485262155532837,0.6365455389022827,-0.284565269947052
1761379671963185000,7.178184814453125,-0.2590847909450531,0.7785367369651794,-0.3187390863895416
1761379671973251300,7.188251220703125,-0.24779345095157623,0.827282726764679,-0.2796190679073334
1761379671983277600,7.198277587890625,-0.23210547864437103,0.8155583739280701,-0.19505053758621216
1761379671993259000,7.208259033203125,-0.2448457032442093,0.8373749852180481,-0.04534858465194702
1761379672003330000,7.218330078125,-0.33264508843421936,0.6864572763442993,0.033590927720069885
1761379672013336800,7.2283369140625,-0.4084703326225281,0.32639989256858826,0.020351070910692215
1761379672023381200,7.23838134765625,-0.4378478229045868,0.03895348310470581,0.025147397071123123
1761379672033406700,7.24840673828125,-0.44885605573654175,-0.15754593908786774,0.06926359236240387
1761379672043432200,7.25843212890625,-0.46982330083847046,-0.259900838136673,0.13499654829502106
1761379672053458700,7.268458740234375,-0.5171037316322327,-0.36485373973846436,0.27417322993278503
1761379672063461400,7.27846142578125,-0.5271627306938171,-0.4611799418926239,0.4910403788089752
