time,seconds_elapsed,z,y,x
1761380194903826400,0.113826416015625,0.28433212637901306,0.12636983394622803,-0.3217201232910156
1761380194913863700,0.12386376953125,0.2866303622722626,0.08653368800878525,-0.27397337555885315
1761380194923891000,0.133890869140625,0.2866303622722626,0.05599042773246765,-0.2329881340265274
1761380194933919700,0.143919677734375,0.28509819507598877,0.0115245021879673,-0.18122778832912445
1761380194943942000,0.15394189453125,0.2846318781375885,-0.046447739005088806,-0.1448889672756195
1761380194953969200,0.16396923828125,0.2837159335613251,-0.09747530519962311,-0.13574597239494324
1761380194963993000,0.1739931640625,0.27653810381889343,-0.10060624033212662,-0.15110087394714355
1761380194974017300,0.184017333984375,0.25125744938850403,-0.06548315286636353,-0.1671052873134613
1761380194984042800,0.194042724609375,0.20450995862483978,-0.007444295566529036,-0.16234226524829865
1761380194994046700,0.204046630859375,0.15073449909687042,0.05745597183704376,-0.14035910367965698
1761380195004094000,0.214093994140625,0.10911638289690018,0.09877430647611618,-0.11434570699930191
1761380195014121000,0.224120849609375,0.08853215724229813,0.08904843032360077,-0.10225497931241989
1761380195024123400,0.234123291015625,0.08415218442678452,0.04228426516056061,-0.11466213315725327
1761380195034171100,0.244171142578125,0.09146324545145035,-0.010608537122607231,-0.14603808522224426
1761380195044201000,0.254200927734375,0.10526933521032333,-0.0358891636133194,-0.1834094524383545
1761380195054230300,0.264230224609375,0.1141958236694336,-0.030626531690359116,-0.21383613348007202
1761380195064241700,0.27424169921875,0.11266366392374039,-0.017303407192230225,-0.22940753400325775
1761380195074251500,0.28425146484375,0.10450325161218643,-0.01995137706398964,-0.2298571914434433
1761380195084309800,0.294309814453125,0.08998104929924011,-0.03389069810509682,-0.22970731556415558
1761380195094324500,0.304324462890625,0.06919697672128677,-0.03480666130781174,-0.2356194406747818
1761380195104351500,0.3143515625,0.03940314054489136,-0.02593012899160385,-0.23483671247959137
1761380195114376400,0.32437646484375,-0.002781202085316181,-0.045198697596788406,-0.2352031022310257
1761380195124402700,0.334402587890625,-0.05122740939259529,-0.11765983700752258,-0.2093895524740219
1761380195134428400,0.344428466796875,-0.08303637057542801,-0.21468548476696014,-0.13837729394435883
1761380195144454000,0.354453857421875,-0.09397798776626587,-0.29425784945487976,-0.03792094066739082
1761380195154456300,0.364456298828125,-0.09929057955741882,-0.3606403172016144,0.0642174556851387
1761380195164505300,0.37450537109375,-0.09382809698581696,-0.4031577408313751,0.1525830775499344
1761380195174531000,0.384531005859375,-0.07517572492361069,-0.40817055106163025,0.21776646375656128
1761380195184555500,0.394555419921875,-0.06804785877466202,-0.42703941464424133,0.23580263555049896
1761380195194546000,0.4045458984375,-0.08082140237092972,-0.46529343724250793,0.21283690631389618
1761380195204585200,0.414585205078125,-0.0964261069893837,-0.4786831736564636,0.18385910987854004
1761380195214633000,0.424633056640625,-0.12167342752218246,-0.4592147767543793,0.1584952175617218
1761380195224659500,0.434659423828125,-0.15086773037910461,-0.43310144543647766,0.13146592676639557
1761380195234685700,0.444685791015625,-0.17561542987823486,-0.4231424033641815,0.09924061596393585
1761380195244710100,0.454710205078125,-0.18920500576496124,-0.41842934489250183,0.06711523979902267
1761380195254713900,0.4647138671875,-0.18837231397628784,-0.4089532792568207,0.03477335348725319
1761380195264761300,0.47476123046875,-0.177031010389328,-0.3819739520549774,0.004396630916744471
1761380195274787300,0.484787353515625,-0.16507349908351898,-0.31862249970436096,-0.02279919572174549
1761380195284813000,0.49481298828125,-0.14858613908290863,-0.24058230221271515,-0.04851282387971878
1761380195294838000,0.504838134765625,-0.12340543419122696,-0.18011197447776794,-0.06473372876644135
1761380195304842800,0.5148427734375,-0.09257905930280685,-0.1244046688079834,-0.06270194798707962
1761380195314890200,0.52489013671875,-0.06728177517652512,-0.07119544595479965,-0.037804365158081055
1761380195324905500,0.534905517578125,-0.05752258747816086,-0.03205876797437668,0.004696401301771402
1761380195334943700,0.54494384765625,-0.06798124313354492,-0.014821975491940975,0.05230991542339325
1761380195344970000,0.554969970703125,-0.08526799082756042,-0.018718989565968513,0.10303770750761032
1761380195354995000,0.564994873046875,-0.09657599776983261,-0.03077641688287258,0.14921899139881134
1761380195365018400,0.575018310546875,-0.10182197391986847,-0.04161810874938965,0.18136101961135864
1761380195375021300,0.585021240234375,-0.10453656315803528,-0.058055512607097626,0.19476741552352905
1761380195385069600,0.595069580078125,-0.11103158444166183,-0.08160413056612015,0.1834927201271057
1761380195395094500,0.605094482421875,-0.12335547059774399,-0.11184762418270111,0.15491461753845215
1761380195405120800,0.615120849609375,-0.13909341394901276,-0.12733575701713562,0.12438801676034927
1761380195415146000,0.62514599609375,-0.15200018882751465,-0.11967495828866959,0.10397032648324966
1761380195425172500,0.63517236328125,-0.16167610883712769,-0.09556010365486145,0.0926123633980751
1761380195435203000,0.645203125,-0.1656397432088852,-0.057056277990341187,0.07674119621515274
1761380195445231000,0.655231201171875,-0.1560637354850769,-0.004879594314843416,0.06573296338319778
1761380195455227400,0.665227294921875,-0.138560488820076,0.06273525953292847,0.06769812107086182
1761380195465252600,0.675252685546875,-0.12333881855010986,0.1307831108570099,0.07439298927783966
1761380195475278000,0.685278076171875,-0.11712691187858582,0.15912805497646332,0.07910604774951935
1761380195485305000,0.69530517578125,-0.12630321085453033,0.1579456329345703,0.07888954877853394
1761380195495330600,0.70533056640625,-0.1564134806394577,0.14095865190029144,0.06949674338102341
1761380195505343200,0.71534326171875,-0.20134571194648743,0.12282254546880722,0.0564400851726532
1761380195515369500,0.725369384765625,-0.2468774914741516,0.12522071599960327,0.027878636494278908
1761380195525414100,0.7354140625,-0.28641384840011597,0.1189255341887474,-0.02150019071996212
1761380195535438800,0.74543896484375,-0.3212871253490448,0.10805053263902664,-0.09514375776052475
1761380195545465300,0.75546533203125,-0.35111427307128906,0.09319525212049484,-0.18297645449638367
1761380195555504600,0.765504638671875,-0.36463725566864014,0.07702431082725525,-0.26662901043891907
1761380195565530000,0.775530029296875,-0.35762596130371094,0.06901378184556961,-0.3262166976928711
1761380195575557600,0.7855576171875,-0.3313627541065216,0.08300305902957916,-0.34103867411613464
1761380195585582300,0.795582275390625,-0.2873298227787018,0.11900880187749863,-0.3033009171485901
1761380195595608000,0.805608154296875,-0.2388836145401001,0.1432901918888092,-0.2249276340007782
1761380195605633000,0.815633056640625,-0.20166213810443878,0.14195787906646729,-0.1381607949733734
1761380195615659300,0.8256591796875,-0.184525266289711,0.12188992649316788,-0.07121209800243378
1761380195625662200,0.835662109375,-0.17599846422672272,0.09615964442491531,-0.03257503733038902
1761380195635709700,0.845709716796875,-0.15979421138763428,0.0832362174987793,-0.017852986231446266
1761380195645736700,0.85573681640625,-0.12921765446662903,0.11472874879837036,-0.011890888214111328
1761380195655740000,0.865739990234375,-0.08085470646619797,0.1869567334651947,-0.006744831334799528
1761380195665787400,0.875787353515625,-0.024098200723528862,0.25565409660339355,-0.01284016016870737
1761380195675814100,0.885814208984375,0.022449463605880737,0.27981892228126526,-0.06323487311601639
1761380195685838000,0.895838134765625,0.06541653722524643,0.26544660329818726,-0.15366557240486145
1761380195695864300,0.9058642578125,0.1003897413611412,0.2213970124721527,-0.25543758273124695
1761380195705892400,0.915892333984375,0.11008231341838837,0.17964567244052887,-0.33680856227874756
1761380195715920100,0.925920166015625,0.12047434598207474,0.16868740320205688,-0.36853426694869995
1761380195725943000,0.935943115234375,0.15221668779850006,0.17977890372276306,-0.3331613540649414
1761380195735971300,0.945971435546875,0.18690676987171173,0.1768145114183426,-0.23243854939937592
1761380195745994200,0.955994140625,0.221946582198143,0.12758556008338928,-0.08446860313415527
1761380195756018700,0.966018798828125,0.24865944683551788,0.04471573606133461,0.08350268006324768
1761380195766031400,0.97603125,0.25836867094039917,-0.020550917834043503,0.2582687437534332
1761380195776070000,0.98606982421875,0.23085643351078033,-0.11611102521419525,0.3914000689983368
1761380195786073600,0.996073486328125,0.2023782581090927,-0.22074751555919647,0.46369466185569763
1761380195796120600,1.00612060546875,0.18745635449886322,-0.2896280586719513,0.503480851650238
1761380195806146000,1.01614599609375,0.15206681191921234,-0.33904018998146057,0.4966694116592407
1761380195816172500,1.026172607421875,0.11276359111070633,-0.3510809540748596,0.4567999541759491
1761380195826198800,1.03619873046875,0.07314395159482956,-0.3394065797328949,0.39178311824798584
1761380195836238600,1.046238525390625,0.012490428984165192,-0.32769888639450073,0.3014856278896332
1761380195846241800,1.05624169921875,-0.044782351702451706,-0.3190554976463318,0.20908977091312408
1761380195856252400,1.06625244140625,-0.09800823032855988,-0.30216845870018005,0.12886790931224823
1761380195866313500,1.0763134765625,-0.1486361026763916,-0.2726244330406189,0.059804171323776245
1761380195876326700,1.08632666015625,-0.1943177580833435,-0.23900018632411957,0.0025313934311270714
1761380195886352100,1.09635205078125,-0.23165582120418549,-0.19849789142608643,-0.046364471316337585
1761380195896377600,1.106377685546875,-0.2608334720134735,-0.15166711807250977,-0.08276990801095963
1761380195906403000,1.116403076171875,-0.28819581866264343,-0.11332982033491135,-0.10715122520923615
1761380195916429000,1.126428955078125,-0.321370393037796,-0.08223698288202286,-0.11802622675895691
1761380195926454000,1.1364541015625,-0.3554609417915344,-0.0576225109398365,-0.11965830624103546
1761380195936480000,1.14647998046875,-0.3844553828239441,-0.03936983272433281,-0.12200650572776794
1761380195946506000,1.156506103515625,-0.4009927213191986,-0.028611408546566963,-0.1291343718767166
1761380195956534000,1.166533935546875,-0.4036906659603119,-0.02238284796476364,-0.14142495393753052
1761380195966557200,1.17655712890625,-0.3936983048915863,-0.0210005734115839,-0.15083441138267517
1761380195976583200,1.186583251953125,-0.37236467003822327,-0.02501416578888893,-0.15068453550338745
1761380195986601700,1.196601806640625,-0.3466343879699707,-0.016970328986644745,-0.13476340472698212
1761380195996633900,1.2066337890625,-0.31187766790390015,0.012257274240255356,-0.09827469289302826
1761380196006637800,1.216637939453125,-0.2791360914707184,0.04083537310361862,-0.03857044503092766
1761380196016684800,1.226684814453125,-0.2476935237646103,0.04887920990586281,0.03119276463985443
1761380196026711300,1.236711181640625,-0.20617534220218658,0.014988514594733715,0.09411121904850006
1761380196036737300,1.2467373046875,-0.16137634217739105,-0.06599942594766617,0.13706164062023163
1761380196046763500,1.256763427734375,-0.11817611008882523,-0.15761256217956543,0.1639743447303772
1761380196056792300,1.266792236328125,-0.08595079928636551,-0.21883231401443481,0.1855744570493698
1761380196066813000,1.27681298828125,-0.06523334234952927,-0.24229766428470612,0.2106885462999344
1761380196076839000,1.2868388671875,-0.049428790807724,-0.26038381457328796,0.2415315806865692
1761380196086865700,1.29686572265625,-0.024814318865537643,-0.2831663489341736,0.2772042453289032
1761380196096892200,1.30689208984375,0.0082436827942729,-0.2912767827510834,0.3152417540550232
1761380196106921700,1.316921630859375,0.024714395403862,-0.32590025663375854,0.3334444761276245
1761380196116945700,1.326945556640625,0.004996171221137047,-0.4078707695007324,0.3224529027938843
1761380196126972000,1.336971923828125,-0.06708192825317383,-0.4744197726249695,0.29673928022384644
1761380196136995000,1.3469951171875,-0.14895252883434296,-0.5221998691558838,0.2670620083808899
1761380196146990800,1.356990966796875,-0.21213744580745697,-0.5829033255577087,0.2251441329717636
1761380196157022700,1.367022705078125,-0.25224003195762634,-0.5890819430351257,0.1949339509010315
1761380196167070500,1.377070556640625,-0.2854645848274231,-0.5655832886695862,0.18495826423168182
1761380196177096400,1.387096435546875,-0.3172735273838043,-0.4588317275047302,0.1963328868150711
1761380196187102000,1.39710205078125,-0.32293587923049927,-0.3138594925403595,0.21685048937797546
1761380196197147100,1.407147216796875,-0.2994039058685303,-0.1685541719198227,0.22119715809822083
1761380196207173600,1.417173583984375,-0.23953311145305634,-0.04225095734000206,0.21200421452522278
1761380196217203500,1.427203369140625,-0.16538992524147034,0.06741500645875931,0.19395136833190918
1761380196227208000,1.4372080078125,-0.0962928757071495,0.15644678473472595,0.18094468116760254
1761380196237242400,1.447242431640625,-0.04588150605559349,0.2078573852777481,0.18777278065681458
1761380196247253000,1.4572529296875,-0.01450555119663477,0.22043108940124512,0.2202811986207962
1761380196257318000,1.46731787109375,0.010158881545066833,0.21823276579380035,0.2828998863697052
1761380196267327200,1.4773271484375,0.028078483417630196,0.21067190170288086,0.37221476435661316
1761380196277352000,1.48735205078125,0.03439031168818474,0.19643281400203705,0.47668471932411194
1761380196287378400,1.49737841796875,0.0333244651556015,0.17058594524860382,0.578323483467102
1761380196297404000,1.50740380859375,0.03164241835474968,0.1675216257572174,0.6641743779182434
1761380196307429400,1.517429443359375,0.02291577309370041,0.12868472933769226,0.6982982158660889
1761380196317463600,1.527463623046875,0.020051300525665283,0.10640180110931396,0.6925193071365356
1761380196327481300,1.5374814453125,0.021183766424655914,0.06105321645736694,0.6515840291976929
1761380196337506000,1.547506103515625,0.011058192700147629,0.002364854561164975,0.5728276968002319
1761380196347531000,1.557531005859375,0.004246745724231005,-0.052326567471027374,0.48829248547554016
1761380196357535000,1.567534912109375,-0.007843988947570324,-0.13916002213954926,0.39463093876838684
1761380196367560700,1.577560791015625,-0.016637250781059265,-0.2137528657913208,0.3121108412742615
1761380196377609500,1.587609375,-0.009359494782984257,-0.22589357197284698,0.24223104119300842
1761380196387635500,1.597635498046875,-0.014772013761103153,-0.24211446940898895,0.1838924139738083
1761380196397660400,1.607660400390625,-0.06075344607234001,-0.2672785222530365,0.10466979444026947
1761380196407686000,1.617685791015625,-0.11974157392978668,-0.3008860945701599,-0.011374616995453835
1761380196417710800,1.6277109375,-0.17193491756916046,-0.3256005048751831,-0.17380015552043915
1761380196427737600,1.637737548828125,-0.21678388118743896,-0.3497486412525177,-0.3721648156642914
1761380196437763000,1.64776318359375,-0.24661102890968323,-0.3833562433719635,-0.557606041431427
1761380196447789800,1.657789794921875,-0.2582687437534332,-0.3857044279575348,-0.6740334630012512
1761380196457818400,1.667818359375,-0.2616661489009857,-0.31980493664741516,-0.6992308497428894
1761380196467840300,1.67784033203125,-0.2676782011985779,-0.1991807073354721,-0.6528830528259277
1761380196477865000,1.687864990234375,-0.2707425355911255,-0.07932254672050476,-0.5701464414596558
1761380196487915500,1.69791552734375,-0.25253981351852417,0.006045367568731308,-0.4695901572704315
1761380196497916200,1.707916259765625,-0.21731680631637573,0.07091232389211655,-0.3739134669303894
1761380196507944200,1.717944091796875,-0.17659801244735718,0.11759322136640549,-0.30105262994766235
1761380196517961700,1.727961669921875,-0.1357959359884262,0.12505416572093964,-0.26426416635513306
1761380196527988500,1.737988525390625,-0.10213840007781982,0.08095463365316391,-0.26496362686157227
1761380196537986600,1.747986572265625,-0.07838992774486542,-0.006278522312641144,-0.2857643663883209
1761380196548043000,1.75804296875,-0.05932120978832245,-0.09827469289302826,-0.29893758893013
1761380196558069200,1.7680693359375,-0.045565083622932434,-0.15812882781028748,-0.28861215710639954
1761380196568096300,1.77809619140625,-0.037554554641246796,-0.16937021911144257,-0.256919801235199
1761380196578123500,1.78812353515625,-0.030509954318404198,-0.148286372423172,-0.2143024504184723
1761380196588174300,1.79817431640625,-0.01866902783513069,-0.11754325777292252,-0.17984551191329956
1761380196598173700,1.808173583984375,-0.004280053544789553,-0.09207943826913834,-0.16269199550151825
1761380196608202000,1.818201904296875,0.00799387414008379,-0.08503483980894089,-0.16074348986148834
1761380196618226000,1.828225830078125,0.013955972157418728,-0.09750860929489136,-0.16049368679523468
1761380196628235300,1.8382353515625,0.008227028883993626,-0.12247281521558762,-0.14951875805854797
1761380196638296800,1.848296875,-0.00920960959047079,-0.15784570574760437,-0.1253872513771057
1761380196648300800,1.85830078125,-0.036588627845048904,-0.2050761878490448,-0.09474406391382217
1761380196658327800,1.868327880859375,-0.06848085671663284,-0.26433077454566956,-0.057389356195926666
1761380196668353500,1.878353515625,-0.10267132520675659,-0.31709036231040955,-0.01861906610429287
1761380196678380000,1.888380126953125,-0.13982617855072021,-0.3504314720630646,0.024864280596375465
1761380196688364500,1.898364501953125,-0.18267668783664703,-0.3552277982234955,0.078789621591568
1761380196698428200,1.90842822265625,-0.2354862093925476,-0.3394731879234314,0.13149923086166382
1761380196708454700,1.91845458984375,-0.3003198802471161,-0.3269161581993103,0.17360030114650726
1761380196718474200,1.92847412109375,-0.3668522238731384,-0.3279486894607544,0.192019522190094
1761380196728505300,1.93850537109375,-0.42843836545944214,-0.3548946976661682,0.18955475091934204
1761380196738530800,1.94853076171875,-0.4813145101070404,-0.39727890491485596,0.1748160421848297
1761380196748556500,1.958556640625,-0.5392034649848938,-0.4290378987789154,0.1558472365140915
1761380196758582500,1.96858251953125,-0.6040038466453552,-0.4519536793231964,0.13657867908477783
1761380196768607700,1.978607666015625,-0.6661229133605957,-0.4728543162345886,0.11336313188076019
1761380196778633500,1.988633544921875,-0.7084571123123169,-0.4727210998535156,0.08638380467891693
1761380196788658700,1.99865869140625,-0.7207643389701843,-0.43113628029823303,0.0526929534971714
1761380196798676200,2.00867626953125,-0.7210308313369751,-0.3635547459125519,0.005196018144488335
1761380196808690700,2.018690673828125,-0.7307900190353394,-0.31825610995292664,-0.06653235107660294
1761380196818736000,2.028736083984375,-0.747027575969696,-0.2547881007194519,-0.13764452934265137
1761380196828761600,2.03876171875,-0.753605842590332,-0.19766519963741302,-0.20144563913345337
1761380196838787300,2.048787353515625,-0.7462281584739685,-0.14796994626522064,-0.2649303078651428
1761380196848813000,2.05881298828125,-0.7267597317695618,-0.10197185724973679,-0.3290478587150574
1761380196858838500,2.068838623046875,-0.7078742384910583,-0.058938167989254,-0.3830897808074951
1761380196868864300,2.0788642578125,-0.6988644599914551,-0.03990275412797928,-0.4173634946346283
1761380196878890500,2.088890380859375,-0.7017955780029297,-0.05923793837428093,-0.41353312134742737
1761380196888896300,2.098896240234375,-0.7100225687026978,-0.11379612982273102,-0.35867515206336975
1761380196898921000,2.1089208984375,-0.7165842056274414,-0.18727315962314606,-0.251224160194397
1761380196908948500,2.118948486328125,-0.7229293584823608,-0.24674426019191742,-0.11116481572389603
1761380196918979600,2.1289794921875,-0.7300072908401489,-0.3040003776550293,0.02621324546635151
1761380196929017900,2.139017822265625,-0.7181496620178223,-0.3603905141353607,0.14830301702022552
1761380196939043600,2.149043701171875,-0.6921529173851013,-0.40518951416015625,0.249508798122406
1761380196949069300,2.1590693359375,-0.6750660538673401,-0.43255186080932617,0.30201855301856995
1761380196959094800,2.1690947265625,-0.6510511040687561,-0.38240694999694824,0.3296973407268524
1761380196969120800,2.179120849609375,-0.6020219922065735,-0.30346745252609253,0.3381575345993042
1761380196979146500,2.189146484375,-0.5559573173522949,-0.22362864017486572,0.3219199776649475
1761380196989172000,2.199171875,-0.5191688537597656,-0.15704631805419922,0.29139336943626404
1761380196999176700,2.2091767578125,-0.49460431933403015,-0.1124638170003891,0.25806891918182373
1761380197009226800,2.219226806640625,-0.48399579524993896,-0.08410222083330154,0.2288912683725357
1761380197019237000,2.229237060546875,-0.4807482659816742,-0.06868070363998413,0.20629191398620605
1761380197029300500,2.239300537109375,-0.4801986813545227,-0.0654665008187294,0.18928828835487366
1761380197039301000,2.249301025390625,-0.48494505882263184,-0.06859743595123291,0.16940352320671082
1761380197049325800,2.259325927734375,-0.49598658084869385,-0.06460049748420715,0.13987614214420319
1761380197059351600,2.2693515625,-0.5159379839897156,-0.0519268736243248,0.0951104536652565
1761380197069379800,2.2793798828125,-0.5413851141929626,-0.03538954630494118,0.041851263493299484
1761380197079402800,2.28940283203125,-0.5583887696266174,-0.024497894570231438,-0.009309533052146435
1761380197089429200,2.29942919921875,-0.5647672414779663,-0.01277354545891285,-0.04643108695745468
1761380197099454700,2.309454833984375,-0.5599709153175354,-0.02254938706755638,-0.07007963210344315
1761380197109479700,2.319479736328125,-0.5472306609153748,-0.04951205849647522,-0.08167074620723724
1761380197119484700,2.329484619140625,-0.5307599306106567,-0.07444295287132263,-0.08197052031755447
1761380197129531100,2.33953125,-0.5079107880592346,-0.0860174149274826,-0.06808116286993027
1761380197139556600,2.349556640625,-0.48031526803970337,-0.08683346211910248,-0.039053406566381454
1761380197149582600,2.35958251953125,-0.44372662901878357,-0.07434303313493729,0.003230857430025935
1761380197159608000,2.369608154296875,-0.40783748030662537,-0.04829632490873337,0.0506112165749073
1761380197169633800,2.3796337890625,-0.3824569284915924,-0.030426684767007828,0.09207943826913834
1761380197179659300,2.3896591796875,-0.3698332607746124,-0.024331355467438698,0.11970826983451843
1761380197189685200,2.399685302734375,-0.3621724545955658,-0.030260145664215088,0.13497990369796753
1761380197199710500,2.40971044921875,-0.35769256949424744,-0.049828484654426575,0.13612902164459229
1761380197209736400,2.419736328125,-0.3516305387020111,-0.06994640082120895,0.1336309313774109
1761380197219759000,2.429759033203125,-0.3474004566669464,-0.0659494623541832,0.13691174983978271
1761380197229787600,2.43978759765625,-0.3482165038585663,-0.036888398230075836,0.14595481753349304
1761380197239813000,2.449813232421875,-0.34798333048820496,0.013955972157418728,0.144822359085083
1761380197249818000,2.459818115234375,-0.3145589530467987,0.06794793158769608,0.12603674829006195
1761380197259864600,2.469864501953125,-0.318522572517395,0.06964662671089172,0.07963897287845612
1761380197269890800,2.479890869140625,-0.32744908332824707,0.06688208132982254,0.02881125546991825
1761380197279918300,2.48991845703125,-0.34368664026260376,0.08719984441995621,-0.004713055212050676
1761380197289933800,2.499933837890625,-0.38235700130462646,0.09264567494392395,-0.03693836182355881
1761380197299969000,2.509968994140625,-0.41060203313827515,0.07475937902927399,-0.07086236774921417
1761380197309994000,2.519993896484375,-0.4389802813529968,0.04476569592952728,-0.100040003657341
1761380197320018700,2.530018798828125,-0.4581822156906128,0.025397205725312233,-0.12132369726896286
1761380197330044000,2.5400439453125,-0.4585319757461548,0.009043070487678051,-0.131632462143898
1761380197340069600,2.550069580078125,-0.4490225911140442,-0.00039969373028725386,-0.12353866547346115
1761380197350095400,2.560095458984375,-0.43023696541786194,0.010075611993670464,-0.10090600699186325
1761380197360121000,2.57012109375,-0.4052894413471222,0.03132599592208862,-0.07405991107225418
1761380197370129400,2.58012939453125,-0.3711322546005249,0.04394965618848801,-0.05056125670671463
1761380197380172500,2.590172607421875,-0.3272492289543152,0.047147203236818314,-0.025663666427135468
1761380197390201600,2.60020166015625,-0.2852480709552765,0.04188457131385803,0.00011657733557512984
1761380197400227000,2.61022705078125,-0.2518070340156555,0.01866902783513069,0.0267961323261261
1761380197410237000,2.62023681640625,-0.22176340222358704,-0.01383939478546381,0.06578292697668076
1761380197420308500,2.63030859375,-0.19113686680793762,-0.03340773284435272,0.11719352751970291
1761380197430307600,2.6403076171875,-0.1654232293367386,-0.030659839510917664,0.16052699089050293
1761380197440326100,2.650326171875,-0.14880263805389404,-0.02947741188108921,0.17180168628692627
1761380197450351900,2.660351806640625,-0.13546286523342133,-0.045315276831388474,0.14542189240455627
1761380197460377600,2.670377685546875,-0.12865141034126282,-0.07354364544153214,0.09334513545036316
1761380197470403000,2.680403076171875,-0.1265530288219452,-0.10600210726261139,0.03344104066491127
1761380197480428800,2.6904287109375,-0.132248654961586,-0.13681182265281677,-0.01740333065390587
1761380197490454300,2.700454345703125,-0.14360661804676056,-0.16219237446784973,-0.05177699029445648
1761380197500480000,2.71047998046875,-0.15316596627235413,-0.1788962483406067,-0.06466711312532425
1761380197510505700,2.720505615234375,-0.15546420216560364,-0.1782800555229187,-0.05119410157203674
1761380197520531500,2.730531494140625,-0.15220004320144653,-0.15146726369857788,-0.014955206774175167
1761380197530536400,2.740536376953125,-0.15163379907608032,-0.12265601009130478,0.021983154118061066
1761380197540582700,2.750582763671875,-0.16950345039367676,-0.15160049498081207,0.03267496079206467
1761380197550608100,2.760608154296875,-0.2104887068271637,-0.2545216381549835,0.013289815746247768
1761380197560634000,2.770634033203125,-0.25786906480789185,-0.3698832392692566,-0.013939318247139454
1761380197570655500,2.780655517578125,-0.29340848326683044,-0.4303036034107208,-0.03432369604706764
1761380197580687400,2.790687255859375,-0.3075976073741913,-0.4257570803165436,-0.05259303003549576
1761380197590711000,2.8007109375,-0.3085801899433136,-0.3646872043609619,-0.06741500645875931
1761380197600716000,2.810716064453125,-0.3065817356109619,-0.2669121325016022,-0.08769946545362473
1761380197610762200,2.82076220703125,-0.2994871735572815,-0.16732178628444672,-0.11178100854158401
1761380197620787700,2.83078759765625,-0.27044275403022766,-0.09021420031785965,-0.13303139805793762
1761380197630813700,2.840813720703125,-0.21700038015842438,-0.04041902720928192,-0.14242419600486755
1761380197640839400,2.85083935546875,-0.14916902780532837,-0.022982388734817505,-0.14292381703853607
1761380197650865000,2.860864990234375,-0.08396898955106735,-0.037637826055288315,-0.14332351088523865
1761380197660891100,2.87089111328125,-0.039136677980422974,-0.058055512607097626,-0.1478700190782547
1761380197670879500,2.88087939453125,-0.017603177577257156,-0.04673085734248161,-0.15221668779850006
1761380197680942000,2.890942138671875,-0.01039203628897667,-0.014305704273283482,-0.1492689549922943
1761380197690969600,2.900969482421875,-0.0021650076378136873,0.05289280042052269,-0.12980052828788757
1761380197700993800,2.910993896484375,0.0013323123566806316,0.13706164062023163,-0.09889088571071625
1761380197711018800,2.921018798828125,0.0156546700745821,0.213269904255867,-0.06158614158630371
1761380197721044500,2.93104443359375,0.04796324670314789,0.27072587609291077,-0.0267961323261261
1761380197731070700,2.94107080078125,0.08793261647224426,0.3026847243309021,0.00481297867372632
1761380197741096000,2.951095947265625,0.133297860622406,0.29445770382881165,0.04228426516056061
1761380197751100400,2.961100341796875,0.17614835500717163,0.2656630873680115,0.09202947467565536
1761380197761147100,2.971147216796875,0.20204517245292664,0.23050670325756073,0.15146726369857788
1761380197771172900,2.9811728515625,0.2054925262928009,0.19599980115890503,0.20815715193748474
1761380197781201400,2.991201416015625,0.18457522988319397,0.15941117703914642,0.24399636685848236
1761380197791229400,3.0012294921875,0.14375650882720947,0.10818376392126083,0.24820980429649353
1761380197801238000,3.011238037109375,0.08778273314237595,0.04016921669244766,0.2206975519657135
1761380197811307300,3.021307373046875,0.032208651304244995,-0.030176876112818718,0.17746400833129883
1761380197821307600,3.0313076171875,-0.012340543791651726,-0.07016289979219437,0.1269027590751648
1761380197831326700,3.04132666015625,-0.04718051105737686,-0.09852450340986252,0.06123640760779381
1761380197841352200,3.051352294921875,-0.07669123262166977,-0.15471477806568146,-0.022449463605880737
1761380197851358700,3.061358642578125,-0.1039203628897667,-0.22384513914585114,-0.1140625923871994
1761380197861403600,3.071403564453125,-0.12656967341899872,-0.26211580634117126,-0.19714891910552979
1761380197871429000,3.08142919921875,-0.1393265724182129,-0.26181602478027344,-0.2657463550567627
1761380197881433600,3.09143359375,-0.1435566544532776,-0.23755130171775818,-0.3287147879600525
1761380197891480300,3.101480224609375,-0.13949310779571533,-0.19759857654571533,-0.38547128438949585
1761380197901506000,3.111506103515625,-0.12958402931690216,-0.13899348676204681,-0.42019468545913696
1761380197911532000,3.121531982421875,-0.11842592060565948,-0.05665658414363861,-0.42893797159194946
1761380197921557500,3.1315576171875,-0.1067681834101677,0.029111025854945183,-0.415764719247818
1761380197931583200,3.141583251953125,-0.09204613417387009,0.08563438057899475,-0.3825068771839142
1761380197941609700,3.151609619140625,-0.06972990185022354,0.1005229726433754,-0.32270270586013794
1761380197951635500,3.161635498046875,-0.047197166830301285,0.08974789083003998,-0.23976626992225647
1761380197961639200,3.17163916015625,-0.03454019874334335,0.05402526631951332,-0.15491461753845215
1761380197971688200,3.181688232421875,-0.027545558288693428,0.006078675389289856,-0.08676684647798538
1761380197981714000,3.1917138671875,-0.023065658286213875,-0.032924771308898926,-0.042767226696014404
1761380197991739100,3.2017392578125,-0.02563035860657692,-0.0510275661945343,-0.022782541811466217
1761380198001764600,3.2117646484375,-0.03828732669353485,-0.055340927094221115,-0.01870233565568924
1761380198011790800,3.221790771484375,-0.05982082709670067,-0.05360892042517662,-0.024564510211348534
1761380198021816800,3.23181689453125,-0.08088801801204681,-0.053125955164432526,-0.03310796245932579
1761380198031842000,3.241842041015625,-0.0992073118686676,-0.057422664016485214,-0.04624789208173752
1761380198041867300,3.2518671875,-0.11652737110853195,-0.0769909992814064,-0.06326818466186523
1761380198051873500,3.26187353515625,-0.14007599651813507,-0.09672588109970093,-0.0778236985206604
1761380198061918500,3.27191845703125,-0.17006967961788177,-0.09909073263406754,-0.07928924262523651
1761380198071944400,3.2819443359375,-0.1995304375886917,-0.08873200416564941,-0.06521669030189514
1761380198081970400,3.291970458984375,-0.22454459965229034,-0.07767381519079208,-0.03607235848903656
1761380198091996000,3.301995849609375,-0.24716059863567352,-0.07374349236488342,0.0021150459069758654
1761380198102021400,3.312021484375,-0.2722080647945404,-0.0794890895485878,0.03397396579384804
1761380198112047600,3.322047607421875,-0.3060987591743469,-0.09895750135183334,0.05039471760392189
1761380198122072300,3.332072265625,-0.35061466693878174,-0.13258174061775208,0.04591481387615204
1761380198132098800,3.342098876953125,-0.4044400751590729,-0.17125210165977478,0.024348009377717972
1761380198142123800,3.352123779296875,-0.45724961161613464,-0.20087939500808716,-0.006561638321727514
1761380198152150500,3.362150634765625,-0.5002999305725098,-0.21831603348255157,-0.02951071970164776
1761380198162158600,3.37215869140625,-0.5311596393585205,-0.2204810529947281,-0.0338074266910553
1761380198172201700,3.38220166015625,-0.5551912188529968,-0.22301243245601654,-0.02329881303012371
1761380198182227200,3.392227294921875,-0.5745430588722229,-0.235752671957016,-0.0027312403544783592
1761380198192252700,3.402252685546875,-0.5852015614509583,-0.2622157335281372,0.02133365161716938
1761380198202233900,3.41223388671875,-0.5865838527679443,-0.3135763704776764,0.04386638477444649
1761380198212280800,3.42228076171875,-0.590197741985321,-0.3848051130771637,0.06023717299103737
1761380198222325200,3.4323251953125,-0.6056858897209167,-0.4583820700645447,0.07047932595014572
1761380198232331800,3.442331787109375,-0.6353464722633362,-0.5214337706565857,0.071295365691185
1761380198242380800,3.452380859375,-0.6624423861503601,-0.589431643486023,0.0622023344039917
1761380198252383000,3.462383056640625,-0.6628420948982239,-0.6428240537643433,0.05094429478049278
1761380198262432000,3.472431884765625,-0.635879397392273,-0.6284350752830505,0.04633116349577904
1761380198272457700,3.482457763671875,-0.6162610650062561,-0.523781955242157,0.05957101657986641
1761380198282482700,3.492482666015625,-0.6263700127601624,-0.3594911992549896,0.08596745878458023
1761380198292508400,3.50250830078125,-0.6411086916923523,-0.17718088626861572,0.13318127393722534
1761380198302535000,3.512534912109375,-0.6390436291694641,-0.00489624822512269,0.1891050934791565
1761380198312560400,3.522560302734375,-0.6084504127502441,0.12167342752218246,0.22949080169200897
1761380198322585900,3.5325859375,-0.563568115234375,0.14712059497833252,0.22967399656772614
1761380198332609300,3.542609375,-0.5264132618904114,0.10085605084896088,0.19318529963493347
1761380198342637300,3.55263720703125,-0.5125405788421631,0.026363130658864975,0.14712059497833252
1761380198352663300,3.562663330078125,-0.506295382976532,-0.03239184617996216,0.11855915188789368
1761380198362665500,3.57266552734375,-0.5079607367515564,-0.0873996913433075,0.11729345470666885
1761380198372714500,3.582714599609375,-0.5168372988700867,-0.13776110112667084,0.1363455206155777
1761380198382739700,3.59273974609375,-0.5261967778205872,-0.17256775498390198,0.17138533294200897
1761380198392742700,3.60274267578125,-0.5284450650215149,-0.1913367062807083,0.21595118939876556
1761380198402791200,3.612791259765625,-0.5256472229957581,-0.19901415705680847,0.26924368739128113
1761380198412816600,3.622816650390625,-0.5240650773048401,-0.20147894322872162,0.3221364915370941
1761380198422842600,3.632842529296875,-0.5152052044868469,-0.2054259181022644,0.3645373284816742
1761380198432840000,3.64283984375,-0.48884207010269165,-0.2123039811849594,0.38622069358825684
1761380198442893300,3.652893310546875,-0.4498719274997711,-0.22356201708316803,0.38115790486335754
1761380198452919000,3.6629189453125,-0.40812060236930847,-0.2384672611951828,0.3492490351200104
1761380198462946300,3.6729462890625,-0.37506258487701416,-0.2618826627731323,0.3001866340637207
1761380198472970000,3.682969970703125,-0.357526034116745,-0.29419124126434326,0.24667763710021973
1761380198482996200,3.692996337890625,-0.35840868949890137,-0.32535067200660706,0.2096560150384903
1761380198493021700,3.703021728515625,-0.3778770864009857,-0.34889930486679077,0.19501721858978271
1761380198503047400,3.71304736328125,-0.40990257263183594,-0.3625388443470001,0.19430111348628998
1761380198513074000,3.723073974609375,-0.44565850496292114,-0.3748294413089752,0.1852913498878479
1761380198523099400,3.733099365234375,-0.4743198752403259,-0.3899345397949219,0.14810317754745483
1761380198533101300,3.743101318359375,-0.492056280374527,-0.39899423718452454,0.07690773159265518
1761380198543149800,3.75314990234375,-0.4956035614013672,-0.3805250823497772,-0.010192189365625381
1761380198553175800,3.76317578125,-0.4916565716266632,-0.3252341151237488,-0.09341175109148026
1761380198563177700,3.773177734375,-0.4937383234500885,-0.2536889314651489,-0.15651339292526245
1761380198573227000,3.78322705078125,-0.507927417755127,-0.19546687602996826,-0.1930021047592163
1761380198583253200,3.793253173828125,-0.5360226035118103,-0.16359131038188934,-0.1982647329568863
1761380198593278500,3.803278564453125,-0.5598543286323547,-0.15774579346179962,-0.16996975243091583
1761380198603304000,3.813303955078125,-0.5689473748207092,-0.1579289734363556,-0.11018223315477371
1761380198613329200,3.8233291015625,-0.5570564866065979,-0.14139164984226227,-0.033757466822862625
1761380198623355600,3.833355712890625,-0.5302769541740417,-0.10826703161001205,0.04016921669244766
1761380198633380400,3.84338037109375,-0.49420464038848877,-0.08095463365316391,0.09832465648651123
1761380198643406300,3.85340625,-0.4538855254650116,-0.07707427442073822,0.14014260470867157
1761380198653432000,3.86343212890625,-0.4025914967060089,-0.08606737852096558,0.1802285611629486
1761380198663458000,3.8734580078125,-0.36067360639572144,-0.06285183876752853,0.21696707606315613
1761380198673484000,3.883484130859375,-0.33117955923080444,-0.03978617861866951,0.2454119473695755
1761380198683509200,3.89350927734375,-0.29688915610313416,-0.03807082772254944,0.2677781283855438
1761380198693562600,3.903562744140625,-0.25718626379966736,-0.032258614897727966,0.2856810688972473
1761380198703561200,3.913561279296875,-0.23775114119052887,-0.013622893951833248,0.29752200841903687
1761380198713586400,3.92358642578125,-0.23060661554336548,-0.015588055364787579,0.30388379096984863
1761380198723589600,3.933589599609375,-0.23143932223320007,0.007444295566529036,0.2966393530368805
1761380198733614800,3.94361474609375,-0.19678254425525665,0.0728275254368782,0.306864857673645
1761380198743640000,3.95364013671875,-0.18194390833377838,0.10685145109891891,0.30403369665145874
1761380198753666800,3.963666748046875,-0.17713093757629395,0.11321324855089188,0.27287423610687256
1761380198763691300,3.973691162109375,-0.1752990037202835,0.10725114494562149,0.2336875945329666
1761380198773705700,3.983705810546875,-0.1763315498828888,0.09137997776269913,0.1696699857711792
1761380198783731500,3.9937314453125,-0.21325324475765228,0.049412135034799576,0.08545118570327759
1761380198793757700,4.0037578125,-0.25322261452674866,0.048496171832084656,0.00609532929956913
1761380198803801900,4.0138017578125,-0.3152584135532379,0.00046630934230051935,-0.07967227697372437
1761380198813827000,4.0238271484375,-0.39101701974868774,-0.09182962775230408,-0.15068453550338745
1761380198823853000,4.03385302734375,-0.4425109028816223,-0.19150325655937195,-0.17076914012432098
1761380198833892900,4.043892822265625,-0.46261218190193176,-0.24734379351139069,-0.13547950983047485
1761380198843920000,4.053919921875,-0.46134647727012634,-0.255337655544281,-0.07151186466217041
1761380198853944300,4.0639443359375,-0.4486228823661804,-0.24366328120231628,-0.02579689770936966
1761380198863972400,4.073972412109375,-0.4232090413570404,-0.25510451197624207,-0.02621324546635151
1761380198873996300,4.083996337890625,-0.3795924484729767,-0.2681778371334076,-0.062968410551548
1761380198884022300,4.094022216796875,-0.3253173828125,-0.257053017616272,-0.10731776058673859
1761380198894014200,4.10401416015625,-0.26799464225769043,-0.19714891910552979,-0.12881796061992645
1761380198904075000,4.114074951171875,-0.2228458970785141,-0.11411255598068237,-0.12535394728183746
1761380198914076200,4.124076171875,-0.18777278065681458,-0.03372415900230408,-0.09957369416952133
1761380198924125000,4.134125,-0.15434838831424713,0.00011657733557512984,-0.0584552064538002
1761380198934127600,4.144127685546875,-0.1267695277929306,-0.003547281725332141,-0.0013156584464013577
1761380198944175600,4.154175537109375,-0.10778407007455826,-0.04296707361936569,0.06946343928575516
1761380198954201300,4.164201416015625,-0.08856546878814697,-0.07897281646728516,0.1566133201122284
1761380198964227300,4.174227294921875,-0.05710623785853386,-0.09049732238054276,0.24824310839176178
1761380198974253600,4.184253662109375,-0.0038137442898005247,-0.0501948706805706,0.33339452743530273
1761380198984279000,4.194279052734375,0.0737268403172493,0.05597377568483353,0.38428884744644165
1761380198994304000,4.204303955078125,0.16430743038654327,0.16357465088367462,0.3722980320453644
1761380199004329700,4.214329833984375,0.23057331144809723,0.12638647854328156,0.26329824328422546
1761380199014355700,4.224355712890625,0.23801760375499725,-0.06491692364215851,0.05610700696706772
1761380199024381200,4.234381103515625,0.1957666575908661,-0.339822918176651,-0.19481737911701202
1761380199034406400,4.244406494140625,0.0971921905875206,-0.529744029045105,-0.4155815541744232
1761380199044432100,4.25443212890625,-0.018319295719265938,-0.5776240229606628,-0.5445327162742615
1761380199054458400,4.264458251953125,-0.15105091035366058,-0.5175034403800964,-0.5598210096359253
1761380199064474400,4.274474365234375,-0.3140759766101837,-0.3996604084968567,-0.4807482659816742
1761380199074510000,4.284510009765625,-0.46031391620635986,-0.24716059863567352,-0.2927756607532501
1761380199084535300,4.294535400390625,-0.541968047618866,-0.11785968393087387,-0.015721285715699196
1761380199094537700,4.304537841796875,-0.5458816885948181,-0.06032044440507889,0.29076051712036133
1761380199104587300,4.314587158203125,-0.48744314908981323,-0.05978751927614212,0.5628020763397217
1761380199114612500,4.324612548828125,-0.40698811411857605,-0.06648238748311996,0.7664126753807068
1761380199124637700,4.3346376953125,-0.3062819540500641,-0.06325153261423111,0.907204806804657
1761380199134654000,4.344654052734375,-0.19949711859226227,-0.03638878092169762,0.996669590473175
1761380199144689000,4.35468896484375,-0.10390371084213257,0.0007827335502952337,1.0550248622894287
1761380199154715100,4.364715087890625,-0.02637978456914425,0.08212040364742279,1.101772427558899
1761380199164740400,4.374740234375,0.026080014184117317,0.19420118629932404,1.1194255352020264
1761380199174766000,4.38476611328125,0.07269429415464401,0.3357926905155182,1.0888656377792358
1761380199184791300,4.394791259765625,0.12022453546524048,0.44850632548332214,1.0009496212005615
1761380199194773800,4.404773681640625,0.16455723345279694,0.5230991244316101,0.8649871349334717
1761380199204842800,4.4148427734375,0.2036106437444687,0.5474305152893066,0.6949008107185364
1761380199214868200,4.4248681640625,0.21481871604919434,0.47323736548423767,0.5107752680778503
1761380199224895200,4.434895263671875,0.19085374474525452,0.328298419713974,0.32971400022506714
1761380199234920700,4.444920654296875,0.13483001291751862,0.17837996780872345,0.15629689395427704
1761380199244923100,4.454923095703125,0.07820674031972885,0.04739701375365257,0.011624425649642944
1761380199254971600,4.4649716796875,0.031159456819295883,-0.03310796245932579,-0.08926492929458618
1761380199264997000,4.4749970703125,-0.014905245043337345,-0.038137443363666534,-0.14207446575164795
1761380199274999800,4.484999755859375,-0.06271860748529434,0.018269333988428116,-0.15634685754776
1761380199285048600,4.495048583984375,-0.09884092211723328,0.09789165109395981,-0.1546648144721985
1761380199295073000,4.505072998046875,-0.10098928213119507,0.14097531139850616,-0.14980188012123108
1761380199305099500,4.515099609375,-0.07104555517435074,0.13164912164211273,-0.14667093753814697
1761380199315124700,4.525124755859375,-0.024014931172132492,0.08505149185657501,-0.13987614214420319
1761380199325150500,4.535150390625,0.022949080914258957,0.034423619508743286,-0.12243951112031937
1761380199335176700,4.5451767578125,0.06043701991438866,-0.004663093481212854,-0.09935719519853592
1761380199345201700,4.55520166015625,0.08708326518535614,-0.023848392069339752,-0.09038074314594269
1761380199355228200,4.565228271484375,0.10227163136005402,-0.022682618349790573,-0.11133135110139847
1761380199365254000,4.57525390625,0.10736772418022156,-0.012656968086957932,-0.15686312317848206
1761380199375301400,4.58530126953125,0.10268797725439072,0.010808384045958519,-0.22109724581241608
1761380199385304800,4.595304931640625,0.08130436390638351,0.04529862105846405,-0.3017687499523163
1761380199395329500,4.60532958984375,0.04566500708460808,0.07076244056224823,-0.3945809602737427
1761380199405356300,4.615356201171875,0.011840926483273506,0.08301971852779388,-0.4814310669898987
1761380199415358500,4.6253583984375,-0.009476072154939175,0.06551646441221237,-0.5525599122047424
1761380199425407200,4.6354072265625,-0.01269027590751648,0.08593414723873138,-0.5838525891304016
1761380199435433500,4.64543359375,-0.008177067153155804,0.12838494777679443,-0.5694302916526794
1761380199445458200,4.655458251953125,-0.009959034621715546,0.10215505212545395,-0.5252974629402161
1761380199455484400,4.665484375,-0.006495022680610418,0.06759820133447647,-0.4335511028766632
1761380199465509400,4.67550927734375,0.006778139155358076,0.09239586442708969,-0.2891450822353363
1761380199475534600,4.68553466796875,0.008843223564326763,0.14612136781215668,-0.1302335411310196
1761380199485561300,4.695561279296875,-0.004396630916744471,0.175848588347435,0.0075275651179254055
1761380199495587600,4.705587646484375,-0.02671286277472973,0.20519275963306427,0.10373717546463013
1761380199505612000,4.715612060546875,-0.053792111575603485,0.2141025960445404,0.1583453267812729
1761380199515638000,4.725637939453125,-0.09034743160009384,0.18192724883556366,0.1654232293367386
1761380199525663700,4.735663818359375,-0.1295507252216339,0.11601109802722931,0.14032579958438873
1761380199535690000,4.74568994140625,-0.16892056167125702,0.0576891265809536,0.09939050674438477
1761380199545687600,4.7556875,-0.2073577642440796,0.024148162454366684,0.04336676746606827
1761380199555741000,4.765740966796875,-0.2388169914484024,-0.012906775809824467,-0.022899119183421135
1761380199565766400,4.775766357421875,-0.26862749457359314,-0.05907139927148819,-0.09372817724943161
1761380199575785000,4.785784912109375,-0.2894282042980194,-0.11699368059635162,-0.15366557240486145
1761380199585818400,4.795818359375,-0.2992040514945984,-0.16657236218452454,-0.18972128629684448
1761380199595844400,4.80584423828125,-0.3083803653717041,-0.19833135604858398,-0.1988309770822525
1761380199605868800,4.815868896484375,-0.33104631304740906,-0.2122873216867447,-0.1895880550146103
1761380199615871200,4.825871337890625,-0.369799941778183,-0.2193818837404251,-0.17554880678653717
1761380199625920000,4.835919921875,-0.41741347312927246,-0.2317390888929367,-0.1733504980802536
1761380199635946200,4.8459462890625,-0.46461063623428345,-0.2728409171104431,-0.17499923706054688
1761380199645971000,4.855970947265625,-0.5062453746795654,-0.3206542730331421,-0.16159284114837646
1761380199655997000,4.865996826171875,-0.5363723039627075,-0.3508811295032501,-0.1198248416185379
1761380199666022000,4.87602197265625,-0.5611699819564819,-0.3450189530849457,-0.056839779019355774
1761380199676049000,4.886048828125,-0.5719617009162903,-0.34716731309890747,0.014072549529373646
1761380199686075100,4.8960751953125,-0.5636513829231262,-0.34778350591659546,0.08376914262771606
1761380199696099600,4.906099609375,-0.5459815859794617,-0.34728386998176575,0.1446724683046341
1761380199706125600,4.91612548828125,-0.5232490301132202,-0.33839067816734314,0.18554115295410156
1761380199716151600,4.926151611328125,-0.5094096660614014,-0.3186391592025757,0.20102928578853607
1761380199726177000,4.936177001953125,-0.5086768865585327,-0.29370826482772827,0.19510050117969513
1761380199736202500,4.946202392578125,-0.5169705152511597,-0.2751224935054779,0.17434972524642944
1761380199746205400,4.956205322265625,-0.5302103757858276,-0.26293185353279114,0.14548851549625397
1761380199756253000,4.9662529296875,-0.5464312434196472,-0.24592821300029755,0.11341309547424316
1761380199766279400,4.976279541015625,-0.5777239799499512,-0.2287413775920868,0.08588418364524841
1761380199776281600,4.986281494140625,-0.6321322917938232,-0.22824177145957947,0.06360126286745071
1761380199786331000,4.996330810546875,-0.7009295225143433,-0.24877603352069855,0.036888398230075836
1761380199796356000,5.006356201171875,-0.7592515349388123,-0.268577516078949,-0.009426110424101353
1761380199806381600,5.016381591796875,-0.7862974405288696,-0.25961771607398987,-0.07752392441034317
1761380199816407300,5.0264072265625,-0.7797025442123413,-0.2005629688501358,-0.15484800934791565
1761380199826432800,5.036432861328125,-0.7566368579864502,-0.0827532559633255,-0.2110549360513687
1761380199836459300,5.046459228515625,-0.7332214713096619,0.05673985555768013,-0.23210547864437103
1761380199846484500,5.056484375,-0.7125706076622009,0.14930225908756256,-0.21282024681568146
1761380199856510000,5.066510009765625,-0.6939682364463806,0.17623162269592285,-0.16947013139724731
1761380199866535400,5.076535400390625,-0.6778305768966675,0.15223334729671478,-0.11624425649642944
1761380199876561400,5.0865615234375,-0.6453055143356323,0.10450325161218643,-0.05106087401509285
1761380199886587000,5.0965869140625,-0.6199749112129211,0.06738170236349106,0.0025980090722441673
1761380199896613400,5.10661328125,-0.6111816763877869,0.033174578100442886,0.02083403430879116
1761380199906637800,5.116637939453125,-0.6049864292144775,-0.01483862940222025,0.004030244890600443
1761380199916663600,5.12666357421875,-0.5996238589286804,-0.06335145235061646,-0.026396438479423523
1761380199926689000,5.13668896484375,-0.5967593789100647,-0.09221266955137253,-0.04922894388437271
1761380199936714200,5.14671435546875,-0.5897980332374573,-0.09692572802305222,-0.05672319978475571
1761380199946741500,5.156741455078125,-0.571595311164856,-0.09286217391490936,-0.05527431145310402
1761380199956779000,5.166779052734375,-0.545332133769989,-0.09049732238054276,-0.06155283376574516
1761380199966792200,5.176792236328125,-0.5163876414299011,-0.09001435339450836,-0.08690007776021957
1761380199976818200,5.186818115234375,-0.4893583357334137,-0.08470176160335541,-0.11742668598890305
1761380199986844000,5.196843994140625,-0.46802470088005066,-0.06829766184091568,-0.13091634213924408
1761380199996869600,5.20686962890625,-0.4543185234069824,-0.038387250155210495,-0.10828369110822678
1761380200006894800,5.216894775390625,-0.450821191072464,-0.009592649526894093,-0.05662327632308006
1761380200016920800,5.2269208984375,-0.45475152134895325,-0.007094563450664282,0.012390505522489548
1761380200026946600,5.236946533203125,-0.45538437366485596,-0.020317763090133667,0.09206278622150421
1761380200036971500,5.246971435546875,-0.4498719274997711,-0.03477335348725319,0.16280856728553772
1761380200046997000,5.2569970703125,-0.4441096782684326,-0.054874617606401443,0.2079906165599823
1761380200057023000,5.26702294921875,-0.43726491928100586,-0.07442630082368851,0.2203478217124939
1761380200067048400,5.27704833984375,-0.4218767285346985,-0.07719084620475769,0.2049429565668106
1761380200077051600,5.2870517578125,-0.39712902903556824,-0.05973755568265915,0.17401665449142456
1761380200087100000,5.297099853515625,-0.3643874228000641,-0.03842055797576904,0.12853483855724335
1761380200097125600,5.307125732421875,-0.32894793152809143,-0.032874807715415955,0.0711621344089508
1761380200107146000,5.31714599609375,-0.2956567704677582,-0.058172088116407394,-0.004429938737303019
1761380200117177600,5.327177490234375,-0.2711588740348816,-0.10352066904306412,-0.10167209059000015
1761380200127210000,5.3372099609375,-0.26556316018104553,-0.14612136781215668,-0.212703675031662
1761380200137229000,5.34722900390625,-0.28716328740119934,-0.1671718955039978,-0.32466787099838257
1761380200147226000,5.35722607421875,-0.3268495500087738,-0.1571129411458969,-0.41942858695983887
1761380200157279500,5.367279541015625,-0.37166517972946167,-0.1287180334329605,-0.4839458167552948
1761380200167305500,5.377305419921875,-0.4079873561859131,-0.10933288186788559,-0.5078774690628052
1761380200177307400,5.387307373046875,-0.4258236885070801,-0.10893318802118301,-0.4863939583301544
1761380200187357200,5.397357177734375,-0.42890465259552,-0.12640313804149628,-0.422942578792572
1761380200197381600,5.407381591796875,-0.42142707109451294,-0.14878597855567932,-0.3328116238117218
1761380200207408000,5.417408203125,-0.4169471561908722,-0.15754593908786774,-0.2431969791650772
1761380200217410800,5.427410888671875,-0.39887768030166626,-0.18733978271484375,-0.1627252995967865
1761380200227459000,5.437458984375,-0.36603617668151855,-0.19714891910552979,-0.08721649646759033
1761380200237484500,5.447484619140625,-0.35271304845809937,-0.2288912683725357,-0.029294218868017197
1761380200247510800,5.4575107421875,-0.3517471253871918,-0.22471113502979279,0.027562212198972702
1761380200257534000,5.467533935546875,-0.32425153255462646,-0.17108556628227234,0.11347971111536026
1761380200267562200,5.477562255859375,-0.3075476586818695,-0.09877430647611618,0.18935489654541016
1761380200277587000,5.4875869140625,-0.31404268741607666,-0.04871267080307007,0.22740906476974487
1761380200287612700,5.49761279296875,-0.3262999653816223,-0.04236753284931183,0.222995787858963
1761380200297638400,5.507638427734375,-0.3284316658973694,-0.05076110363006592,0.17854651808738708
1761380200307664100,5.5176640625,-0.3149752914905548,-0.022566040977835655,0.10475306212902069
1761380200317690600,5.527690673828125,-0.2945742607116699,0.003180895932018757,0.014355666004121304
1761380200327715800,5.5377158203125,-0.28306642174720764,0.021433575078845024,-0.07319391518831253
1761380200337700600,5.54770068359375,-0.28784608840942383,0.03510643169283867,-0.1384272575378418
1761380200347766300,5.557766357421875,-0.31047874689102173,0.03150918707251549,-0.16792131960391998
1761380200357794000,5.5677939453125,-0.3400893807411194,0.006578292232006788,-0.1528661996126175
1761380200367822300,5.577822265625,-0.36950019001960754,-0.030360069125890732,-0.09534360468387604
1761380200377846800,5.5878466796875,-0.3958300054073334,-0.0785897746682167,-0.009043070487678051
1761380200387871000,5.59787109375,-0.4180130064487457,-0.137944296002388,0.08718319237232208
1761380200397873400,5.607873291015625,-0.4401460587978363,-0.1955668032169342,0.17509914934635162
1761380200407921200,5.617921142578125,-0.46224579215049744,-0.25836867094039917,0.24063226580619812
1761380200417946400,5.6279462890625,-0.47710105776786804,-0.3378078043460846,0.2777538299560547
1761380200427949300,5.63794921875,-0.47989892959594727,-0.40950286388397217,0.297188937664032
1761380200437999400,5.647999267578125,-0.4688240885734558,-0.44169485569000244,0.313792884349823
1761380200448024300,5.6580244140625,-0.44850632548332214,-0.41886237263679504,0.3337109386920929
1761380200458045700,5.668045654296875,-0.42504096031188965,-0.35193032026290894,0.3487827181816101
1761380200468074000,5.678073974609375,-0.40510624647140503,-0.283332884311676,0.352446585893631
1761380200478100500,5.6881005859375,-0.36796802282333374,-0.23711830377578735,0.359757661819458
1761380200488126200,5.698126220703125,-0.3332446217536926,-0.17596516013145447,0.36915045976638794
1761380200498150400,5.708150390625,-0.31840601563453674,-0.11586121469736099,0.3792760372161865
1761380200508177000,5.718177001953125,-0.30203521251678467,-0.06854747235774994,0.3946642279624939
1761380200518202400,5.728202392578125,-0.2915932238101959,-0.02459781803190708,0.40047645568847656
1761380200528228900,5.738228759765625,-0.2960231602191925,-0.014788667671382427,0.38427218794822693
1761380200538253800,5.74825390625,-0.3065817356109619,-0.04578158259391785,0.34303712844848633
1761380200548279000,5.758279052734375,-0.319754958152771,-0.07829000800848007,0.2799854576587677
1761380200558305800,5.768305908203125,-0.34088876843452454,-0.0758751928806305,0.1982647329568863
1761380200568330800,5.778330810546875,-0.3765447735786438,-0.04967859759926796,0.11362959444522858
1761380200578357200,5.788357177734375,-0.40718796849250793,-0.006528330501168966,0.04814643785357475
1761380200588378600,5.798378662109375,-0.42928770184516907,0.016970328986644745,0.02316558174788952
1761380200598369800,5.808369873046875,-0.47093912959098816,-0.020317763090133667,0.029077718034386635
1761380200608433700,5.81843359375,-0.4798656105995178,-0.0045132082886993885,0.09103024005889893
1761380200618458400,5.828458251953125,-0.4242582321166992,0.027578866109251976,0.19963034987449646
1761380200628485000,5.838485107421875,-0.36868414282798767,0.03439031168818474,0.3134597837924957
1761380200638510300,5.84851025390625,-0.3074144423007965,0.012806852348148823,0.4172302782535553
1761380200648537000,5.858537109375,-0.23921668529510498,-0.025613704696297646,0.4892251193523407
1761380200658562300,5.868562255859375,-0.183909073472023,-0.07562538236379623,0.5147222280502319
1761380200668587500,5.87858740234375,-0.1469707041978836,-0.10533595085144043,0.5091431736946106
1761380200678613800,5.88861376953125,-0.1299504190683365,-0.10350401699542999,0.4871433675289154
1761380200688639700,5.8986396484375,-0.13006699085235596,-0.08385241031646729,0.45918145775794983
1761380200698635000,5.908635009765625,-0.13866041600704193,-0.07472606748342514,0.42019468545913696
1761380200708690200,5.918690185546875,-0.1450888216495514,-0.09064720571041107,0.3682344853878021
1761380200718710800,5.928710693359375,-0.14923563599586487,-0.13089969754219055,0.3001866340637207
1761380200728742400,5.938742431640625,-0.15601378679275513,-0.19533364474773407,0.22449463605880737
1761380200738766800,5.948766845703125,-0.16830436885356903,-0.2652134299278259,0.1470373272895813
1761380200748793000,5.95879296875,-0.19523373246192932,-0.326932817697525,0.07009628415107727
1761380200758796000,5.968796142578125,-0.23831738531589508,-0.3657363951206207,-0.012940083630383015
1761380200768844000,5.978843994140625,-0.29535698890686035,-0.35935795307159424,-0.09597645699977875
1761380200778870300,5.988870361328125,-0.36422088742256165,-0.2876129448413849,-0.14851951599121094
1761380200788873000,5.998873046875,-0.4366653859615326,-0.1771642416715622,-0.14630454778671265
1761380200798921500,6.00892138671875,-0.4996337890625,-0.08978120237588882,-0.10273794084787369
1761380200808946200,6.0189462890625,-0.5359060168266296,-0.04516538977622986,-0.04831297695636749
1761380200818973000,6.028972900390625,-0.544982373714447,-0.04050229489803314,0.0012656967155635357
1761380200828998100,6.038998046875,-0.5480133891105652,-0.07321056723594666,0.0391533300280571
1761380200839023900,6.04902392578125,-0.5535924434661865,-0.14222434163093567,0.06516672670841217
1761380200849049600,6.059049560546875,-0.5582721829414368,-0.22774215042591095,0.08874865621328354
1761380200859074800,6.06907470703125,-0.5614364147186279,-0.3180229663848877,0.10983250290155411
1761380200869101300,6.079101318359375,-0.5604705214500427,-0.42359206080436707,0.12455455213785172
1761380200879126500,6.08912646484375,-0.5546249747276306,-0.5249310731887817,0.12332216650247574
1761380200889151500,6.0991513671875,-0.5479800701141357,-0.5842023491859436,0.1067015677690506
1761380200899177700,6.109177734375,-0.5703296065330505,-0.5898147225379944,0.07485929876565933
1761380200909204000,6.119203857421875,-0.6340973973274231,-0.5716452598571777,0.03182561323046684
1761380200919229700,6.129229736328125,-0.7231125235557556,-0.5523766875267029,-0.029827143996953964
1761380200929253600,6.139253662109375,-0.8115947246551514,-0.5155715942382812,-0.10348736494779587
1761380200939281000,6.149281005859375,-0.8880361914634705,-0.45018836855888367,-0.1716184914112091
1761380200949305600,6.1593056640625,-0.9508713483810425,-0.3409554064273834,-0.21093836426734924
1761380200959308800,6.169308837890625,-0.9998505115509033,-0.20767419040203094,-0.2028612196445465
1761380200969357300,6.179357421875,-1.033791184425354,-0.10242151468992233,-0.15476474165916443
1761380200979382800,6.1893828125,-1.0472807884216309,-0.06669888645410538,-0.08353598415851593
1761380200989405200,6.1994052734375,-1.037055253982544,-0.07809016108512878,0.003597243456169963
1761380200999434200,6.209434326171875,-1.013473391532898,-0.10723449289798737,0.09989012032747269
1761380201009459200,6.219459228515625,-0.9886257648468018,-0.13847722113132477,0.20064625144004822
1761380201019485400,6.2294853515625,-0.9655101299285889,-0.1712021380662918,0.2948407232761383
1761380201029488000,6.239488037109375,-0.9424944519996643,-0.20599214732646942,0.36638590693473816
1761380201039536400,6.249536376953125,-0.9232091903686523,-0.23823410272598267,0.4060721695423126
1761380201049561900,6.259561767578125,-0.9130003452301025,-0.2737402319908142,0.41651415824890137
1761380201059587800,6.269587890625,-0.9127339124679565,-0.31327658891677856,0.4011093080043793
1761380201069612800,6.27961279296875,-0.9208943247795105,-0.34631794691085815,0.36893394589424133
1761380201079638800,6.289638671875,-0.9403294324874878,-0.36999979615211487,0.328781396150589
1761380201089665500,6.29966552734375,-0.9724048376083374,-0.3841722905635834,0.2846318781375885
1761380201099683300,6.309683349609375,-1.0036308765411377,-0.39429783821105957,0.24136504530906677
1761380201109716200,6.31971630859375,-1.037488341331482,-0.3924326002597809,0.2031942903995514
1761380201119750700,6.329750732421875,-1.0890321731567383,-0.41351646184921265,0.17441634833812714
1761380201129767400,6.339767333984375,-1.1377947330474854,-0.4764349162578583,0.1693868637084961
1761380201139792400,6.34979248046875,-1.1647241115570068,-0.5506946444511414,0.20745769143104553
1761380201149819400,6.3598193359375,-1.203794240951538,-0.6234056353569031,0.2805516719818115
1761380201159821800,6.36982177734375,-1.2640646696090698,-0.7013459205627441,0.35854190587997437
1761380201169851100,6.37985107421875,-1.3207045793533325,-0.7896782159805298,0.4176632761955261
1761380201179895600,6.3898955078125,-1.3480836153030396,-0.8361259698867798,0.44975534081459045
1761380201189920500,6.39992041015625,-1.3392736911773682,-0.8324287533760071,0.45899826288223267
1761380201199947300,6.409947265625,-1.3199385404586792,-0.8183228969573975,0.4339674413204193
1761380201209972700,6.41997265625,-1.3124276399612427,-0.7819341421127319,0.4356828033924103
1761380201219998200,6.429998291015625,-1.3366923332214355,-0.8021186590194702,0.4954037070274353
1761380201230007600,6.440007568359375,-1.335976243019104,-0.9933721423149109,0.473120778799057
1761380201240049000,6.450048828125,-1.3182398080825806,-1.1870403289794922,0.402391642332077
1761380201250074600,6.46007470703125,-1.3152754306793213,-1.2983384132385254,0.3200380802154541
1761380201260101400,6.470101318359375,-1.3298975229263306,-1.3180899620056152,0.27155858278274536
1761380201270117400,6.480117431640625,-1.338191270828247,-1.2013627290725708,0.289028525352478
1761380201280152000,6.490152099609375,-1.3355098962783813,-0.9584488868713379,0.38873544335365295
1761380201290177300,6.50017724609375,-1.3408058881759644,-0.6971157789230347,0.503480851650238
