time,seconds_elapsed,z,y,x
1761380230171514600,0.1005146484375,-0.0009825803572311997,0.0989241972565651,-0.038270674645900726
1761380230181517000,0.11051708984375,-0.003563935635611415,0.02926091104745865,-0.013906010426580906
1761380230191542300,0.120542236328125,-0.011724349111318588,-0.04691404849290848,0.024714395403862
1761380230201588500,0.13058837890625,-0.002797855995595455,-0.10560241341590881,0.06694869697093964
1761380230211614000,0.140614013671875,0.013389739207923412,-0.13869372010231018,0.09364490956068039
1761380230221630700,0.150630615234375,0.03743797913193703,-0.1418246477842331,0.0897645503282547
1761380230231670800,0.1606708984375,0.06614930927753448,-0.12846821546554565,0.05457484722137451
1761380230241690600,0.170690673828125,0.0901808962225914,-0.09151320904493332,0.0022482771892100573
1761380230251704800,0.180704833984375,0.10118912905454636,-0.037254784256219864,-0.05410853773355484
1761380230261742300,0.190742431640625,0.09770845621824265,0.011124808341264725,-0.09887423366308212
1761380230271767800,0.200767822265625,0.09133001416921616,0.037088245153427124,-0.12160681188106537
1761380230281793000,0.21079296875,0.09166309237480164,0.04048564285039902,-0.12497090548276901
1761380230291808000,0.22080810546875,0.09634283930063248,0.002881125546991825,-0.11646075546741486
1761380230301844700,0.2308447265625,0.08172070980072021,-0.06490026414394379,-0.1037871316075325
1761380230311869700,0.24086962890625,0.06183594837784767,-0.1279352903366089,-0.07312729954719543
1761380230321895700,0.250895751953125,0.04346669092774391,-0.14637117087841034,-0.025313936173915863
1761380230331905300,0.2609052734375,0.030176876112818718,-0.12357197701931,0.024664433673024178
1761380230341947400,0.270947509765625,0.02421477809548378,-0.07868970185518265,0.05619027465581894
1761380230351975200,0.28097509765625,0.02125038206577301,-0.025030819699168205,0.056473392993211746
1761380230361997800,0.290997802734375,0.01690371334552765,0.02726244181394577,0.03535623848438263
1761380230372016000,0.30101611328125,0.01450555119663477,0.06516672670841217,0.011657733470201492
1761380230382051600,0.311051513671875,0.02651301585137844,0.11492859572172165,-0.00011657733557512984
1761380230392076000,0.321075927734375,0.046447739005088806,0.17026951909065247,-0.0026979325339198112
1761380230402089200,0.331089111328125,0.062352221459150314,0.170719176530838,-0.00962595734745264
1761380230412125000,0.341125,0.08177067339420319,0.12876799702644348,-0.016054363921284676
1761380230422130000,0.3511298828125,0.10666826367378235,0.07269429415464401,-0.018802259117364883
1761380230432176400,0.36117626953125,0.11890888214111328,-0.00841022189706564,-0.03189222887158394
1761380230442208500,0.37120849609375,0.10820041596889496,-0.08433537185192108,-0.05778905004262924
1761380230452219100,0.38121923828125,0.07334379851818085,-0.11374616622924805,-0.08202048391103745
1761380230462256000,0.391256103515625,0.024397971108555794,-0.09615964442491531,-0.1074676513671875
1761380230472273700,0.401273681640625,-0.018069487065076828,-0.04543185234069824,-0.12915103137493134
1761380230482299600,0.411299560546875,-0.03740467131137848,0.027878636494278908,-0.13832733035087585
1761380230492332800,0.421332763671875,-0.037471286952495575,0.08811581134796143,-0.13203215599060059
1761380230502346800,0.4313466796875,-0.021217074245214462,0.12117381393909454,-0.10631852596998215
1761380230512383000,0.441383056640625,0.011324655264616013,0.14104191958904266,-0.060353752225637436
1761380230522407200,0.4514072265625,0.04967859759926796,0.1453719288110733,-0.009992342442274094
1761380230532438500,0.4614384765625,0.0877494215965271,0.1216234639286995,0.036555320024490356
1761380230542447000,0.471447021484375,0.12144027650356293,0.09157982468605042,0.08100458979606628
1761380230552483800,0.48148388671875,0.14783671498298645,0.07024616748094559,0.1251041293144226
1761380230562510600,0.491510498046875,0.15844525396823883,0.05069448798894882,0.16031049191951752
1761380230572526600,0.501526611328125,0.15241654217243195,0.037637826055288315,0.1861240416765213
1761380230582561800,0.511561767578125,0.13236524164676666,0.042317572981119156,0.1969490796327591
1761380230592587000,0.5215869140625,0.10941615700721741,0.05139394849538803,0.18697339296340942
1761380230602602000,0.53160205078125,0.09422779083251953,0.058388590812683105,0.15659666061401367
1761380230612637700,0.5416376953125,0.09166309237480164,0.06396764516830444,0.11143127828836441
1761380230622642700,0.551642578125,0.09271229058504105,0.06515007466077805,0.055923812091350555
1761380230632690000,0.56168994140625,0.08876531571149826,0.054291728883981705,-0.003647205187007785
1761380230642704100,0.5717041015625,0.08082140237092972,0.031742341816425323,-0.058838244527578354
1761380230652741000,0.5817412109375,0.069280244410038,0.020600879564881325,-0.0910802036523819
1761380230662756400,0.59175634765625,0.05122740939259529,0.014139165170490742,-0.09730876237154007
1761380230672770300,0.601770263671875,0.03474004566669464,0.0007327718194574118,-0.08207044005393982
1761380230682830600,0.61183056640625,0.03125938028097153,-0.003147588111460209,-0.05111083388328552
1761380230692843800,0.62184375,0.041268374770879745,0.011308001354336739,-0.013189892284572124
1761380230702868700,0.63186865234375,0.056306853890419006,0.027079248800873756,0.022949080914258957
1761380230712894200,0.641894287109375,0.0724777951836586,0.032874807715415955,0.0547746941447258
1761380230722920700,0.651920654296875,0.08778273314237595,0.02346535213291645,0.08075478672981262
1761380230732946200,0.6619462890625,0.09497722238302231,0.007943912409245968,0.09197951853275299
1761380230742972700,0.67197265625,0.10400363802909851,0.006478368770331144,0.08924827724695206
1761380230752991200,0.6819912109375,0.12044104188680649,0.010425344109535217,0.07589184492826462
1761380230763025000,0.69202490234375,0.14463916420936584,0.0022316232789307833,0.06048698350787163
1761380230773053200,0.70205322265625,0.1716184914112091,-0.02814509905874729,0.05828866735100746
1761380230783074800,0.71207470703125,0.19619965553283691,-0.05585719645023346,0.07509245723485947
1761380230793087700,0.722087646484375,0.21761657297611237,-0.06288514286279678,0.0989241972565651
1761380230803125000,0.732125,0.23498660326004028,-0.05480800196528435,0.10751760751008987
1761380230813140500,0.742140380859375,0.2505413293838501,-0.030093606561422348,0.08741634339094162
1761380230823177000,0.752177001953125,0.2615828812122345,0.024414625018835068,0.04066883400082588
1761380230833202000,0.762201904296875,0.2503914535045624,0.1197582259774208,-0.015155053697526455
1761380230843227600,0.7722275390625,0.22314566373825073,0.23678521811962128,-0.0647004172205925
1761380230853265000,0.782264892578125,0.18892189860343933,0.3675350248813629,-0.10118912905454636
1761380230863285500,0.792285400390625,0.1592612862586975,0.48016539216041565,-0.09979020059108734
1761380230873300500,0.802300537109375,0.14735375344753265,0.5551245808601379,-0.05763916298747063
1761380230883310000,0.81231005859375,0.15581393241882324,0.5599709153175354,-0.01144123263657093
1761380230893369300,0.822369384765625,0.18900516629219055,0.4912235736846924,0.02249942533671856
1761380230903379700,0.832379638671875,0.22797530889511108,0.37256449460983276,0.046031393110752106
1761380230913406500,0.842406494140625,0.2488759607076645,0.24546189606189728,0.05640677735209465
1761380230923411200,0.8524111328125,0.24209780991077423,0.14628790318965912,0.07104555517435074
1761380230933464300,0.86246435546875,0.24807657301425934,0.0531093031167984,0.08706661313772202
1761380230943484000,0.87248388671875,0.24261409044265747,-0.05522434785962105,0.13083307445049286
1761380230953520600,0.882520751953125,0.25480473041534424,-0.1465543657541275,0.23024024069309235
1761380230963534800,0.892534912109375,0.29793834686279297,-0.24651110172271729,0.3550279438495636
1761380230973561000,0.90256103515625,0.3648204505443573,-0.3026680648326874,0.47801703214645386
1761380230983569000,0.91256884765625,0.4150652587413788,-0.29597318172454834,0.57893967628479
1761380230993611500,0.922611572265625,0.4049563407897949,-0.2203478217124939,0.6217069029808044
1761380231003637000,0.932636962890625,0.3508644700050354,-0.11706029623746872,0.6031544804573059
1761380231013652700,0.94265283203125,0.29056066274642944,-0.0506778322160244,0.5493956804275513
1761380231023688700,0.952688720703125,0.2354029417037964,-0.029127679765224457,0.4937882721424103
1761380231033714400,0.96271435546875,0.2095227837562561,0.003580589545890689,0.46544334292411804
1761380231043740000,0.972739990234375,0.2073744237422943,0.03983613848686218,0.45433518290519714
1761380231053742600,0.98274267578125,0.21498525142669678,0.0645671859383583,0.44317707419395447
1761380231063790800,0.992790771484375,0.23015695810317993,0.09625957161188126,0.42615675926208496
1761380231073816600,1.002816650390625,0.2560204863548279,0.12768548727035522,0.40434014797210693
1761380231083842300,1.01284228515625,0.2868635058403015,0.14397300779819489,0.3825068771839142
1761380231093868000,1.022867919921875,0.32388514280319214,0.16595615446567535,0.3678680956363678
1761380231103882200,1.03288232421875,0.3705160617828369,0.21894888579845428,0.3639877438545227
1761380231113919000,1.0429189453125,0.42852163314819336,0.2867136299610138,0.36915045976638794
1761380231123945700,1.05294580078125,0.4960198998451233,0.3151918053627014,0.35169717669487
1761380231133952000,1.062951904296875,0.5214837193489075,0.3066316843032837,0.2992040514945984
1761380231143997200,1.0729970703125,0.482413649559021,0.2233954817056656,0.20572568476200104
1761380231154023200,1.083023193359375,0.39033421874046326,0.06350133568048477,0.08668357133865356
1761380231164049400,1.09304931640625,0.2899944484233856,-0.0980914980173111,-0.02479766495525837
1761380231174073600,1.103073486328125,0.23044008016586304,-0.19198621809482574,-0.0832362174987793
1761380231184098800,1.113098876953125,0.20239490270614624,-0.20570902526378632,-0.08182063698768616
1761380231194124000,1.1231240234375,0.18982121348381042,-0.16602277755737305,-0.04559839144349098
1761380231204134700,1.133134765625,0.20086275041103363,-0.10015658289194107,-0.006478368770331144
1761380231214174700,1.1431748046875,0.23054000735282898,-0.03853713721036911,0.018319295719265938
1761380231224201000,1.153200927734375,0.2591014504432678,-0.003031010739505291,0.021133804693818092
1761380231234213400,1.16321337890625,0.2829831540584564,-0.018602412194013596,0.0017986217280849814
1761380231244253700,1.173253662109375,0.3044333755970001,-0.05540754273533821,-0.019218606874346733
1761380231254271700,1.183271728515625,0.32112058997154236,-0.09502717852592468,-0.02964395098388195
1761380231264297000,1.193296875,0.3267662525177002,-0.1302335411310196,-0.013722817413508892
1761380231274299000,1.203298828125,0.3234521448612213,-0.14513878524303436,0.021383613348007202
1761380231284368000,1.213367919921875,0.3095627725124359,-0.14060892164707184,0.0617193728685379
1761380231294369000,1.223369140625,0.2912934422492981,-0.12438801676034927,0.09314528852701187
1761380231304405800,1.23340576171875,0.2746562063694,-0.08295310288667679,0.11587786674499512
1761380231314431500,1.243431396484375,0.2578190863132477,-0.027379019185900688,0.12115715444087982
1761380231324456700,1.253456787109375,0.24211446940898895,0.003297473071143031,0.10342074930667877
1761380231334471200,1.26347119140625,0.22660967707633972,-0.015454824082553387,0.0622023344039917
1761380231344508400,1.27350830078125,0.21220405399799347,-0.07006298005580902,-0.0018485834589228034
1761380231354533600,1.28353369140625,0.19963034987449646,-0.13008365035057068,-0.07429306954145432
1761380231364559600,1.2935595703125,0.1913367062807083,-0.18026186525821686,-0.14177469909191132
1761380231374584000,1.303583984375,0.18490830063819885,-0.2029944509267807,-0.20432676374912262
1761380231384610300,1.3136103515625,0.1737668365240097,-0.19421783089637756,-0.2582687437534332
1761380231394626000,1.3236259765625,0.15666328370571136,-0.15704631805419922,-0.29715561866760254
1761380231404662000,1.333662109375,0.13876032829284668,-0.10215505212545395,-0.32578369975090027
1761380231414687500,1.3436875,0.1265530288219452,-0.05502450093626976,-0.3356761038303375
1761380231424713700,1.353713623046875,0.12132369726896286,-0.03234188258647919,-0.328298419713974
1761380231434707000,1.36370703125,0.12457121163606644,-0.04679747298359871,-0.3058156669139862
1761380231444764400,1.373764404296875,0.13821075856685638,-0.07321056723594666,-0.27688783407211304
1761380231454789600,1.38378955078125,0.1584952175617218,-0.09154651314020157,-0.24849291145801544
1761380231464815600,1.393815673828125,0.18082809448242188,-0.0976751521229744,-0.23112289607524872
1761380231474841300,1.40384130859375,0.19518376886844635,-0.08991443365812302,-0.23147262632846832
1761380231484856000,1.41385595703125,0.20089605450630188,-0.06861408799886703,-0.25017496943473816
1761380231494892300,1.423892333984375,0.1969490796327591,-0.023831738159060478,-0.2878294289112091
1761380231504918500,1.43391845703125,0.18325956165790558,0.04296707361936569,-0.3476003110408783
1761380231514933000,1.44393310546875,0.16472376883029938,0.11028216034173965,-0.42470788955688477
1761380231524972300,1.45397216796875,0.1491856724023819,0.1717517226934433,-0.4917898178100586
1761380231534996500,1.46399658203125,0.13701167702674866,0.22692610323429108,-0.5133066773414612
1761380231545012500,1.474012451171875,0.13228195905685425,0.27653810381889343,-0.4729042947292328
1761380231555051000,1.484051025390625,0.13736140727996826,0.3038671612739563,-0.385038286447525
1761380231565061400,1.494061279296875,0.16155953705310822,0.30166882276535034,-0.27765390276908875
1761380231575097300,1.504097412109375,0.20279459655284882,0.2755888104438782,-0.17448295652866364
1761380231585122600,1.51412255859375,0.244296133518219,0.23198889195919037,-0.09917400032281876
1761380231595148800,1.524148681640625,0.2783034145832062,0.1791127473115921,-0.06689873337745667
1761380231605153500,1.534153564453125,0.3029012084007263,0.13952641189098358,-0.0757419615983963
1761380231615180800,1.544180908203125,0.3095461428165436,0.12318893522024155,-0.11168108880519867
1761380231625205000,1.554205078125,0.29250919818878174,0.11676052957773209,-0.15646342933177948
1761380231635230000,1.56422998046875,0.2589515745639801,0.12247281521558762,-0.19123679399490356
1761380231645257000,1.574257080078125,0.22614337503910065,0.12741902470588684,-0.2095893919467926
1761380231655277600,1.584277587890625,0.2036106437444687,0.11153119802474976,-0.2115378975868225
1761380231665298000,1.5942978515625,0.19420118629932404,0.07332714647054672,-0.19948047399520874
1761380231675331600,1.60433154296875,0.19310203194618225,0.028361599892377853,-0.178213432431221
1761380231685365500,1.614365478515625,0.19801492989063263,-0.005046132951974869,-0.15331584215164185
1761380231695392800,1.624392822265625,0.20832370221614838,-0.021433575078845024,-0.1292676031589508
1761380231705430000,1.634429931640625,0.21969830989837646,-0.025813551619648933,-0.11194755136966705
1761380231715455700,1.644455810546875,0.2254772186279297,-0.04383307695388794,-0.10595214366912842
1761380231725482500,1.654482421875,0.22282925248146057,-0.062968410551548,-0.10437002032995224
1761380231735509000,1.664509033203125,0.2114546298980713,-0.07061255723237991,-0.10400363802909851
1761380231745533200,1.674533203125,0.18672357499599457,-0.07577526569366455,-0.10270462930202484
1761380231755558700,1.68455859375,0.15674655139446259,-0.07827335596084595,-0.09537691622972488
1761380231765561900,1.694561767578125,0.12367189675569534,-0.06874731928110123,-0.07552545517683029
1761380231775608800,1.70460888671875,0.09131336212158203,-0.05405857414007187,-0.04453254118561745
1761380231785634000,1.714634033203125,0.05365888029336929,-0.05036140978336334,-0.0053625572472810745
1761380231795660500,1.72466064453125,0.012040773406624794,-0.06693204492330551,0.04098526015877724
1761380231805670000,1.734669921875,-0.03537289425730705,-0.10042304545640945,0.09046401083469391
1761380231815701000,1.744700927734375,-0.08120443671941757,-0.14279058575630188,0.13143262267112732
1761380231825749500,1.75474951171875,-0.11824272572994232,-0.18309302628040314,0.15399865806102753
1761380231835758600,1.764758544921875,-0.14552181959152222,-0.21060527861118317,0.1528661996126175
1761380231845778000,1.77477783203125,-0.1688372939825058,-0.22795864939689636,0.12736906111240387
1761380231855814700,1.784814697265625,-0.19245252013206482,-0.22301243245601654,0.09187959134578705
1761380231865810400,1.794810546875,-0.21275363862514496,-0.1762649267911911,0.056007083505392075
1761380231875854000,1.80485400390625,-0.21998143196105957,-0.10015658289194107,0.01678713597357273
1761380231885872600,1.81487255859375,-0.2058422565460205,-0.022116385400295258,-0.02196650020778179
1761380231895901700,1.824901611328125,-0.17533230781555176,0.03605570271611214,-0.048279669135808945
1761380231905931800,1.834931884765625,-0.14029249548912048,0.06674885004758835,-0.04684743285179138
1761380231915972600,1.84497265625,-0.11058192700147629,0.07762385159730911,-0.01850248873233795
1761380231925982700,1.854982666015625,-0.08953139185905457,0.07044601440429688,0.025313936173915863
1761380231936013000,1.865012939453125,-0.0778903141617775,0.05072779580950737,0.06563303619623184
1761380231946055700,1.8750556640625,-0.06933020800352097,0.03439031168818474,0.09491060674190521
1761380231956049700,1.885049560546875,-0.06938016414642334,0.009409456513822079,0.10332082211971283
1761380231966074600,1.89507470703125,-0.08854880928993225,-0.03966960310935974,0.08481834083795547
1761380231976101000,1.90510107421875,-0.13201549649238586,-0.10110585391521454,0.03677182272076607
1761380231986126600,1.915126708984375,-0.18206048011779785,-0.13955971598625183,-0.024997511878609657
1761380231996153000,1.925153076171875,-0.2091064304113388,-0.12770214676856995,-0.08197052031755447
1761380232006167800,1.935167724609375,-0.20337748527526855,-0.06893051415681839,-0.1199580729007721
1761380232016193000,1.945193115234375,-0.1873064637184143,0.013223200105130672,-0.12925095856189728
1761380232026217200,1.95521728515625,-0.1698698252439499,0.09507714211940765,-0.11173104494810104
1761380232036245000,1.965244873046875,-0.15083441138267517,0.15088437497615814,-0.08488495647907257
1761380232046288100,1.9752880859375,-0.1297505795955658,0.16017726063728333,-0.06982982158660889
1761380232056311800,1.985311767578125,-0.108366958796978,0.13684514164924622,-0.07142859697341919
1761380232066339600,1.995339599609375,-0.09051397442817688,0.11063189059495926,-0.07759054005146027
1761380232076377000,2.005377197265625,-0.07923927903175354,0.09081374108791351,-0.08638380467891693
1761380232086393900,2.015393798828125,-0.07720750570297241,0.07777373492717743,-0.08675018697977066
1761380232096428800,2.0254287109375,-0.07825669646263123,0.0839356780052185,-0.05660662427544594
1761380232106444500,2.035444580078125,-0.07958900928497314,0.11622760444879532,0.0037304747384041548
1761380232116468700,2.04546875,-0.08090467005968094,0.14936886727809906,0.07589184492826462
1761380232126478300,2.055478271484375,-0.08238686621189117,0.16672223806381226,0.14282388985157013
1761380232136511200,2.06551123046875,-0.08425210416316986,0.1602938324213028,0.1927189826965332
1761380232146537700,2.075537841796875,-0.08606737852096558,0.13666194677352905,0.2247277945280075
1761380232156550100,2.085550048828125,-0.0847683772444725,0.1067015677690506,0.24467916786670685
1761380232166575600,2.09557568359375,-0.08210375159978867,0.07714089006185532,0.25578731298446655
1761380232176601900,2.105601806640625,-0.08138763159513474,0.055624041706323624,0.2585851848125458
1761380232186627300,2.11562744140625,-0.0826866403222084,0.06111983209848404,0.2536722719669342
1761380232196652500,2.125652587890625,-0.08170405775308609,0.09334513545036316,0.23260508477687836
1761380232206698500,2.135698486328125,-0.08535125851631165,0.12518739700317383,0.19038744270801544
1761380232216710700,2.145710693359375,-0.08959800750017166,0.14916902780532837,0.12855149805545807
1761380232226729200,2.155729248046875,-0.1004563570022583,0.1732172667980194,0.06356795132160187
1761380232236758500,2.165758544921875,-0.11654402315616608,0.19386810064315796,0.002797855995595455
1761380232246780700,2.17578076171875,-0.1327982395887375,0.19886428117752075,-0.052160028368234634
1761380232256806000,2.185805908203125,-0.14493893086910248,0.16810451447963715,-0.10553579777479172
1761380232266831600,2.19583154296875,-0.15263304114341736,0.11514509469270706,-0.1549479365348816
1761380232276857000,2.205857177734375,-0.1607767939567566,0.06121975556015968,-0.19266901910305023
1761380232286883000,2.215883056640625,-0.16245883703231812,0.024747703224420547,-0.22176340222358704
1761380232296909000,2.225908935546875,-0.15066787600517273,0.011807618662714958,-0.24844294786453247
1761380232306934300,2.235934326171875,-0.1285681426525116,0.012590352445840836,-0.2726910412311554
1761380232316959500,2.24595947265625,-0.1059354916214943,0.022765887901186943,-0.28384914994239807
1761380232326985700,2.25598583984375,-0.08343606442213058,0.04394965618848801,-0.26794466376304626
1761380232337010700,2.2660107421875,-0.055624041706323624,0.06686542928218842,-0.22317898273468018
1761380232347038200,2.2760380859375,-0.01640409603714943,0.07655800133943558,-0.15977756679058075
1761380232357061600,2.2860615234375,0.02617993764579296,0.06443395465612411,-0.09669256955385208
1761380232367088000,2.296088134765625,0.06493357568979263,0.029960375279188156,-0.04588150605559349
1761380232377113600,2.306113525390625,0.09689241647720337,-0.004846286494284868,-0.0053459033370018005
1761380232387138800,2.316138916015625,0.11807618290185928,-0.024331355467438698,0.022232962772250175
1761380232397181400,2.326181396484375,0.12490428984165192,-0.033257849514484406,0.03390735015273094
1761380232407207200,2.336207275390625,0.11964165419340134,-0.041434913873672485,0.02956068143248558
1761380232417248000,2.346248046875,0.1065683364868164,-0.0564400851726532,0.01645405776798725
1761380232427273500,2.3562734375,0.09361159801483154,-0.06966328620910645,0.0061785988509655
1761380232437299000,2.366298828125,0.07066252082586288,-0.07585853338241577,-0.009326186962425709
1761380232447303700,2.3763037109375,0.037887632846832275,-0.080804742872715,-0.03465677425265312
1761380232457350700,2.3863505859375,0.006028713658452034,-0.09157982468605042,-0.07266099005937576
1761380232467338000,2.396337890625,-0.024664433673024178,-0.10526933521032333,-0.1260700523853302
1761380232477401600,2.406401611328125,-0.05217668414115906,-0.11294678598642349,-0.1884056180715561
1761380232487427000,2.416427001953125,-0.06786466389894485,-0.09521037340164185,-0.2332545965909958
1761380232497431800,2.426431884765625,-0.07257771492004395,-0.03948640823364258,-0.24714395403862
1761380232507480000,2.43647998046875,-0.07249444723129272,0.026612939313054085,-0.24086542427539825
1761380232517483000,2.44648291015625,-0.06465046107769012,0.06819774210453033,-0.23029018938541412
1761380232527531300,2.45653125,-0.05126071721315384,0.07404325902462006,-0.2232622504234314
1761380232537557800,2.466557861328125,-0.03990275412797928,0.05490792542695999,-0.2238118201494217
1761380232547560000,2.476559814453125,-0.03693836182355881,0.012423813343048096,-0.23300477862358093
1761380232557607000,2.48660693359375,-0.04023583233356476,-0.03677182272076607,-0.23828406631946564
1761380232567632000,2.4966318359375,-0.04263399541378021,-0.06941347569227219,-0.22914107143878937
1761380232577657600,2.50665771484375,-0.039269909262657166,-0.07594180852174759,-0.20460987091064453
1761380232587683300,2.516683349609375,-0.027495596557855606,-0.06335145235061646,-0.1688372939825058
1761380232597708500,2.52670849609375,-0.003963629249483347,-0.0412350669503212,-0.1312827318906784
1761380232607734800,2.53673486328125,0.023315466940402985,-0.013739471323788166,-0.10015658289194107
1761380232617763000,2.54676318359375,0.046314507722854614,0.008293644525110722,-0.07582522928714752
1761380232627790300,2.556790283203125,0.065816231071949,0.03394065797328949,-0.04774674400687218
1761380232637799700,2.566799560546875,0.08623392134904861,0.05549081042408943,-0.013323123566806316
1761380232647818000,2.57681787109375,0.1075342670083046,0.04989510029554367,0.01756986975669861
1761380232657863000,2.58686279296875,0.12490428984165192,0.029111025854945183,0.04369984567165375
1761380232667887900,2.596887939453125,0.13952641189098358,0.023398736491799355,0.06816443055868149
1761380232677894000,2.606893798828125,0.15348239243030548,0.03885355964303017,0.09166309237480164
1761380232687939300,2.616939208984375,0.16635584831237793,0.06853082031011581,0.11952507495880127
1761380232697965300,2.62696533203125,0.17698104679584503,0.10245481878519058,0.1473870575428009
1761380232707969500,2.636969482421875,0.1863405406475067,0.13431374728679657,0.16985318064689636
1761380232717982700,2.646982666015625,0.20044639706611633,0.16499023139476776,0.17884628474712372
1761380232728041200,2.657041259765625,0.2193152755498886,0.19565007090568542,0.17434972524642944
1761380232738068000,2.66706787109375,0.2424308955669403,0.20995578169822693,0.1581454873085022
1761380232748093000,2.677093017578125,0.2504747211933136,0.17225134372711182,0.12612001597881317
1761380232758118400,2.687118408203125,0.22925765812397003,0.07409322261810303,0.08003866672515869
1761380232768144400,2.697144287109375,0.18867208063602448,-0.04629785567522049,0.02333212085068226
1761380232778169900,2.707169921875,0.1509176790714264,-0.13909341394901276,-0.02881125546991825
1761380232788195300,2.7171953125,0.13054996728897095,-0.20214509963989258,-0.06285183876752853
1761380232798221800,2.727221923828125,0.11359628289937973,-0.2305566519498825,-0.07019621133804321
1761380232808246300,2.737246337890625,0.0910802036523819,-0.212087482213974,-0.0482463613152504
1761380232818272300,2.747272216796875,0.08040504902601242,-0.1694534868001938,-0.015754593536257744
1761380232828284000,2.757283935546875,0.08784934878349304,-0.1393265724182129,0.004846286494284868
1761380232838323700,2.76732373046875,0.10307101905345917,-0.132248654961586,-0.00016653904458507895
1761380232848359000,2.77735888671875,0.10480302572250366,-0.1357959359884262,-0.030459992587566376
1761380232858374400,2.78737451171875,0.08974789083003998,-0.13054996728897095,-0.08585087954998016
1761380232868400400,2.797400390625,0.07812346518039703,-0.12660297751426697,-0.14207446575164795
1761380232878403600,2.807403564453125,0.07772377133369446,-0.10438667237758636,-0.16482369601726532
1761380232888451300,2.817451416015625,0.07940582185983658,-0.031292688101530075,-0.12765218317508698
1761380232898479000,2.82747900390625,0.06811447441577911,0.08238686621189117,-0.038303982466459274
1761380232908503000,2.8375029296875,0.0440828874707222,0.18995444476604462,0.05957101657986641
1761380232918528800,2.84752880859375,0.02889452502131462,0.24296382069587708,0.11769314855337143
1761380232928560000,2.85756005859375,0.039969369769096375,0.24359667301177979,0.12901780009269714
1761380232938579500,2.867579345703125,0.06326818466186523,0.22672626376152039,0.11303005367517471
1761380232948605000,2.87760498046875,0.07647473365068436,0.2115378975868225,0.10317093878984451
1761380232958630700,2.887630615234375,0.07819008082151413,0.1943843811750412,0.10478636622428894
1761380232968656400,2.897656494140625,0.08919831365346909,0.16525669395923615,0.11136466264724731
1761380232978681900,2.907681884765625,0.11835930496454239,0.1357293277978897,0.11457886546850204
1761380232988707600,2.91770751953125,0.15018491446971893,0.10956604033708572,0.1087166890501976
1761380232998733300,2.9277333984375,0.16797128319740295,0.07500918954610825,0.08859877288341522
1761380233008740000,2.937739990234375,0.16628924012184143,0.022899119183421135,0.04954536631703377
1761380233018789400,2.947789306640625,0.15116749703884125,-0.03488992899656296,0.003280819160863757
1761380233028798500,2.957798583984375,0.1243380531668663,-0.08426875621080399,-0.0411684513092041
1761380233038861600,2.967861572265625,0.08911504596471786,-0.12357197701931,-0.06361791491508484
1761380233048841200,2.97784130859375,0.05196018144488335,-0.14743702113628387,-0.06323487311601639
1761380233058888200,2.98788818359375,0.02313227392733097,-0.15311600267887115,-0.049445442855358124
1761380233068903000,2.99790283203125,0.008460183627903461,-0.1444726288318634,-0.0313093401491642
1761380233078938400,3.0079384765625,0.007244448643177748,-0.13094964623451233,-0.014072549529373646
1761380233088963800,3.0179638671875,0.01628751866519451,-0.11677718162536621,-0.007860642857849598
1761380233098989300,3.0279892578125,0.02942745015025139,-0.11231393367052078,-0.024614471942186356
1761380233109015000,3.03801513671875,0.031875573098659515,-0.11935853958129883,-0.074143186211586
1761380233119040300,3.048040283203125,0.020983919501304626,-0.12495424598455429,-0.13992610573768616
1761380233129066200,3.058066162109375,0.003297473071143031,-0.11243051290512085,-0.19809819757938385
1761380233139091700,3.068091796875,-0.017170175909996033,-0.0758085772395134,-0.23155589401721954
1761380233149117200,3.0781171875,-0.034956544637680054,-0.019235260784626007,-0.24128177762031555
1761380233159143000,3.088142822265625,-0.04743032157421112,0.05235987529158592,-0.24091538786888123
1761380233169168400,3.09816845703125,-0.05397530645132065,0.12811848521232605,-0.24113188683986664
1761380233179194600,3.108194580078125,-0.0535922646522522,0.20232829451560974,-0.24661102890968323
1761380233189219800,3.1182197265625,-0.0515105277299881,0.25552085041999817,-0.2566033601760864
1761380233199245300,3.128245361328125,-0.04834628477692604,0.2730907201766968,-0.2739400863647461
1761380233209251000,3.1382509765625,-0.04006929323077202,0.261033296585083,-0.28959473967552185
1761380233219296500,3.148296630859375,-0.03060987778007984,0.2456284463405609,-0.29347512125968933
1761380233229322200,3.158322265625,-0.023115620017051697,0.23781776428222656,-0.2844153940677643
1761380233239348700,3.1683486328125,-0.024647779762744904,0.23710164427757263,-0.2666623294353485
1761380233249375700,3.178375732421875,-0.026496361941099167,0.2384006530046463,-0.24636121094226837
1761380233259402800,3.18840283203125,-0.022849157452583313,0.23545290529727936,-0.22772549092769623
1761380233269427200,3.19842724609375,-0.015354900620877743,0.21550153195858002,-0.21418586373329163
1761380233279444000,3.20844384765625,-0.008926493115723133,0.17618165910243988,-0.20332752168178558
1761380233289478400,3.218478515625,-0.006594946142286062,0.12507082521915436,-0.19286887347698212
1761380233299492000,3.2284921875,-0.00671152351424098,0.07822339236736298,-0.18192724883556366
1761380233309519400,3.238519287109375,-0.003347434801980853,0.04346669092774391,-0.17083574831485748
1761380233319555000,3.24855517578125,0.003114280290901661,0.024481240659952164,-0.15909475088119507
1761380233329581000,3.2585810546875,0.004013590980321169,0.022865811362862587,-0.1525830775499344
1761380233339597000,3.26859716796875,-0.0010491959983482957,0.033091310411691666,-0.15524770319461823
1761380233349625600,3.27862548828125,-0.006062021479010582,0.037138208746910095,-0.16853751242160797
1761380233359657500,3.288657470703125,-0.0135895861312747,0.028827909380197525,-0.1879892796278
1761380233369682700,3.2986826171875,-0.02612997591495514,0.003963629249483347,-0.20932292938232422
1761380233379697400,3.308697509765625,-0.04751358926296234,-0.04090198874473572,-0.22725918889045715
1761380233389734100,3.318734130859375,-0.07689107954502106,-0.09372817724943161,-0.23438705503940582
1761380233399760600,3.3287607421875,-0.1121140867471695,-0.12985049188137054,-0.21648411452770233
1761380233409765000,3.33876513671875,-0.14532198011875153,-0.1451554298400879,-0.1705026775598526
1761380233419811300,3.348811279296875,-0.16777144372463226,-0.14688743650913239,-0.10318759083747864
1761380233429836300,3.358836181640625,-0.17608173191547394,-0.10561906546354294,-0.03837059810757637
1761380233439850500,3.3688505859375,-0.16422416269779205,-0.034257080405950546,-0.0021483537275344133
1761380233449876500,3.37887646484375,-0.12783537805080414,0.072128064930439,-0.009725880809128284
1761380233459914800,3.388914794921875,-0.07680781185626984,0.1634247750043869,-0.057339392602443695
1761380233469939700,3.398939697265625,-0.03364088758826256,0.2049262970685959,-0.12505416572093964
1761380233479956200,3.408956298828125,-0.0075775268487632275,0.20962269604206085,-0.17478273808956146
1761380233489990100,3.418990234375,0.0008993108640424907,0.18585757911205292,-0.19020424783229828
1761380233500015900,3.429015869140625,-0.00584552064538002,0.1481531411409378,-0.16667227447032928
1761380233510030600,3.439030517578125,-0.028128445148468018,0.10243816673755646,-0.1091996505856514
1761380233520066800,3.44906689453125,-0.06336810439825058,0.0420011468231678,-0.028944486752152443
1761380233530092800,3.4590927734375,-0.10601875931024551,-0.03487327694892883,0.06440065056085587
1761380233540115500,3.469115478515625,-0.14628790318965912,-0.12775211036205292,0.16200917959213257
1761380233550144300,3.479144287109375,-0.18016193807125092,-0.21934857964515686,0.25725287199020386
1761380233560168700,3.489168701171875,-0.20767419040203094,-0.26891058683395386,0.3388403356075287
1761380233570196000,3.499196044921875,-0.22046439349651337,-0.2679779827594757,0.37859320640563965
1761380233580216600,3.509216552734375,-0.21578463912010193,-0.24018260836601257,0.3578591048717499
1761380233590235600,3.519235595703125,-0.2102055847644806,-0.20182867348194122,0.27237460017204285
1761380233600272400,3.5292724609375,-0.2071579247713089,-0.15249980986118317,0.14663763344287872
1761380233610289000,3.539288818359375,-0.19548353552818298,-0.08118778467178345,0.005079440772533417
1761380233620326000,3.549325927734375,-0.1868235021829605,-0.022266270592808723,-0.12810184061527252
1761380233630345500,3.559345458984375,-0.193201944231987,0.029743874445557594,-0.22234627604484558
1761380233640374800,3.569374755859375,-0.21157120168209076,0.07251109927892685,-0.26396438479423523
1761380233650389000,3.579388916015625,-0.22474443912506104,0.1191253811120987,-0.2583187222480774
1761380233660425700,3.58942578125,-0.21351970732212067,0.18236026167869568,-0.22349540889263153
1761380233670440200,3.599440185546875,-0.17999540269374847,0.273040771484375,-0.19033747911453247
1761380233680474000,3.60947412109375,-0.1257869452238083,0.34290391206741333,-0.1619592308998108
1761380233690503200,3.619503173828125,-0.06919697672128677,0.3855712115764618,-0.1403091549873352
1761380233700529700,3.62952978515625,-0.028528138995170593,0.411551296710968,-0.13098296523094177
1761380233710544100,3.639544189453125,-0.008809915743768215,0.38407236337661743,-0.12268931418657303
1761380233720574500,3.649574462890625,0.00464643957093358,0.3141259551048279,-0.0728941410779953
1761380233730605300,3.659605224609375,0.012357197701931,0.23933327198028564,0.04316692054271698
1761380233740630800,3.669630859375,0.006378445774316788,0.15020157396793365,0.2065417319536209
1761380233750656000,3.679656005859375,-0.010874999687075615,0.04709724336862564,0.3787597715854645
1761380233760681500,3.689681396484375,-0.029294218868017197,-0.03555608540773392,0.5233989357948303
1761380233770707700,3.699707763671875,-0.04161810874938965,-0.07276090979576111,0.6118478178977966
1761380233780729900,3.709729736328125,-0.041684724390506744,-0.061269715428352356,0.6369785666465759
1761380233790747600,3.71974755859375,-0.03487327694892883,-0.013373085297644138,0.6031045317649841
1761380233800772900,3.72977294921875,-0.02864471636712551,0.052243299782276154,0.523781955242157
1761380233810807800,3.739807861328125,-0.021566806361079216,0.10936619341373444,0.4234921336174011
1761380233820824800,3.749824951171875,-0.014738705940544605,0.1538487672805786,0.32848161458969116
1761380233830861000,3.759861083984375,-0.012040773406624794,0.1862572729587555,0.2521401047706604
1761380233840875000,3.769875,-0.01144123263657093,0.2003631293773651,0.19093701243400574
1761380233850907400,3.779907470703125,-0.015638016164302826,0.19468414783477783,0.12673620879650116
1761380233860926500,3.789926513671875,-0.02396496944129467,0.17248448729515076,0.05209341272711754
1761380233870953700,3.79995361328125,-0.046281199902296066,0.13562940061092377,-0.03349100425839424
1761380233880978200,3.809978271484375,-0.08605072647333145,0.08973123878240585,-0.11862576752901077
1761380233891028000,3.820028076171875,-0.14420616626739502,0.047363705933094025,-0.19516710937023163
1761380233901045000,3.830044921875,-0.20689146220684052,0.004679747391492128,-0.2588849365711212
1761380233911048200,3.840048095703125,-0.2534724175930023,-0.030593223869800568,-0.30929630994796753
1761380233921091600,3.850091552734375,-0.2784033417701721,-0.04261734336614609,-0.3393899202346802
1761380233931117000,3.860116943359375,-0.28459858894348145,-0.037804365158081055,-0.34270405769348145
1761380233941123600,3.87012353515625,-0.27412328124046326,-0.035339586436748505,-0.3295474648475647
1761380233951169000,3.8801689453125,-0.2455451786518097,-0.04416615515947342,-0.30251818895339966
1761380233961200600,3.89020068359375,-0.19388476014137268,-0.05452488362789154,-0.25986751914024353
1761380233971209000,3.900208984375,-0.12681949138641357,-0.058172088116407394,-0.19899751245975494
1761380233981245700,3.91024560546875,-0.058255359530448914,-0.06065352261066437,-0.12866806983947754
1761380233991253500,3.92025341796875,-0.004862940404564142,-0.06320156902074814,-0.07132867723703384
1761380234001296600,3.930296630859375,0.026479708030819893,-0.07034609466791153,-0.04316692054271698
1761380234011322000,3.940322021484375,0.03920329362154007,-0.08015524595975876,-0.035589393228292465
1761380234021347000,3.95034716796875,0.03798755630850792,-0.09041404724121094,-0.04053560271859169
1761380234031373300,3.960373291015625,0.02851148508489132,-0.10432005673646927,-0.050827719271183014
1761380234041399000,3.97039892578125,0.01325650792568922,-0.11396267265081406,-0.07424310594797134
1761380234051424800,3.9804248046875,0.003130934201180935,-0.11319658905267715,-0.11264701187610626
1761380234061439500,3.990439453125,0.0000666156192892231,-0.08799923211336136,-0.1553642749786377
1761380234071475700,4.000475830078125,-0.003613897366449237,-0.04434935003519058,-0.19263571500778198
1761380234081501200,4.010501220703125,-0.00849349144846201,-0.005878828465938568,-0.22692610323429108
1761380234091540500,4.02054052734375,-0.011557810008525848,0.015121745876967907,-0.2565200924873352
1761380234101553000,4.030552978515625,-0.013473008759319782,0.012307235971093178,-0.2804017961025238
1761380234111566800,4.04056689453125,-0.013539624400436878,-0.01260700635612011,-0.3031843304634094
1761380234121604000,4.05060400390625,-0.013156584464013577,-0.048329632729291916,-0.3277488350868225
1761380234131630000,4.060630126953125,-0.0054624807089567184,-0.07634150236845016,-0.3497653007507324
1761380234141655000,4.070655029296875,0.009392802603542805,-0.08626722544431686,-0.3623223602771759
1761380234151681000,4.080680908203125,0.027445634827017784,-0.08023851364850998,-0.3670520484447479
1761380234161683500,4.090683349609375,0.05122740939259529,-0.06848085671663284,-0.3678847551345825
1761380234171732200,4.100732177734375,0.08152086287736893,-0.05878828465938568,-0.3614063858985901
1761380234181758000,4.110758056640625,0.11571133136749268,-0.048196401447057724,-0.34921571612358093
1761380234191771600,4.120771728515625,0.1471039354801178,-0.04926225170493126,-0.3393899202346802
1761380234201808100,4.13080810546875,0.1743830442428589,-0.06501684337854385,-0.3349100351333618
1761380234211834600,4.140834716796875,0.19916404783725739,-0.06966328620910645,-0.32431814074516296
1761380234221855500,4.15085546875,0.22279593348503113,-0.06443395465612411,-0.30418357253074646
1761380234231886000,4.160885986328125,0.2458282858133316,-0.0667155459523201,-0.2767212688922882
1761380234241899800,4.170899658203125,0.2649136781692505,-0.07807350903749466,-0.24238093197345734
1761380234251937300,4.180937255859375,0.2869967520236969,-0.10193855315446854,-0.20512615144252777
1761380234261951000,4.190950927734375,0.31132808327674866,-0.12713590264320374,-0.17861312627792358
1761380234271976400,4.2009765625,0.34500229358673096,-0.13521304726600647,-0.1688372939825058
1761380234282013400,4.211013427734375,0.3908671438694,-0.12255608290433884,-0.17992879450321198
1761380234292037600,4.22103759765625,0.4394299387931824,-0.12382178008556366,-0.20419353246688843
1761380234302065000,4.23106494140625,0.484645277261734,-0.14420616626739502,-0.21588456630706787
1761380234312090600,4.241090576171875,0.5257304906845093,-0.16922032833099365,-0.18957139551639557
1761380234322115800,4.25111572265625,0.5570397973060608,-0.17842993140220642,-0.13861045241355896
1761380234332130800,4.261130859375,0.5770078301429749,-0.16394104063510895,-0.09339509904384613
1761380234342167000,4.2711669921875,0.5921129584312439,-0.1295507252216339,-0.07925593107938766
1761380234352173000,4.281173095703125,0.6068183183670044,-0.07564203441143036,-0.09287882596254349
1761380234362222800,4.291222900390625,0.6193753480911255,-0.013639547862112522,-0.12235623598098755
1761380234372242200,4.3012421875,0.6250543594360352,0.017020290717482567,-0.1664058119058609
1761380234382270000,4.31127001953125,0.6239052414894104,-0.024081546813249588,-0.2151351422071457
1761380234392274700,4.321274658203125,0.6241384148597717,-0.09829134494066238,-0.24967534840106964
1761380234402321000,4.33132080078125,0.6312329769134521,-0.12983384728431702,-0.2642141878604889
1761380234412341000,4.341341064453125,0.6401927471160889,-0.13887691497802734,-0.2723413109779358
1761380234422364200,4.3513642578125,0.6318824291229248,-0.14785335958003998,-0.28348276019096375
1761380234432397000,4.36139697265625,0.6015557050704956,-0.12695272266864777,-0.2857477068901062
1761380234442423600,4.371423583984375,0.5563403367996216,-0.08791596442461014,-0.2738568186759949
1761380234452449300,4.38144921875,0.5088101029396057,-0.044282734394073486,-0.2415315806865692
1761380234462474500,4.391474609375,0.4599475562572479,0.007694104220718145,-0.1887553632259369
1761380234472500500,4.40150048828125,0.40527278184890747,0.05918797850608826,-0.12582024931907654
1761380234482526000,4.41152587890625,0.34118854999542236,0.08903177827596664,-0.08463514596223831
1761380234492540200,4.4215400390625,0.2873464822769165,0.07186160236597061,-0.07902278006076813
1761380234502578000,4.431577880859375,0.2588849365711212,0.025330590084195137,-0.09407790750265121
1761380234512602000,4.44160205078125,0.25648677349090576,-0.017836332321166992,-0.10815045982599258
1761380234522628000,4.451628173828125,0.2756720781326294,-0.04654766246676445,-0.1082337275147438
1761380234532653800,4.46165380859375,0.31722357869148254,-0.04812978580594063,-0.08343606442213058
1761380234542679300,4.47167919921875,0.3769111633300781,-0.019801493734121323,-0.02371516078710556
1761380234552694500,4.481694580078125,0.4334012269973755,0.04516538977622986,0.061369638890028
1761380234562730200,4.491730224609375,0.47745078802108765,0.13348104059696198,0.15101760625839233
1761380234572757000,4.501757080078125,0.5126571655273438,0.2280585765838623,0.2293742299079895
1761380234582782000,4.511781982421875,0.5507113337516785,0.3233688771724701,0.2961730360984802
1761380234592797200,4.521797119140625,0.5867837071418762,0.3989776074886322,0.35089778900146484
1761380234602821600,4.531821533203125,0.6145124435424805,0.4352664649486542,0.3894016146659851
1761380234612859100,4.541859130859375,0.6247546076774597,0.4138162136077881,0.4086035490036011
1761380234622884400,4.55188427734375,0.6251376271247864,0.3520302474498749,0.4283550977706909
1761380234632910600,4.56191064453125,0.6117811799049377,0.2835826873779297,0.4623623490333557
1761380234642935800,4.571935791015625,0.5765248537063599,0.21523506939411163,0.49585336446762085
1761380234652961500,4.58196142578125,0.5324419736862183,0.13737806677818298,0.5177698731422424
1761380234662978800,4.591978759765625,0.47705110907554626,0.06709858030080795,0.5172702670097351
1761380234673012200,4.60201220703125,0.4204111695289612,0.008809915743768215,0.4984513819217682
1761380234683038500,4.61203857421875,0.3665524423122406,-0.03480666130781174,0.4642275869846344
1761380234693063200,4.622063232421875,0.31945520639419556,-0.06846420466899872,0.41344985365867615
1761380234703089200,4.632089111328125,0.2697599530220032,-0.09103024005889893,0.34328693151474
1761380234713114600,4.642114501953125,0.2242448329925537,-0.11847587674856186,0.26174941658973694
1761380234723130000,4.652130126953125,0.1860574185848236,-0.14923563599586487,0.1822270303964615
1761380234733150200,4.662150146484375,0.15288284420967102,-0.1936182975769043,0.1107984259724617
1761380234743192000,4.672192138671875,0.12247281521558762,-0.2431803196668625,0.05402526631951332
1761380234753214500,4.68221435546875,0.096009761095047,-0.27112558484077454,0.014272396452724934
1761380234763243300,4.6922431640625,0.06883058696985245,-0.27453961968421936,-0.014022587798535824
1761380234773278000,4.70227783203125,0.040518950670957565,-0.2644806504249573,-0.03560604900121689
1761380234783294500,4.71229443359375,0.013539624400436878,-0.23626895248889923,-0.04771343618631363
1761380234793308400,4.722308349609375,-0.013306469656527042,-0.1724511831998825,-0.04981182888150215
1761380234803345400,4.732345458984375,-0.044615812599658966,-0.08243682980537415,-0.05745597183704376
1761380234813371400,4.742371337890625,-0.07757388800382614,-0.019518377259373665,-0.07920597493648529
1761380234823398700,4.752398681640625,-0.11141462624073029,0.0144222816452384,-0.08695003390312195
1761380234833422000,4.762422119140625,-0.14005933701992035,0.05782235786318779,-0.06156948581337929
1761380234843447300,4.772447265625,-0.14825305342674255,0.11069850623607635,-0.01202411949634552
1761380234853473500,4.7824736328125,-0.12367189675569534,0.15513111650943756,0.04050229489803314
1761380234863476200,4.792476318359375,-0.07211140543222427,0.2008294314146042,0.08641710877418518
1761380234873502200,4.802502197265625,-0.012157350778579712,0.261516273021698,0.11750995367765427
1761380234883531300,4.81253125,0.03862040489912033,0.32235297560691833,0.1251041293144226
1761380234893554000,4.822553955078125,0.08167074620723724,0.36570310592651367,0.10951607674360275
1761380234903578600,4.83257861328125,0.10446994751691818,0.38650381565093994,0.06987978518009186
1761380234913605400,4.84260546875,0.10526933521032333,0.3761450946331024,0.010458651930093765
1761380234923621000,4.85262109375,0.093161940574646,0.34556853771209717,-0.05449157580733299
1761380234933645300,4.862645263671875,0.07505914568901062,0.305382639169693,-0.10696803033351898
1761380234943671300,4.87267138671875,0.060387060046195984,0.26396438479423523,-0.13119946420192719
1761380234953714200,4.882714111328125,0.051660411059856415,0.23095634579658508,-0.12470444291830063
1761380234963740200,4.892740234375,0.046281199902296066,0.2043767273426056,-0.10273794084787369
1761380234973773600,4.902773681640625,0.04103522002696991,0.17123544216156006,-0.07915601134300232
1761380234983796000,4.9127958984375,0.033540964126586914,0.14292381703853607,-0.06756488978862762
1761380234993820700,4.922820556640625,0.029027756303548813,0.12425478547811508,-0.07091232389211655
1761380235003857400,4.932857421875,0.028361599892377853,0.11557810008525848,-0.08445195108652115
1761380235013883600,4.942883544921875,0.021733345463871956,0.10623525828123093,-0.10733442008495331
1761380235023898600,4.952898681640625,0.0038970138411968946,0.08325286954641342,-0.13831068575382233
1761380235033934600,4.9629345703125,-0.01653732731938362,0.05790562555193901,-0.15854518115520477
1761380235043960000,4.9729599609375,-0.03407388925552368,0.04604804515838623,-0.14785335958003998
1761380235053999000,4.9829990234375,-0.04025248810648918,0.05360892042517662,-0.09547683596611023
1761380235064002600,4.99300244140625,-0.033341117203235626,0.07677450031042099,-0.01202411949634552
1761380235074036700,5.00303662109375,-0.014772013761103153,0.0971255749464035,0.081637442111969
1761380235084061200,5.013061279296875,0.018435873091220856,0.09692572802305222,0.1630084216594696
1761380235094088200,5.023088134765625,0.06121975556015968,0.08680015057325363,0.22471113502979279
1761380235104114000,5.033114013671875,0.10250478237867355,0.07194487005472183,0.26306506991386414
1761380235114128100,5.043128173828125,0.12880130112171173,0.04749693721532822,0.2757387161254883
1761380235124156000,5.053156005859375,0.1330813467502594,0.025280628353357315,0.2674283981323242
1761380235134190300,5.0631904296875,0.12303905189037323,0.018335949629545212,0.2446458637714386
1761380235144216600,5.073216552734375,0.10929957777261734,0.019185299053788185,0.20617534220218658
1761380235154230500,5.08323046875,0.1013556644320488,0.013223200105130672,0.14978522062301636
1761380235164267500,5.093267578125,0.10696803033351898,0.007744065951555967,0.09063055366277695
1761380235174293000,5.10329296875,0.12223966419696808,0.00016653904458507895,0.04479900375008583
1761380235184319500,5.113319580078125,0.14047569036483765,-0.014222434721887112,0.019651608541607857
1761380235194346800,5.1233466796875,0.16963668167591095,-0.042184341698884964,0.024031585082411766
1761380235204380400,5.13338037109375,0.21336983144283295,-0.06731508672237396,0.05327584221959114
1761380235214395400,5.1433955078125,0.2658796012401581,-0.07744065672159195,0.10904976725578308
1761380235224410600,5.15341064453125,0.3152584135532379,-0.06568299978971481,0.17023621499538422
1761380235234446800,5.16344677734375,0.3707325756549835,-0.03482331335544586,0.20054632425308228
1761380235244472300,5.173472412109375,0.3600241243839264,-0.029360834509134293,0.1675882488489151
1761380235254486000,5.183486083984375,0.3048330843448639,-0.05857178196310997,0.07555876672267914
1761380235264523300,5.193523193359375,0.2602672278881073,-0.07487595826387405,-0.020817380398511887
1761380235274549200,5.20354931640625,0.2585185766220093,-0.012407159432768822,-0.07182829082012177
1761380235284562000,5.21356201171875,0.2989209294319153,0.0843520313501358,-0.057589203119277954
1761380235294600400,5.223600341796875,0.35541099309921265,0.1761316955089569,0.0045964778400957584
1761380235304626200,5.233626220703125,0.4127004146575928,0.2329881340265274,0.07805684953927994
1761380235314651100,5.243651123046875,0.4763183295726776,0.23983287811279297,0.128784641623497
1761380235324672800,5.2536728515625,0.5366387963294983,0.20587557554244995,0.1552310436964035
1761380235334703000,5.263703125,0.5749427676200867,0.17641481757164001,0.16590620577335358
1761380235344729000,5.27372900390625,0.5798056721687317,0.17503254115581512,0.16735509037971497
1761380235354747000,5.283746826171875,0.5546083450317383,0.14373984932899475,0.1622423380613327
1761380235364768000,5.29376806640625,0.5007163286209106,0.10287117213010788,0.1576625108718872
1761380235374804700,5.3038046875,0.4349500238895416,0.08173736184835434,0.16317495703697205
1761380235384830700,5.313830810546875,0.33067992329597473,0.0428338423371315,0.16788801550865173
1761380235394867500,5.323867431640625,0.2166006863117218,-0.017686447128653526,0.15643012523651123
1761380235404882000,5.3338818359375,0.1299504190683365,-0.10032312572002411,0.11957503855228424
1761380235414896000,5.343896240234375,0.08338610082864761,-0.18434207141399384,0.07096228748559952
1761380235424932900,5.353932861328125,0.07484264671802521,-0.2474936842918396,0.03940314054489136
1761380235434958800,5.363958740234375,0.07829000800848007,-0.2640809714794159,0.04000267758965492
1761380235444983800,5.37398388671875,0.08335279673337936,-0.2281251847743988,0.07066252082586288
1761380235455001900,5.384001953125,0.08107120543718338,-0.17173506319522858,0.10958269238471985
1761380235465040600,5.39404052734375,0.06523334234952927,-0.11367955803871155,0.14187461137771606
1761380235475058000,5.404057861328125,0.04791328310966492,-0.061852604150772095,0.16081009805202484
1761380235485076200,5.414076171875,0.03685509040951729,-0.02629651501774788,0.16763821244239807
1761380235495114500,5.424114501953125,0.037054937332868576,-0.00044965543202124536,0.17518243193626404
1761380235505116200,5.4341162109375,0.041767992079257965,0.01640409603714943,0.1862572729587555
1761380235515140900,5.444140869140625,0.049428790807724,0.029927067458629608,0.1983480006456375
1761380235525166800,5.454166748046875,0.05982082709670067,0.042017802596092224,0.20279459655284882
1761380235535192000,5.464192138671875,0.06849750876426697,0.04374980926513672,0.19245252013206482
1761380235545219000,5.474218994140625,0.07302737236022949,0.04191787913441658,0.16962002217769623
1761380235555244500,5.48424462890625,0.06951339542865753,0.04211772605776787,0.14672090113162994
1761380235565269000,5.49426904296875,0.05918797850608826,0.018086140975356102,0.12756891548633575
1761380235575284700,5.50428466796875,0.0296772588044405,-0.02662959322333336,0.11209743469953537
1761380235585309400,5.514309326171875,-0.015671323984861374,-0.05802220478653908,0.08926492929458618
1761380235595335700,5.524335693359375,-0.06603273004293442,-0.06651569902896881,0.04821305349469185
1761380235605359900,5.53435986328125,-0.10415352135896683,-0.04826301708817482,-0.008127105422317982
1761380235615387000,5.544386962890625,-0.12302239239215851,0.00937614869326353,-0.06871400773525238
1761380235635438000,5.56443798828125,-0.10643510520458221,0.14712059497833252,-0.15449827909469604
1761380235645463600,5.574463623046875,-0.07998870313167572,0.19991347193717957,-0.18261006474494934
1761380235655488500,5.584488525390625,-0.04003598541021347,0.2499917596578598,-0.18852220475673676
1761380235665514000,5.594513916015625,0.014205780811607838,0.2896946668624878,-0.16504019498825073
1761380235675539500,5.60453955078125,0.07109551876783371,0.3109950125217438,-0.10991577059030533
1761380235685565700,5.614565673828125,0.11612767726182938,0.30021995306015015,-0.03470673784613609
1761380235695591400,5.62459130859375,0.1441228985786438,0.2626154124736786,0.04020252451300621
1761380235705618200,5.6346181640625,0.15493127703666687,0.20755761861801147,0.10688476264476776
1761380235715642000,5.64464208984375,0.1564134806394577,0.14407293498516083,0.15784570574760437
1761380235725668900,5.6546689453125,0.15081776678562164,0.061852604150772095,0.19132006168365479
1761380235735694000,5.664694091796875,0.1457882821559906,-0.016354134306311607,0.2141025960445404
1761380235745718800,5.67471875,0.13949310779571533,-0.08013858646154404,0.22394505143165588
1761380235755745800,5.684745849609375,0.1303834170103073,-0.13651205599308014,0.216117724776268
1761380235765770500,5.6947705078125,0.11872568726539612,-0.17791366577148438,0.20279459655284882
1761380235775795500,5.70479541015625,0.10265466570854187,-0.21315333247184753,0.20532599091529846
1761380235785821700,5.71482177734375,0.059337861835956573,-0.23290486633777618,0.22912442684173584
1761380235795847400,5.724847412109375,-0.023565275594592094,-0.22519409656524658,0.2747228145599365
1761380235805864000,5.734864013671875,-0.13827736675739288,-0.19608306884765625,0.32270270586013794
1761380235815898000,5.744898193359375,-0.26939356327056885,-0.18027852475643158,0.3596910238265991
1761380235825923600,5.754923583984375,-0.3842555582523346,-0.1797455996274948,0.37178176641464233
1761380235835949000,5.764948974609375,-0.44997185468673706,-0.1937515288591385,0.35972434282302856
1761380235845974500,5.774974609375,-0.4638112485408783,-0.2027113288640976,0.33013036847114563
1761380235856000500,5.78500048828125,-0.44184476137161255,-0.1987476944923401,0.2981548607349396
1761380235866026000,5.79502587890625,-0.39604651927948,-0.14748698472976685,0.2893615961074829
1761380235876051700,5.8050517578125,-0.33867380023002625,-0.04300038143992424,0.29285892844200134
1761380235886077000,5.815076904296875,-0.27530568838119507,0.08616730570793152,0.294341117143631
1761380235896103200,5.825103271484375,-0.20289452373981476,0.24258077144622803,0.2861140966415405
1761380235906128400,5.83512841796875,-0.1257203221321106,0.41100171208381653,0.2579689919948578
1761380235916153300,5.8451533203125,-0.049995023757219315,0.5532260537147522,0.1993805468082428
1761380235926179800,5.855179931640625,0.02826167643070221,0.6295342445373535,0.12345539778470993
1761380235936223700,5.8652236328125,0.10408690571784973,0.6346969604492188,0.05624023824930191
1761380235946249200,5.875249267578125,0.17093567550182343,0.5767413973808289,0.018136102706193924
1761380235956292400,5.885292236328125,0.224228173494339,0.4925558865070343,0.020067954435944557
1761380235966318800,5.89531884765625,0.26529669761657715,0.3377911448478699,0.03948640823364258
1761380235976342300,5.90534228515625,0.2934418022632599,0.19738207757472992,0.08093797415494919
1761380235986344700,5.9153447265625,0.3157413899898529,0.1083003431558609,0.14279058575630188
1761380235996392700,5.925392822265625,0.33972299098968506,0.05607369914650917,0.19323526322841644
1761380236006395100,5.93539501953125,0.364970326423645,0.04383307695388794,0.21485202014446259
1761380236016445000,5.94544482421875,0.379958838224411,0.06856412440538406,0.20955608785152435
1761380236026469400,5.955469482421875,0.3776606023311615,0.10738437622785568,0.1838924139738083
1761380236036495600,5.96549560546875,0.37164855003356934,0.15269964933395386,0.15186695754528046
1761380236046520800,5.975520751953125,0.37276434898376465,0.18755628168582916,0.12881796061992645
1761380236056546300,5.98554638671875,0.3812578320503235,0.20351071655750275,0.12139031291007996
1761380236066572300,5.995572265625,0.3925991654396057,0.19270233809947968,0.1299670785665512
1761380236076582100,6.00558203125,0.40740448236465454,0.16152621805667877,0.14865274727344513
1761380236086601500,6.0156015625,0.425790399312973,0.1232222393155098,0.16504019498825073
1761380236096649500,6.0256494140625,0.44802334904670715,0.09516040980815887,0.16469046473503113
1761380236106675500,6.035675537109375,0.47641825675964355,0.08232025057077408,0.13709494471549988
1761380236116692000,6.04569189453125,0.5008994936943054,0.06536657363176346,0.0725444108247757
1761380236126702800,6.055702880859375,0.5069282054901123,0.021267035976052284,-0.0201678778976202
1761380236136756000,6.065755859375,0.48945826292037964,-0.041268374770879745,-0.11834264546632767
1761380236146776300,6.0757763671875,0.4661094844341278,-0.08708326518535614,-0.19516710937023163
1761380236156802300,6.08580224609375,0.4476236402988434,-0.09659264981746674,-0.24336351454257965
1761380236166827800,6.095827880859375,0.43391749262809753,-0.06703196465969086,-0.257053017616272
1761380236176854000,6.10585400390625,0.4193120300769806,-0.022149693220853806,-0.23157255351543427
1761380236186856700,6.115856689453125,0.40968605875968933,0.051743682473897934,-0.15471477806568146
1761380236196905500,6.125905517578125,0.41844600439071655,0.12653636932373047,-0.03319123387336731
1761380236206931200,6.13593115234375,0.4482065439224243,0.18259340524673462,0.10858345776796341
1761380236216956200,6.1459560546875,0.49710240960121155,0.20362728834152222,0.23880034685134888
1761380236226981600,6.155981689453125,0.5453154444694519,0.1927856057882309,0.3295474648475647
1761380236237007600,6.166007568359375,0.5796724557876587,0.17818012833595276,0.3725312054157257
1761380236247033600,6.17603369140625,0.596159815788269,0.1649402678012848,0.36755168437957764
1761380236257060000,6.18606005859375,0.5967260599136353,0.1646738052368164,0.3300304412841797
1761380236267076900,6.196076904296875,0.5800554752349854,0.18009532988071442,0.2848483920097351
1761380236277110000,6.206110107421875,0.550811231136322,0.2015289068222046,0.24586158990859985
1761380236287124000,6.2161240234375,0.518702507019043,0.22064758837223053,0.21811619400978088
1761380236297160700,6.22616064453125,0.49252256751060486,0.2565200924873352,0.19430111348628998
1761380236307186200,6.236186279296875,0.47288763523101807,0.2969391345977783,0.16497358679771423
1761380236317201000,6.246200927734375,0.4550679624080658,0.3116445243358612,0.1359957903623581
1761380236327238100,6.256238037109375,0.44302716851234436,0.3401893079280853,0.10821707546710968
1761380236337262800,6.266262939453125,0.4502716362476349,0.3757287561893463,0.07201148569583893
1761380236347289000,6.2762890625,0.4735371172428131,0.3885522484779358,0.02008460834622383
1761380236357314000,6.28631396484375,0.5058956742286682,0.38172414898872375,-0.0448489673435688
1761380236367344600,6.2963447265625,0.5300438404083252,0.3664025664329529,-0.10058958828449249
1761380236377357000,6.306357177734375,0.5327917337417603,0.3526131212711334,-0.1302335411310196
1761380236387383000,6.316383056640625,0.5204511880874634,0.3517804443836212,-0.13316462934017181
1761380236397417000,6.3264169921875,0.5025649070739746,0.3482831120491028,-0.11880895495414734
1761380236417446400,6.3464462890625,0.48091480135917664,0.3586418330669403,-0.09176301211118698
1761380236427494000,6.356493896484375,0.48572778701782227,0.35977429151535034,-0.06656565517187119
1761380236437519400,6.366519287109375,0.5032476782798767,0.33284494280815125,-0.03355761989951134
1761380236447553300,6.37655322265625,0.52714604139328,0.28792935609817505,-0.0005995405954308808
1761380236457569800,6.38656982421875,0.5542585849761963,0.24111522734165192,0.02196650020778179
1761380236467596500,6.396596435546875,0.5836860537528992,0.22404497861862183,0.032291922718286514
1761380236477622500,6.40662255859375,0.6144624948501587,0.25125744938850403,0.027545558288693428
1761380236487647200,6.416647216796875,0.6437733173370361,0.3054492771625519,0.010891653597354889
1761380236497673200,6.426673095703125,0.6682546138763428,0.36998313665390015,-0.006811446975916624
1761380236507687200,6.436687255859375,0.675532341003418,0.4149320423603058,-0.03355761989951134
1761380236517722000,6.44672216796875,0.6800455451011658,0.41713035106658936,-0.06491692364215851
1761380236527751000,6.4567509765625,0.6767147779464722,0.390350878238678,-0.08931489288806915
1761380236537771800,6.466771728515625,0.6664559841156006,0.3561937212944031,-0.09534360468387604
1761380236547801000,6.476801025390625,0.6505181789398193,0.3401893079280853,-0.08625057339668274
1761380236557815800,6.48681591796875,0.629217803478241,0.33306145668029785,-0.07915601134300232
1761380236567852500,6.4968525390625,0.6089667081832886,0.3424542546272278,-0.08530130237340927
1761380236577877500,6.50687744140625,0.590947151184082,0.3760618269443512,-0.11582791060209274
1761380236587889000,6.516888916015625,0.5662327408790588,0.44127851724624634,-0.17544889450073242
1761380236597929500,6.526929443359375,0.528994619846344,0.5168206095695496,-0.2417980432510376
1761380236607954400,6.536954345703125,0.49112364649772644,0.5978085398674011,-0.29154324531555176
1761380236617969200,6.54696923828125,0.462828665971756,0.6514174938201904,-0.32070425152778625
1761380236628002300,6.557002197265625,0.4365321397781372,0.6537490487098694,-0.32311907410621643
1761380236638031600,6.567031494140625,0.4452088475227356,0.6208075881004333,-0.3012191653251648
1761380236648057900,6.577057861328125,0.4699232280254364,0.5745930075645447,-0.2654132843017578
1761380236658082300,6.587082275390625,0.4981849193572998,0.5417182445526123,-0.23939988017082214
1761380236668108500,6.597108642578125,0.5481466054916382,0.5356395244598389,-0.23150593042373657
1761380236678122200,6.607122314453125,0.6006397604942322,0.5626355409622192,-0.2604670822620392
1761380236688148500,6.6171484375,0.6496855020523071,0.604669988155365,-0.3042168915271759
1761380236698185700,6.627185791015625,0.697965145111084,0.654132068157196,-0.33632561564445496
1761380236708211000,6.6372109375,0.7397831082344055,0.6937350630760193,-0.34526875615119934
1761380236718228000,6.64722802734375,0.7558208107948303,0.7516739964485168,-0.240265890955925
1761380236728261600,6.65726171875,0.7477936148643494,0.6468210220336914,-0.17684781551361084
1761380236738288400,6.667288330078125,0.758951723575592,0.4244414269924164,-0.17503254115581512
1761380236748297500,6.67729736328125,0.7775541543960571,0.31908881664276123,-0.19911408424377441
1761380236758318600,6.687318603515625,0.7656965851783752,0.27743738889694214,-0.24501225352287292
1761380236768364300,6.6973642578125,0.725960373878479,0.3170737028121948,-0.31689050793647766
1761380236778378500,6.70737841796875,0.71505206823349,0.46872416138648987,-0.3929155766963959
1761380236788416000,6.717416015625,0.73625248670578,0.7009795308113098,-0.39671266078948975
1761380236798429700,6.7274296875,0.7481933236122131,0.8534793257713318,-0.31146132946014404
