time,seconds_elapsed,z,y,x
1761378676363127300,0.110127197265625,-0.00011657733557512984,0.0016154287150129676,0.0014488897286355495
1761378676373140000,0.120139892578125,-0.00009992343257181346,-0.002981049008667469,-0.0005995405954308808
1761378676383180800,0.130180908203125,0.00024980856687761843,-0.00011657733557512984,-0.0004330015217419714
1761378676393192400,0.1401923828125,-0.0000666156192892231,0.0015654671005904675,0.0001332312385784462
1761378676403254800,0.1502548828125,-0.0010158881777897477,-0.0009659265051595867,-0.0003164241788908839
1761378676413255000,0.1602548828125,-0.00039969373028725386,-0.0008660030434839427,0.0009825803572311997
1761378676423280400,0.1702802734375,0.0001498851488577202,0.0009825803572311997,0.0002831163874361664
1761378676433307100,0.18030712890625,-0.0002664624771568924,-0.0004996171337552369,0.00024980856687761843
1761378676443331300,0.190331298828125,-0.00004996171628590673,-0.0005828866851516068,0.0004163476114626974
1761378676453357300,0.200357421875,0.0010158881777897477,0.0006994639988988638,0.00024980856687761843
1761378676463382800,0.2103828125,0.0006161945057101548,-0.000016653904822305776,0.0003164241788908839
1761378676473371600,0.22037158203125,0.00038303982000797987,-0.0005828866851516068,0.0004163476114626974
1761378676483434200,0.230434326171875,-0.00019984686514362693,0.0002165007608709857,0.0003164241788908839
1761378676493459700,0.240459716796875,-0.00044965543202124536,-0.0002831163874361664,-0.0001498851488577202
1761378676503451400,0.250451416015625,0.0000666156192892231,-0.0011324655497446656,-0.0001498851488577202
1761378676513511200,0.26051123046875,0.0005162710440345109,-0.00009992343257181346,-0.0011324655497446656
1761378676523521000,0.27052099609375,0.0005662327748723328,0.00024980856687761843,-0.0004996171337552369
1761378676533541400,0.280541259765625,0.0013489662669599056,-0.00016653904458507895,-0.00039969373028725386
1761378676543588600,0.290588623046875,0.0008826569537632167,0.0003497319994494319,-0.0015821210108697414
1761378676553613800,0.30061376953125,0.0009159647743217647,0.0005162710440345109,-0.0011324655497446656
1761378676563639300,0.310639404296875,0.00016653904458507895,-0.0009825803572311997,-0.0006828100886195898
1761378676573643500,0.3206435546875,0.00004996171628590673,-0.0005995405954308808,0.0009825803572311997
1761378676583690800,0.330690673828125,0.00023315467115025967,-0.00003330780964461155,0.0008326952229253948
1761378676593716500,0.340716552734375,0.00039969373028725386,-0.0008826569537632167,0.00046630934230051935
1761378676603742000,0.350741943359375,0.00008326952229253948,0.0011324655497446656,0.00023315467115025967
1761378676613767400,0.360767333984375,0.0005329249543137848,0.0011158116394653916,-0.0003663859097287059
1761378676623794000,0.3707939453125,0.0003164241788908839,0.00011657733557512984,0.00046630934230051935
1761378676633819600,0.380819580078125,0.00008326952229253948,0.0004330015217419714,-0.0003164241788908839
1761378676643844600,0.3908447265625,0.0005662327748723328,-0.00039969373028725386,0.0005995405954308808
1761378676653871600,0.40087158203125,0.00008326952229253948,-0.0005828866851516068,0.00009992343257181346
1761378676663895300,0.410895263671875,-0.00023315467115025967,0.0006495022680610418,-0.0005995405954308808
1761378676673900500,0.420900634765625,-0.0009326186846010387,-0.00024980856687761843,0.00009992343257181346
1761378676683947500,0.430947509765625,0.00018319295486435294,-0.0012990045361220837,-0.00039969373028725386
1761378676693972500,0.440972412109375,0.0008660030434839427,0.0005495788645930588,-0.00009992343257181346
1761378676703993000,0.4509931640625,0.0006994639988988638,0.0005495788645930588,-0.000016653904822305776
1761378676714024200,0.461024169921875,0.0006661561783403158,-0.0005828866851516068,0.00004996171628590673
1761378676724049700,0.471049560546875,0.0008160413126461208,0.00038303982000797987,-0.0006161945057101548
1761378676734076200,0.481076171875,-0.0000666156192892231,-0.00019984686514362693,0.00039969373028725386
1761378676744100600,0.4911005859375,0.00023315467115025967,-0.0013656201772391796,-0.00016653904458507895
1761378676754126600,0.501126708984375,-0.0000666156192892231,-0.0001498851488577202,0.0006828100886195898
1761378676764155400,0.5111552734375,0.000016653904822305776,0.00011657733557512984,0.0005828866851516068
1761378676774182100,0.52118212890625,0.0005995405954308808,-0.0005329249543137848,0.00046630934230051935
1761378676784192000,0.53119189453125,0.0013156584464013577,0.0008160413126461208,-0.0005662327748723328
1761378676794256400,0.54125634765625,0.0002664624771568924,-0.000016653904822305776,0.0002997702977154404
1761378676804255200,0.551255126953125,0.00016653904458507895,0.00024980856687761843,0.00018319295486435294
1761378676814280200,0.5612802734375,-0.0006495022680610418,0.00023315467115025967,0.00004996171628590673
1761378676824276200,0.571276123046875,-0.0004163476114626974,0.0007827335502952337,0.0002664624771568924
1761378676834316800,0.58131689453125,0.00023315467115025967,-0.0005495788645930588,0.00016653904458507895
1761378676844357000,0.591357177734375,-0.00018319295486435294,-0.000016653904822305776,0.00039969373028725386
1761378676854383000,0.601383056640625,-0.00011657733557512984,-0.000016653904822305776,0.00016653904458507895
1761378676864408600,0.61140869140625,0.0002165007608709857,-0.0003164241788908839,-0.0001498851488577202
1761378676874413600,0.62141357421875,-0.00038303982000797987,-0.0008826569537632167,-0.00019984686514362693
1761378676884444700,0.631444580078125,0.0006328483577817678,-0.0005662327748723328,0.0002664624771568924
1761378676894485200,0.6414853515625,0.0009326186846010387,0.00046630934230051935,0.0003330780891701579
1761378676904511700,0.65151171875,0.0006994639988988638,0.0006161945057101548,0
1761378676914537000,0.661536865234375,0.0008493491332046688,0.00044965543202124536,-0.0009159647743217647
1761378676924562700,0.671562744140625,0.00016653904458507895,0.0005329249543137848,0.000016653904822305776
1761378676934588200,0.681588134765625,-0.00039969373028725386,0.00018319295486435294,0.0001332312385784462
1761378676944613600,0.691613525390625,0.00009992343257181346,0.00008326952229253948,0.0005162710440345109
1761378676954639400,0.701639404296875,-0.00008326952229253948,-0.0001332312385784462,0.0005162710440345109
1761378676964664800,0.711664794921875,-0.0006495022680610418,-0.0004163476114626974,0.00039969373028725386
1761378676974690800,0.72169091796875,0.00016653904458507895,-0.00024980856687761843,-0.00008326952229253948
1761378676984716300,0.73171630859375,-0.0006495022680610418,-0.0002831163874361664,0.00008326952229253948
1761378676994741800,0.74174169921875,0.00046630934230051935,0,0.00044965543202124536
1761378677004748800,0.751748779296875,0.00016653904458507895,0.00004996171628590673,-0.0002664624771568924
1761378677014793200,0.761793212890625,0.00003330780964461155,0.00044965543202124536,0.0008660030434839427
1761378677024819200,0.771819091796875,0.0006495022680610418,0.00044965543202124536,0.00016653904458507895
1761378677034843600,0.78184375,0.0001498851488577202,0.0003164241788908839,-0.000016653904822305776
1761378677044871400,0.791871337890625,-0.0000666156192892231,0.0004996171337552369,0.0001332312385784462
1761378677054888200,0.80188818359375,-0.000016653904822305776,-0.0003164241788908839,-0.0004163476114626974
1761378677064924000,0.811923828125,0.0002664624771568924,-0.0003497319994494319,-0.00039969373028725386
1761378677074948400,0.8219482421875,-0.0003663859097287059,-0.0010325420880690217,-0.0004996171337552369
1761378677084973300,0.831973388671875,-0.00023315467115025967,-0.0002165007608709857,-0.00018319295486435294
1761378677094998300,0.841998291015625,-0.00008326952229253948,0.0006328483577817678,0.0002831163874361664
1761378677105024500,0.8520244140625,0.0013989279977977276,0.0007327718194574118,0.00011657733557512984
1761378677115050200,0.86205029296875,0.0012823506258428097,0.0008160413126461208,-0.00048296325257979333
1761378677125075500,0.872075439453125,0.00018319295486435294,0.00011657733557512984,-0.00016653904458507895
1761378677135101000,0.882100830078125,0.0009159647743217647,0.0004163476114626974,0.0005162710440345109
1761378677145126700,0.892126708984375,-0.0002664624771568924,-0.0005162710440345109,0.0002997702977154404
1761378677155155200,0.9021552734375,-0.0002165007608709857,-0.0013656201772391796,-0.00008326952229253948
1761378677165181700,0.912181640625,-0.0003330780891701579,-0.0004163476114626974,0.00011657733557512984
1761378677175192000,0.922192138671875,-0.00024980856687761843,-0.0005495788645930588,0.00024980856687761843
1761378677185255200,0.932255126953125,-0.00018319295486435294,0.0005329249543137848,-0.00004996171628590673
1761378677195255300,0.94225537109375,-0.00004996171628590673,-0.00039969373028725386,-0.0002997702977154404
1761378677205239000,0.952239013671875,-0.00023315467115025967,0.00024980856687761843,-0.0002664624771568924
1761378677215306000,0.962305908203125,0.00008326952229253948,0.00018319295486435294,0.0002165007608709857
1761378677225331500,0.97233154296875,0.00009992343257181346,0.00009992343257181346,-0.0007827335502952337
1761378677235357400,0.982357421875,0.00018319295486435294,0.0004163476114626974,0.0004163476114626974
1761378677245383200,0.992383056640625,0.00011657733557512984,-0.0007660796400159597,0.000016653904822305776
1761378677255388000,1.002387939453125,-0.0008493491332046688,-0.0009492725948803127,0.00003330780964461155
1761378677265434400,1.012434326171875,-0.00018319295486435294,0.00004996171628590673,-0.0001498851488577202
1761378677275459800,1.0224599609375,-0.00023315467115025967,0.00004996171628590673,-0.0002165007608709857
1761378677285485300,1.0324853515625,0.0002664624771568924,0.00009992343257181346,0.0002997702977154404
1761378677295511000,1.042510986328125,0.0003330780891701579,0.00038303982000797987,0.0001498851488577202
1761378677305536800,1.052536865234375,0.0005162710440345109,-0.00019984686514362693,0.0002997702977154404
1761378677315562500,1.0625625,-0.0000666156192892231,-0.00024980856687761843,0
1761378677325588200,1.072588134765625,0.00039969373028725386,0.0002165007608709857,0.0004163476114626974
1761378677335614000,1.082614013671875,-0.0000666156192892231,0.00024980856687761843,-0.0006495022680610418
1761378677345639400,1.092639404296875,-0.00039969373028725386,-0.00044965543202124536,-0.0002997702977154404
1761378677355637500,1.102637451171875,-0.0002997702977154404,-0.0000666156192892231,0.0005162710440345109
1761378677365690600,1.112690673828125,-0.00023315467115025967,-0.000016653904822305776,-0.00004996171628590673
1761378677375716400,1.12271630859375,-0.0007161179091781378,-0.000016653904822305776,-0.0006828100886195898
1761378677385728800,1.132728759765625,-0.00009992343257181346,0.00044965543202124536,-0.0003330780891701579
1761378677395767600,1.142767578125,-0.0001332312385784462,-0.00016653904458507895,0.0004163476114626974
1761378677405793300,1.152793212890625,-0.0000666156192892231,-0.0005662327748723328,0.0014488897286355495
1761378677415819000,1.162819091796875,0.00003330780964461155,0.0000666156192892231,0.00044965543202124536
1761378677425844500,1.172844482421875,0.0004996171337552369,-0.0002664624771568924,0.0006661561783403158
1761378677435871200,1.182871337890625,-0.00003330780964461155,-0.00019984686514362693,0.00038303982000797987
1761378677445896000,1.19289599609375,-0.00019984686514362693,-0.00016653904458507895,0.0008993108640424907
1761378677455923500,1.20292333984375,0.0002831163874361664,-0.0000666156192892231,0.00016653904458507895
1761378677465948000,1.212947998046875,-0.0003330780891701579,0.00018319295486435294,0.00018319295486435294
1761378677475972900,1.222972900390625,0.00044965543202124536,0.00024980856687761843,-0.0003330780891701579
1761378677485998300,1.232998291015625,0.0007494257297366858,0.00003330780964461155,-0.0004163476114626974
1761378677496023800,1.24302392578125,0.0003497319994494319,-0.0002664624771568924,-0.0004996171337552369
1761378677506049500,1.253049560546875,0.0008326952229253948,0.0001498851488577202,-0.0011824272805824876
1761378677516060400,1.263060302734375,0.0005162710440345109,0.00046630934230051935,0.0002165007608709857
1761378677526101000,1.27310107421875,-0.00018319295486435294,-0.00008326952229253948,0.0002664624771568924
1761378677536126000,1.2831259765625,-0.0002831163874361664,-0.0011491194600239396,0.0005162710440345109
1761378677546155500,1.293155517578125,0.0001332312385784462,-0.0006661561783403158,0.0007827335502952337
1761378677556177400,1.303177490234375,-0.00023315467115025967,0.0004163476114626974,0.0008826569537632167
1761378677566193200,1.313193115234375,-0.00008326952229253948,-0.0005329249543137848,0.00044965543202124536
1761378677576255700,1.323255859375,0.0003330780891701579,-0.00044965543202124536,0.0010158881777897477
1761378677586234400,1.333234375,-0.00008326952229253948,-0.00048296325257979333,0.00009992343257181346
1761378677596280600,1.343280517578125,0.000016653904822305776,-0.0002997702977154404,0.00046630934230051935
1761378677606306000,1.35330615234375,-0.0005162710440345109,-0.00018319295486435294,0.00023315467115025967
1761378677616331800,1.363331787109375,0.00009992343257181346,0.00016653904458507895,0.000016653904822305776
1761378677626357200,1.373357177734375,0.00048296325257979333,-0.0008493491332046688,-0.0001498851488577202
1761378677636382500,1.383382568359375,-0.00019984686514362693,-0.0006328483577817678,-0.0006661561783403158
1761378677646408200,1.393408203125,0.0001498851488577202,0.0006161945057101548,-0.00048296325257979333
1761378677656434200,1.40343408203125,0.0002165007608709857,-0.0013156584464013577,-0.00024980856687761843
1761378677666461400,1.41346142578125,0.0003497319994494319,-0.0002831163874361664,0.00016653904458507895
1761378677676487000,1.42348681640625,-0.00003330780964461155,0.0011824272805824876,-0.0003164241788908839
1761378677686521300,1.433521240234375,0.0006661561783403158,-0.0006328483577817678,-0.0006328483577817678
1761378677696539400,1.443539306640625,0.0006661561783403158,-0.0013489662669599056,-0.0002664624771568924
1761378677706564000,1.453564208984375,0.0005162710440345109,0.00003330780964461155,0.000016653904822305776
1761378677716580900,1.463580810546875,0.00019984686514362693,-0.00039969373028725386,-0.00009992343257181346
1761378677726616000,1.473615966796875,-0.0005329249543137848,-0.0007494257297366858,0.00044965543202124536
1761378677736641800,1.483641845703125,0.0002165007608709857,0.0001498851488577202,0.00019984686514362693
1761378677746667000,1.4936669921875,0.0001498851488577202,0.00024980856687761843,0.00019984686514362693
1761378677756693200,1.503693359375,0.0002831163874361664,-0.00048296325257979333,0.0003497319994494319
1761378677766718500,1.513718505859375,0.0004996171337552369,0.0006161945057101548,-0.00003330780964461155
1761378677776744200,1.523744140625,0.00044965543202124536,0.0006661561783403158,-0.0003164241788908839
1761378677786769700,1.533769775390625,-0.0004996171337552369,-0.0007161179091781378,-0.00038303982000797987
1761378677796794600,1.543794677734375,-0.00024980856687761843,-0.0003330780891701579,-0.0001498851488577202
1761378677806823200,1.5538232421875,-0.00008326952229253948,-0.00009992343257181346,-0.00016653904458507895
1761378677816847000,1.56384716796875,-0.0005495788645930588,-0.0004996171337552369,-0.0003164241788908839
1761378677826876000,1.5738759765625,-0.00008326952229253948,-0.0005995405954308808,0.00011657733557512984
1761378677836897800,1.583897705078125,-0.0003663859097287059,0.0002997702977154404,0.00009992343257181346
1761378677846927600,1.593927734375,0.00018319295486435294,-0.0002165007608709857,0.0001498851488577202
1761378677856948500,1.603948486328125,0.0005828866851516068,-0.000016653904822305776,0.00023315467115025967
1761378677866974000,1.613973876953125,0.0005329249543137848,0.0005162710440345109,0.0000666156192892231
1761378677877000000,1.624,0.000016653904822305776,0.00008326952229253948,-0.0000666156192892231
1761378677887004700,1.634004638671875,0.0002831163874361664,-0.0004330015217419714,-0.000016653904822305776
1761378677897051600,1.6440517578125,0.00016653904458507895,-0.0004330015217419714,-0.00039969373028725386
1761378677907077400,1.654077392578125,0.0006328483577817678,-0.00009992343257181346,-0.0006328483577817678
1761378677917080600,1.66408056640625,-0.0002664624771568924,0.00016653904458507895,-0.0004163476114626974
1761378677927127300,1.674127197265625,0.0003164241788908839,0.00009992343257181346,-0.0006495022680610418
1761378677937159000,1.684158935546875,-0.00019984686514362693,-0.0000666156192892231,-0.0007660796400159597
1761378677947187000,1.69418701171875,-0.0009825803572311997,0.0004330015217419714,0.0002831163874361664
1761378677957197300,1.704197265625,-0.00009992343257181346,-0.0004996171337552369,0.0002831163874361664
1761378677967208700,1.714208740234375,-0.0004330015217419714,-0.0002997702977154404,-0.00024980856687761843
1761378677977264400,1.724264404296875,-0.0005329249543137848,0.000016653904822305776,-0.00023315467115025967
1761378677987282700,1.73428271484375,-0.00016653904458507895,-0.0002664624771568924,-0.00004996171628590673
1761378677997307000,1.744306884765625,0.00038303982000797987,-0.00009992343257181346,-0.00018319295486435294
1761378678007333000,1.7543330078125,0.0008160413126461208,0.0005162710440345109,0.00039969373028725386
1761378678017359400,1.764359375,0.0004163476114626974,0.00016653904458507895,-0.0002997702977154404
1761378678027385600,1.774385498046875,0.0003330780891701579,0.0004996171337552369,-0.00038303982000797987
1761378678037410300,1.784410400390625,0.0002664624771568924,0.0002831163874361664,0.00018319295486435294
1761378678047397000,1.794397216796875,-0.0000666156192892231,-0.0003497319994494319,0.0005662327748723328
1761378678057461800,1.804461669921875,-0.0005162710440345109,-0.0003497319994494319,0.0004330015217419714
1761378678067487000,1.814487060546875,-0.0004330015217419714,-0.0007161179091781378,0.0006661561783403158
1761378678077513500,1.824513427734375,-0.00024980856687761843,-0.0005828866851516068,0.0006495022680610418
1761378678087522300,1.834522216796875,-0.0002831163874361664,-0.0004996171337552369,0.0001498851488577202
1761378678097546000,1.8445458984375,-0.00046630934230051935,-0.0000666156192892231,0.0008660030434839427
1761378678107591200,1.854591064453125,-0.0007161179091781378,0.00004996171628590673,0.0007494257297366858
1761378678117616000,1.8646162109375,0.00018319295486435294,-0.00018319295486435294,-0.0005828866851516068
1761378678127640800,1.874640869140625,0.0005162710440345109,0.000016653904822305776,-0.00019984686514362693
1761378678137667800,1.884667724609375,0.0002664624771568924,-0.00023315467115025967,-0.0001498851488577202
1761378678147692500,1.894692626953125,-0.00044965543202124536,0.0005162710440345109,0.000016653904822305776
1761378678157718000,1.904718017578125,-0.00008326952229253948,0.0003497319994494319,0.0004163476114626974
1761378678167744300,1.914744140625,-0.00003330780964461155,0.00003330780964461155,0.00019984686514362693
1761378678177769700,1.924769775390625,0.0006161945057101548,-0.0006328483577817678,-0.00016653904458507895
1761378678187795500,1.93479541015625,0.00019984686514362693,0.0005995405954308808,-0.00011657733557512984
1761378678197822000,1.944822021484375,0.0005329249543137848,-0.0002831163874361664,0.0005495788645930588
1761378678207847200,1.95484716796875,-0.0002664624771568924,-0.0004330015217419714,-0.0002165007608709857
1761378678217898500,1.9648984375,-0.0001498851488577202,-0.00046630934230051935,-0.0001332312385784462
1761378678227899400,1.9748994140625,-0.0003330780891701579,0.00019984686514362693,0.0007161179091781378
1761378678237928200,1.98492822265625,-0.00048296325257979333,0.000016653904822305776,0.0002997702977154404
1761378678247926500,1.994926513671875,-0.0005995405954308808,-0.0000666156192892231,0.00003330780964461155
1761378678257974800,2.004974853515625,-0.0005162710440345109,-0.0010158881777897477,-0.0002997702977154404
1761378678268000300,2.015000244140625,-0.0005495788645930588,-0.0007161179091781378,-0.0003663859097287059
1761378678278025700,2.025025634765625,0.00011657733557512984,-0.0002664624771568924,0.0005662327748723328
1761378678288052000,2.035052001953125,0.00023315467115025967,-0.00023315467115025967,0.00003330780964461155
1761378678298077000,2.045076904296875,0.0004996171337552369,-0.0002165007608709857,-0.00003330780964461155
1761378678308110800,2.05511083984375,0.00008326952229253948,0.0003164241788908839,-0.0007993874605745077
1761378678318129200,2.065129150390625,0.00023315467115025967,0.00044965543202124536,0.0001332312385784462
1761378678328157200,2.0751572265625,0.0008160413126461208,0.0001332312385784462,-0.00016653904458507895
1761378678338186500,2.0851865234375,0.00019984686514362693,0.00003330780964461155,-0.0003330780891701579
1761378678348183800,2.095183837890625,-0.00018319295486435294,0.0003663859097287059,-0.0000666156192892231
1761378678358209300,2.105209228515625,0.0004163476114626974,0.0000666156192892231,-0.00023315467115025967
1761378678368258300,2.11525830078125,-0.0009326186846010387,-0.00011657733557512984,0.0006161945057101548
1761378678378282200,2.1252822265625,-0.0007327718194574118,-0.00008326952229253948,0.0010158881777897477
1761378678388308200,2.13530810546875,-0.0006495022680610418,0.0002165007608709857,0.0008660030434839427
1761378678398312400,2.1453125,0.00009992343257181346,0.00003330780964461155,-0.00018319295486435294
1761378678408359200,2.155359130859375,0.0005495788645930588,-0.0001332312385784462,-0.00003330780964461155
1761378678418385700,2.1653857421875,0.0007494257297366858,0.00011657733557512984,0.00038303982000797987
1761378678428411000,2.175410888671875,0.0007161179091781378,0.00003330780964461155,-0.00024980856687761843
1761378678438436400,2.185436279296875,0.0002997702977154404,-0.0004330015217419714,0.0004330015217419714
1761378678448461000,2.1954609375,0.00016653904458507895,0.00019984686514362693,-0.0001498851488577202
1761378678458487600,2.205487548828125,0.00004996171628590673,-0.0005828866851516068,-0.0001498851488577202
1761378678468512800,2.2155126953125,-0.0008160413126461208,-0.0006161945057101548,0.0005495788645930588
1761378678478539300,2.225539306640625,0.0005828866851516068,-0.00044965543202124536,0.00008326952229253948
1761378678488564200,2.235564208984375,0.0007494257297366858,0.00048296325257979333,-0.0003164241788908839
1761378678498589400,2.24558935546875,0.0007660796400159597,-0.0002165007608709857,-0.0009992342675104737
1761378678508615000,2.255614990234375,0.0002165007608709857,0.0002664624771568924,-0.0005495788645930588
1761378678518641400,2.265641357421875,0.00038303982000797987,-0.00019984686514362693,-0.0010158881777897477
1761378678528667100,2.275667236328125,0.0005329249543137848,-0.0001332312385784462,-0.0006994639988988638
1761378678538692000,2.285692138671875,0.00009992343257181346,0.0002831163874361664,-0.00024980856687761843
1761378678548718000,2.295718017578125,0.0002165007608709857,-0.00004996171628590673,0.0010325420880690217
1761378678558742800,2.30574267578125,-0.00046630934230051935,-0.0017153521766886115,0.0005495788645930588
1761378678568752600,2.315752685546875,-0.00018319295486435294,-0.00048296325257979333,0.0006994639988988638
1761378678578797000,2.325797119140625,-0.0005162710440345109,-0.0003164241788908839,0.0005662327748723328
1761378678588821500,2.335821533203125,-0.0005495788645930588,-0.00016653904458507895,0.0008660030434839427
1761378678598850000,2.34585009765625,-0.0005662327748723328,0.00044965543202124536,0.0003164241788908839
1761378678608875500,2.35587548828125,0.0002831163874361664,-0.0001332312385784462,-0.0003497319994494319
1761378678618899000,2.36589892578125,0.0008826569537632167,-0.00009992343257181346,0.0002831163874361664
1761378678628926700,2.3759267578125,0.0007827335502952337,0.0009659265051595867,0.0001332312385784462
1761378678638957600,2.38595751953125,0.0003164241788908839,-0.0005828866851516068,0.0005662327748723328
1761378678648974300,2.395974365234375,-0.00038303982000797987,-0.0001332312385784462,0.0005828866851516068
1761378678659001000,2.4060009765625,0.00011657733557512984,0.00024980856687761843,0.0008993108640424907
1761378678669026600,2.416026611328125,-0.0006495022680610418,-0.0006828100886195898,-0.00011657733557512984
1761378678679052000,2.426052001953125,-0.0008660030434839427,-0.0009825803572311997,-0.0002997702977154404
1761378678689077200,2.4360771484375,-0.0004996171337552369,-0.00008326952229253948,-0.0000666156192892231
1761378678699084000,2.446083984375,0.00003330780964461155,-0.0003330780891701579,0.0008160413126461208
1761378678709129000,2.45612890625,0.0001332312385784462,-0.0008493491332046688,-0.00003330780964461155
1761378678719157000,2.466156982421875,0.000016653904822305776,0.0003497319994494319,0.0001498851488577202
1761378678729163800,2.476163818359375,0.0005828866851516068,-0.0004330015217419714,0.00018319295486435294
1761378678739197000,2.486197021484375,0.000016653904822305776,-0.0003663859097287059,0.0006328483577817678
1761378678749209900,2.4962099609375,0.0009492725948803127,-0.00008326952229253948,0.0008160413126461208
1761378678759267800,2.506267822265625,0.0004163476114626974,0.00016653904458507895,-0.0000666156192892231
1761378678769283000,2.516282958984375,0.00011657733557512984,0.00024980856687761843,0.00008326952229253948
1761378678779307800,2.526307861328125,0.00044965543202124536,-0.00003330780964461155,-0.0003330780891701579
1761378678789333500,2.53633349609375,-0.00011657733557512984,-0.00019984686514362693,-0.00011657733557512984
1761378678799359700,2.54635986328125,-0.0007993874605745077,-0.0007161179091781378,0.0001498851488577202
1761378678809385500,2.556385498046875,-0.0005995405954308808,-0.0003330780891701579,0.00009992343257181346
1761378678819410700,2.56641064453125,-0.0007494257297366858,0.0002664624771568924,-0.0002165007608709857
1761378678829436200,2.576436279296875,-0.00023315467115025967,-0.0006828100886195898,-0.00016653904458507895
1761378678839462400,2.58646240234375,0.0008660030434839427,0.00004996171628590673,-0.0003663859097287059
1761378678849486300,2.596486328125,-0.0003164241788908839,0.00016653904458507895,0.00003330780964461155
1761378678859516200,2.60651611328125,-0.0002997702977154404,0.0002664624771568924,-0.00024980856687761843
1761378678869538600,2.61653857421875,0.0002664624771568924,0.0005329249543137848,-0.000016653904822305776
1761378678879565000,2.62656494140625,0.0001498851488577202,0.00016653904458507895,-0.0007993874605745077
1761378678889590000,2.636590087890625,0.0000666156192892231,0.00003330780964461155,-0.0006161945057101548
1761378678899606000,2.64660595703125,-0.0006994639988988638,0.00008326952229253948,-0.00011657733557512984
1761378678909619000,2.656618896484375,-0.00019984686514362693,-0.0003663859097287059,0.0001498851488577202
1761378678919667700,2.666667724609375,-0.00024980856687761843,-0.0003164241788908839,0.00046630934230051935
1761378678929652700,2.67665283203125,-0.00023315467115025967,0.00038303982000797987,0.00018319295486435294
1761378678939717400,2.68671728515625,-0.0005995405954308808,-0.0004163476114626974,-0.0002997702977154404
1761378678949743900,2.696743896484375,-0.00016653904458507895,-0.0002664624771568924,0.0002831163874361664
1761378678959770000,2.70677001953125,-0.0009159647743217647,-0.00011657733557512984,0.0000666156192892231
1761378678969796000,2.716796142578125,0,-0.00011657733557512984,-0.0004330015217419714
1761378678979822000,2.726822021484375,-0.0001332312385784462,-0.0008993108640424907,-0.0003497319994494319
1761378678989847800,2.736847900390625,0.0005329249543137848,-0.0002831163874361664,0.00046630934230051935
1761378678999876000,2.7468759765625,0.0008993108640424907,0.00016653904458507895,0.0007827335502952337
1761378679009898000,2.75689794921875,-0.0001498851488577202,0.0002664624771568924,-0.00038303982000797987
1761378679019928300,2.76692822265625,-0.00046630934230051935,0.0005662327748723328,-0.0003164241788908839
1761378679029957400,2.776957275390625,0.0001332312385784462,0.00011657733557512984,-0.0003663859097287059
1761378679039975700,2.7869755859375,0.0005662327748723328,-0.0001332312385784462,-0.0000666156192892231
1761378679050000400,2.79700048828125,0.0003330780891701579,-0.0005662327748723328,0.0010991577291861176
1761378679060025900,2.80702587890625,0.0002997702977154404,-0.0003330780891701579,0.0003164241788908839
1761378679070052400,2.81705224609375,-0.0001498851488577202,-0.0003663859097287059,-0.0002664624771568924
1761378679080076800,2.827076904296875,-0.00039969373028725386,0.00011657733557512984,-0.0000666156192892231
1761378679090102800,2.837102783203125,-0.00024980856687761843,-0.00046630934230051935,0.00048296325257979333
1761378679100110800,2.84711083984375,-0.0006495022680610418,-0.0002664624771568924,0.00009992343257181346
1761378679110143000,2.85714306640625,-0.00024980856687761843,0.0003663859097287059,0.00004996171628590673
1761378679120187000,2.867186767578125,0.00024980856687761843,-0.0006328483577817678,0.00016653904458507895
1761378679130189600,2.877189453125,0.0003164241788908839,-0.0005495788645930588,-0.00018319295486435294
1761378679140209200,2.887209228515625,0.0005828866851516068,0.00023315467115025967,-0.00003330780964461155
1761378679150263000,2.897262939453125,-0.0004330015217419714,-0.00048296325257979333,-0.0004163476114626974
1761378679160282400,2.907282470703125,-0.0003663859097287059,-0.0008493491332046688,-0.0012157351011410356
1761378679170307800,2.917307861328125,-0.00024980856687761843,-0.0003330780891701579,-0.0002664624771568924
1761378679180333600,2.92733349609375,-0.00048296325257979333,-0.000016653904822305776,0.0003164241788908839
1761378679190358300,2.937358154296875,-0.000016653904822305776,-0.0003497319994494319,0.0009992342675104737
1761378679200384800,2.947384765625,0.0014821975491940975,0.00024980856687761843,0.0002664624771568924
1761378679210410800,2.95741064453125,0.0005162710440345109,0.0003164241788908839,0.00003330780964461155
1761378679220436700,2.967436767578125,0.0004996171337552369,0.0003497319994494319,-0.000016653904822305776
1761378679230461400,2.97746142578125,0.0003497319994494319,-0.0003164241788908839,-0.00009992343257181346
1761378679240487000,2.98748681640625,-0.0004996171337552369,-0.00019984686514362693,-0.0003164241788908839
1761378679250512100,2.99751220703125,-0.0002165007608709857,-0.0007827335502952337,-0.00004996171628590673
1761378679260525800,3.00752587890625,-0.00011657733557512984,-0.0005828866851516068,0.0004996171337552369
1761378679270564600,3.017564697265625,-0.0008160413126461208,0.0001332312385784462,0.00016653904458507895
1761378679280567800,3.02756787109375,0.0000666156192892231,-0.0003663859097287059,0.0007494257297366858
1761378679290616600,3.037616455078125,0.00023315467115025967,-0.0006661561783403158,-0.00024980856687761843
1761378679300642000,3.04764208984375,0.00044965543202124536,-0.0005162710440345109,-0.00024980856687761843
1761378679310668000,3.05766796875,-0.00016653904458507895,-0.00008326952229253948,-0.0002165007608709857
1761378679320692200,3.067692138671875,0.000016653904822305776,-0.00046630934230051935,-0.00016653904458507895
1761378679330718200,3.07771826171875,-0.00019984686514362693,-0.00038303982000797987,-0.0002664624771568924
1761378679340744000,3.087743896484375,-0.00004996171628590673,-0.0008660030434839427,-0.0006994639988988638
1761378679350769700,3.097769775390625,0.0003663859097287059,-0.0005495788645930588,-0.0001332312385784462
1761378679360795600,3.107795654296875,0.0005495788645930588,-0.0011657733703032136,-0.00038303982000797987
1761378679370821000,3.117821044921875,0.0008826569537632167,0.00019984686514362693,-0.00009992343257181346
1761378679380847900,3.127847900390625,0.0005662327748723328,0.0001332312385784462,-0.0008660030434839427
1761378679390874000,3.1378740234375,-0.00008326952229253948,-0.00039969373028725386,-0.0001498851488577202
1761378679400899300,3.1478994140625,-0.0010158881777897477,0.0005329249543137848,0.0007161179091781378
1761378679410926000,3.157926025390625,-0.0013489662669599056,-0.00003330780964461155,0.0001332312385784462
1761378679420951000,3.167950927734375,-0.0004996171337552369,-0.0010491959983482957,0.0003663859097287059
1761378679430953200,3.177953125,-0.0002997702977154404,-0.0005162710440345109,0.0009659265051595867
1761378679440999700,3.187999755859375,-0.00044965543202124536,-0.00003330780964461155,0.0003497319994494319
1761378679451029800,3.19802978515625,-0.0005329249543137848,-0.0005495788645930588,-0.0001498851488577202
1761378679461045000,3.208044921875,-0.00024980856687761843,-0.00011657733557512984,-0.00004996171628590673
1761378679471078700,3.21807861328125,-0.0004330015217419714,-0.00048296325257979333,0.0002664624771568924
1761378679481104000,3.228103759765625,0.0002831163874361664,-0.00008326952229253948,0.0007993874605745077
1761378679491128600,3.238128662109375,-0.0002997702977154404,0.0004996171337552369,0.0003330780891701579
1761378679501154600,3.248154541015625,-0.0007660796400159597,0.0006661561783403158,-0.000016653904822305776
1761378679511180500,3.2581806640625,-0.00004996171628590673,0.0005662327748723328,-0.0001332312385784462
1761378679521205500,3.26820556640625,0.00024980856687761843,-0.0003497319994494319,-0.0008993108640424907
1761378679531231500,3.2782314453125,-0.0004996171337552369,-0.00008326952229253948,-0.0001332312385784462
1761378679541256700,3.288256591796875,-0.0002831163874361664,0.00038303982000797987,-0.0003663859097287059
1761378679551282200,3.2982822265625,-0.0001332312385784462,-0.0008993108640424907,-0.0006994639988988638
1761378679561308400,3.308308349609375,-0.0002664624771568924,-0.00008326952229253948,-0.0006661561783403158
1761378679571334400,3.31833447265625,0.0001498851488577202,0.0004163476114626974,0.0006994639988988638
1761378679581360000,3.328360107421875,0.0002831163874361664,-0.00009992343257181346,0.00011657733557512984
1761378679591385600,3.338385498046875,0.00024980856687761843,0.000016653904822305776,0.0005662327748723328
1761378679601411800,3.348411865234375,0.00011657733557512984,0.0003330780891701579,0.0005662327748723328
1761378679611436300,3.358436279296875,-0.000016653904822305776,0.00003330780964461155,0.0001332312385784462
1761378679621462000,3.3684619140625,-0.0008493491332046688,-0.0002664624771568924,0.0005662327748723328
1761378679631487200,3.3784873046875,-0.000016653904822305776,-0.00009992343257181346,0.00046630934230051935
1761378679641513700,3.388513671875,-0.0009992342675104737,-0.0003663859097287059,0.0001332312385784462
1761378679651540200,3.398540283203125,0.00004996171628590673,-0.0009659265051595867,-0.0003497319994494319
1761378679661565000,3.40856494140625,0.00008326952229253948,0.0007660796400159597,-0.00008326952229253948
1761378679671590100,3.418590087890625,0.0006994639988988638,-0.00039969373028725386,0.0005495788645930588
1761378679681616100,3.4286162109375,0.0003164241788908839,-0.0000666156192892231,0.00008326952229253948
1761378679691642000,3.43864208984375,0.000016653904822305776,0.0006994639988988638,-0.0004996171337552369
1761378679701667300,3.448667236328125,-0.0003164241788908839,-0.0002997702977154404,0.0001332312385784462
1761378679711694000,3.458694091796875,-0.0003663859097287059,-0.0002831163874361664,-0.00004996171628590673
1761378679721719300,3.46871923828125,-0.0010991577291861176,0.000016653904822305776,0.0000666156192892231
1761378679731744000,3.478743896484375,-0.0005995405954308808,-0.00023315467115025967,-0.0007327718194574118
1761378679741770000,3.48877001953125,-0.0005162710440345109,-0.0007161179091781378,-0.0004163476114626974
1761378679751795700,3.498795654296875,-0.0009326186846010387,-0.00004996171628590673,-0.0006828100886195898
1761378679761821400,3.508821533203125,0.00023315467115025967,0.0006328483577817678,0.0003663859097287059
1761378679771847400,3.518847412109375,0.00044965543202124536,-0.00003330780964461155,0.00004996171628590673
1761378679781873000,3.528872802734375,0.00008326952229253948,-0.0003497319994494319,0.00003330780964461155
1761378679791859700,3.538859619140625,0.0005329249543137848,-0.0002997702977154404,-0.0001498851488577202
1761378679801927000,3.548927001953125,0.00046630934230051935,-0.0001332312385784462,0.00024980856687761843
1761378679811949300,3.55894921875,0.0001498851488577202,0.0005828866851516068,0.00044965543202124536
1761378679821978400,3.568978271484375,0.00039969373028725386,-0.00018319295486435294,-0.0006828100886195898
1761378679831976700,3.578976806640625,0.0002165007608709857,-0.00016653904458507895,-0.0007660796400159597
1761378679842026500,3.589026611328125,-0.00008326952229253948,-0.00018319295486435294,-0.0002165007608709857
1761378679852052000,3.599052001953125,0.00019984686514362693,0.0004163476114626974,-0.00044965543202124536
1761378679862078000,3.609077880859375,0.00048296325257979333,-0.0000666156192892231,0.00008326952229253948
1761378679872131000,3.619131103515625,-0.0003164241788908839,0.0004163476114626974,0.0002997702977154404
1761378679882133800,3.6291337890625,0.0003164241788908839,0.0007161179091781378,0.0004996171337552369
1761378679892164900,3.639164794921875,0.0006828100886195898,0.0000666156192892231,-0.0006161945057101548
1761378679902180600,3.6491806640625,0.00024980856687761843,0.0002831163874361664,0.0003164241788908839
1761378679912205600,3.65920556640625,-0.00009992343257181346,0.0002831163874361664,0.0007327718194574118
1761378679922231800,3.669231689453125,-0.0002165007608709857,-0.0002831163874361664,-0.0004996171337552369
1761378679932257300,3.67925732421875,-0.0000666156192892231,0.007111217360943556,0.0007494257297366858
1761378679942282500,3.689282470703125,-0.0002165007608709857,0.031076187267899513,0.0006828100886195898
1761378679952309000,3.69930908203125,0.00003330780964461155,0.01820271834731102,-0.0013156584464013577
1761378679962363100,3.709363037109375,-0.0003330780891701579,0.008643376640975475,0.0017486599972471595
1761378679972359200,3.719359130859375,-0.0005828866851516068,0.011674387380480766,-0.0013156584464013577
1761378679982385700,3.7293857421875,-0.0006161945057101548,0.0010158881777897477,0.00044965543202124536
1761378679992386000,3.739385986328125,-0.0008660030434839427,-0.005712289363145828,-0.00008326952229253948
1761378680002436900,3.749436767578125,-0.0005495788645930588,-0.009009762667119503,-0.0003663859097287059
1761378680012462300,3.75946240234375,-0.0002831163874361664,-0.019385145977139473,-0.0005828866851516068
1761378680022488000,3.769488037109375,0.0010158881777897477,-0.02429804764688015,-0.0015488131903111935
1761378680032514000,3.77951416015625,-0.00004996171628590673,-0.014655436389148235,0.002448124112561345
1761378680042539000,3.7895390625,-0.0002997702977154404,0.005479134619235992,-0.0006994639988988638
1761378680052565500,3.7995654296875,-0.0015821210108697414,0.0020650841761380434,-0.0018985451897606254
1761378680062590700,3.8095908203125,-0.002464778022840619,-0.008426875807344913,0.003647205187007785
1761378680072616200,3.8196162109375,-0.002931087277829647,0.0014322358183562756,-0.0012823506258428097
1761378680082641700,3.8296416015625,-0.003047664649784565,0.0012157351011410356,0.0021983154583722353
1761378680092668200,3.839668212890625,-0.002831163816154003,-0.0054125189781188965,0.00024980856687761843
1761378680102692900,3.84969287109375,-0.002797855995595455,-0.0004163476114626974,0.0006994639988988638
1761378680112719000,3.859718994140625,-0.0008660030434839427,0.0021650076378136873,-0.0000666156192892231
1761378680122745000,3.8697451171875,-0.00046630934230051935,-0.002331546740606427,-0.0002831163874361664
1761378680132759000,3.879759033203125,0.0012157351011410356,0.0003497319994494319,0.00046630934230051935
1761378680142794500,3.88979443359375,0.0011824272805824876,0.002964395098388195,-0.0006661561783403158
1761378680152821500,3.899821533203125,0.0012823506258428097,-0.0007161179091781378,0.0000666156192892231
1761378680162825000,3.909824951171875,0.0002831163874361664,-0.0006994639988988638,-0.0008660030434839427
1761378680172870700,3.91987060546875,0.0008493491332046688,0.0017320060869678855,0.0003497319994494319
1761378680182895900,3.929895751953125,0.0006661561783403158,-0.00046630934230051935,0.0001332312385784462
1761378680192901600,3.939901611328125,-0.0002165007608709857,-0.0015987749211490154,-0.0002165007608709857
1761378680202948900,3.949948974609375,0.0002664624771568924,0.0012656967155635357,0.00046630934230051935
1761378680212973300,3.959973388671875,-0.0005828866851516068,0.00044965543202124536,0.00016653904458507895
1761378680222998500,3.96999853515625,-0.0010991577291861176,-0.000016653904822305776,0.00004996171628590673
1761378680233030000,3.98002978515625,-0.0008493491332046688,0.0013489662669599056,0.0006661561783403158
1761378680243050000,3.990050048828125,-0.0009992342675104737,-0.0005662327748723328,0.0003497319994494319
1761378680253076000,4.000075927734375,-0.0007161179091781378,-0.0009159647743217647,0
1761378680263101700,4.010101806640625,-0.0013489662669599056,0.0014155819080770016,0
1761378680273126700,4.020126708984375,-0.0012157351011410356,0.0007660796400159597,-0.0007161179091781378
1761378680283152100,4.030152099609375,-0.0010658499086275697,0.00019984686514362693,0.0002664624771568924
1761378680293178000,4.04017822265625,-0.0011324655497446656,0.0003497319994494319,0.0003497319994494319
1761378680303203600,4.05020361328125,-0.0008660030434839427,0.0001498851488577202,0.0003663859097287059
1761378680313232400,4.060232421875,-0.0017819678178057075,-0.0010991577291861176,0.0003663859097287059
1761378680323237600,4.070237548828125,-0.0016320826252922416,-0.0006328483577817678,0.0006495022680610418
1761378680333266200,4.08026611328125,-0.0018485834589228034,-0.0010325420880690217,0.00024980856687761843
1761378680343329500,4.09032958984375,-0.0016653904458507895,-0.0010658499086275697,0.0005828866851516068
1761378680353324000,4.100323974609375,-0.0010491959983482957,0.0007161179091781378,0.0009492725948803127
1761378680363326500,4.110326416015625,-0.0006994639988988638,0.0004330015217419714,0.0005995405954308808
1761378680373383700,4.1203837890625,0.00003330780964461155,0.0006495022680610418,0.0008326952229253948
1761378680383408600,4.13040869140625,0.0005662327748723328,0.00038303982000797987,0.00011657733557512984
1761378680393435000,4.140434814453125,-0.00023315467115025967,0.0002664624771568924,0.0004163476114626974
1761378680403460000,4.150460205078125,-0.0005995405954308808,0.0006328483577817678,0.0010158881777897477
1761378680413485800,4.16048583984375,-0.00038303982000797987,-0.00008326952229253948,0.0005329249543137848
1761378680423511300,4.17051123046875,-0.0003330780891701579,0.00016653904458507895,-0.00011657733557512984
1761378680433509000,4.180509033203125,-0.0005162710440345109,0.0008493491332046688,-0.00009992343257181346
1761378680443562800,4.190562744140625,-0.0005662327748723328,-0.00023315467115025967,-0.000016653904822305776
1761378680453588200,4.200588134765625,-0.0003164241788908839,0.0005995405954308808,0.0001332312385784462
1761378680463614000,4.210614013671875,-0.00039969373028725386,0.00004996171628590673,0.00039969373028725386
1761378680473639700,4.2206396484375,-0.00023315467115025967,0.00039969373028725386,-0.0007161179091781378
1761378680483665000,4.230664794921875,-0.00038303982000797987,0.00038303982000797987,-0.0003663859097287059
1761378680493675300,4.24067529296875,-0.0005828866851516068,-0.00048296325257979333,0.00039969373028725386
1761378680503716600,4.250716552734375,-0.0009159647743217647,-0.00023315467115025967,0.00048296325257979333
1761378680513742300,4.260742431640625,-0.00039969373028725386,0.0002165007608709857,0.00039969373028725386
1761378680523750000,4.27075,-0.0001498851488577202,-0.0002165007608709857,-0.0005828866851516068
1761378680533772800,4.280772705078125,-0.0003164241788908839,-0.00008326952229253948,-0.0002165007608709857
1761378680543844900,4.290844970703125,0.00038303982000797987,0.0009992342675104737,0.0003330780891701579
1761378680553844700,4.3008447265625,0.0004163476114626974,-0.00024980856687761843,0.00024980856687761843
1761378680563870500,4.310870361328125,-0.0002664624771568924,0.0005329249543137848,0.0008826569537632167
1761378680573896200,4.320896240234375,-0.00003330780964461155,-0.00003330780964461155,-0.00023315467115025967
1761378680583922200,4.330922119140625,0.0004163476114626974,-0.00024980856687761843,0.0006328483577817678
1761378680593949000,4.340948974609375,0.0002831163874361664,-0.0000666156192892231,0.00003330780964461155
1761378680603973600,4.3509736328125,0.00011657733557512984,0.000016653904822305776,0
1761378680614001200,4.361001220703125,0.0009992342675104737,-0.0000666156192892231,0.00004996171628590673
1761378680624025000,4.371025146484375,-0.0000666156192892231,-0.00003330780964461155,0.00018319295486435294
1761378680634051000,4.381051025390625,0.0005995405954308808,-0.00024980856687761843,-0.00009992343257181346
1761378680644075500,4.391075439453125,0.00019984686514362693,0.0009326186846010387,-0.0005495788645930588
1761378680654101200,4.401101318359375,0.0004996171337552369,0.0012490428052842617,-0.0001498851488577202
1761378680664126500,4.41112646484375,0.00044965543202124536,0.0002831163874361664,-0.000016653904822305776
1761378680674152400,4.42115234375,-0.0005162710440345109,0.0003330780891701579,-0.0002831163874361664
1761378680684178000,4.431177978515625,-0.00023315467115025967,0.0003497319994494319,0.0006161945057101548
1761378680694183000,4.441182861328125,-0.0010325420880690217,-0.0007993874605745077,0.0005662327748723328
1761378680704232400,4.451232421875,-0.00044965543202124536,-0.0011324655497446656,0.0003663859097287059
1761378680714260000,4.461260009765625,-0.0009825803572311997,-0.00038303982000797987,0.00011657733557512984
1761378680724260400,4.47126025390625,0.0005162710440345109,0.0000666156192892231,0.00046630934230051935
1761378680734324700,4.48132470703125,0.0003330780891701579,-0.0008993108640424907,0.000016653904822305776
1761378680744328400,4.491328369140625,0.0008493491332046688,0.0009825803572311997,0.0005828866851516068
1761378680754357500,4.501357421875,0.0012157351011410356,0.0009825803572311997,-0.00024980856687761843
1761378680764362500,4.511362548828125,0.0012157351011410356,0.0007660796400159597,0.00003330780964461155
1761378680774409000,4.521408935546875,0.0011824272805824876,0.0005162710440345109,0.0002997702977154404
1761378680784434400,4.531434326171875,0.0005662327748723328,0.00003330780964461155,0.0001332312385784462
1761378680794460000,4.5414599609375,-0.00018319295486435294,0.0003330780891701579,-0.0001332312385784462
1761378680804486000,4.55148583984375,0.0002664624771568924,0.0013656201772391796,0.00039969373028725386
1761378680814511600,4.56151171875,-0.0004163476114626974,-0.0004163476114626974,-0.0001498851488577202
1761378680824537300,4.571537353515625,-0.0006328483577817678,-0.0009992342675104737,-0.0002831163874361664
1761378680834562800,4.581562744140625,-0.0007827335502952337,-0.0003164241788908839,0.0005662327748723328
1761378680844588300,4.59158837890625,-0.0005329249543137848,-0.0005995405954308808,-0.0008160413126461208
1761378680854606300,4.6016064453125,-0.0007827335502952337,-0.0008826569537632167,-0.00046630934230051935
1761378680864639200,4.61163916015625,-0.00011657733557512984,-0.00038303982000797987,0.00024980856687761843
1761378680874664700,4.621664794921875,0.0000666156192892231,-0.0002664624771568924,0.0003164241788908839
1761378680884691000,4.63169091796875,-0.0004330015217419714,-0.00016653904458507895,-0.00039969373028725386
1761378680894696000,4.641696044921875,0.00024980856687761843,0.0001498851488577202,-0.0002165007608709857
1761378680904723200,4.65172314453125,-0.00018319295486435294,0.000016653904822305776,-0.00039969373028725386
1761378680914768000,4.661767822265625,-0.0008160413126461208,0.0003663859097287059,0.00016653904458507895
1761378680924794000,4.671794189453125,0.00023315467115025967,0.00004996171628590673,0.0006328483577817678
1761378680934819000,4.681819091796875,0.0003330780891701579,-0.00039969373028725386,-0.0001332312385784462
1761378680944844800,4.6918447265625,-0.0007161179091781378,-0.00003330780964461155,0.00024980856687761843
1761378680954870000,4.7018701171875,-0.0004996171337552369,-0.00023315467115025967,0.00016653904458507895
1761378680964896300,4.711896240234375,-0.0005995405954308808,-0.00008326952229253948,0.0001332312385784462
1761378680974922000,4.721921875,-0.00003330780964461155,-0.00011657733557512984,-0.0003497319994494319
1761378680984949000,4.731948974609375,0.0001332312385784462,-0.00016653904458507895,-0.00024980856687761843
1761378680994974700,4.741974609375,0.00046630934230051935,-0.0007660796400159597,-0.0002664624771568924
1761378681005001000,4.7520009765625,0.0000666156192892231,-0.00004996171628590673,0.0000666156192892231
1761378681015027500,4.76202734375,0.0004330015217419714,-0.00018319295486435294,-0.00046630934230051935
1761378681025058800,4.772058837890625,0.0003164241788908839,-0.0003330780891701579,0.00003330780964461155
1761378681035075300,4.782075439453125,0.0005995405954308808,0.000016653904822305776,0.00004996171628590673
1761378681045101000,4.79210107421875,0.0003164241788908839,0.00023315467115025967,-0.00023315467115025967
1761378681055119600,4.80211962890625,0.00019984686514362693,0.0005495788645930588,-0.0003497319994494319
1761378681065152300,4.81215234375,-0.0001498851488577202,-0.0003330780891701579,0.00008326952229253948
1761378681075136300,4.82213623046875,-0.0007827335502952337,0.00011657733557512984,-0.000016653904822305776
1761378681085203700,4.83220361328125,-0.00003330780964461155,-0.00024980856687761843,-0.00039969373028725386
1761378681095233000,4.84223291015625,-0.0011158116394653916,-0.0006495022680610418,0.00039969373028725386
1761378681105260000,4.852260009765625,-0.0007827335502952337,-0.00003330780964461155,0.00023315467115025967
1761378681115266800,4.862266845703125,-0.00038303982000797987,-0.00018319295486435294,-0.0004163476114626974
1761378681125324300,4.87232421875,-0.00024980856687761843,0.00009992343257181346,-0.00004996171628590673
1761378681135329800,4.882329833984375,-0.00009992343257181346,0.0007327718194574118,0.0003164241788908839
1761378681145357600,4.892357666015625,-0.00018319295486435294,-0.0005995405954308808,-0.0003663859097287059
1761378681155383000,4.902383056640625,-0.0005495788645930588,-0.00008326952229253948,0
1761378681165408800,4.91240869140625,-0.0007161179091781378,0.0003330780891701579,0.0007827335502952337
1761378681175434500,4.9224345703125,-0.0005329249543137848,0.00023315467115025967,0.00018319295486435294
1761378681185460200,4.932460205078125,-0.0006661561783403158,0.00018319295486435294,0.00044965543202124536
1761378681195485700,4.942485595703125,-0.0008660030434839427,0.0003497319994494319,0.00011657733557512984
1761378681205511200,4.95251123046875,-0.00003330780964461155,-0.00023315467115025967,0.00018319295486435294
1761378681215537000,4.962536865234375,-0.0003497319994494319,-0.00011657733557512984,-0.0004330015217419714
1761378681225545500,4.97254541015625,-0.0005162710440345109,0.00024980856687761843,0.00004996171628590673
1761378681235588400,4.98258837890625,-0.0003497319994494319,-0.0007827335502952337,0.0003164241788908839
1761378681245613800,4.99261376953125,-0.0006495022680610418,0.0003164241788908839,-0.00019984686514362693
1761378681255619000,5.002619140625,-0.00019984686514362693,0.00048296325257979333,0.00003330780964461155
1761378681265665000,5.0126650390625,0.00009992343257181346,-0.0005662327748723328,-0.0008160413126461208
1761378681275690800,5.022690673828125,-0.0001498851488577202,0.00011657733557512984,-0.0005662327748723328
1761378681285716500,5.032716552734375,-0.0005662327748723328,-0.00003330780964461155,-0.00003330780964461155
1761378681295742500,5.042742431640625,0.000016653904822305776,-0.0003497319994494319,0.0003164241788908839
1761378681305767700,5.052767578125,-0.0003497319994494319,0.00003330780964461155,0.0003663859097287059
1761378681315793400,5.06279345703125,-0.0002831163874361664,0.00011657733557512984,0.0006161945057101548
1761378681325819000,5.07281884765625,-0.0005162710440345109,-0.00009992343257181346,0.0006994639988988638
1761378681335844600,5.0828447265625,-0.0010325420880690217,-0.00018319295486435294,0.0005162710440345109
1761378681345870000,5.0928701171875,-0.0006828100886195898,0.00018319295486435294,0.0002831163874361664
1761378681355895800,5.102895751953125,-0.0006828100886195898,0,0.0008326952229253948
1761378681365922000,5.112922119140625,-0.0006161945057101548,0.0002664624771568924,0.0003330780891701579
1761378681375947300,5.122947265625,0,0.0002997702977154404,0.00039969373028725386
1761378681385972700,5.13297265625,-0.00003330780964461155,0.0005995405954308808,-0.00011657733557512984
1761378681396001300,5.143001220703125,0.00038303982000797987,0.0012323890114203095,-0.0002997702977154404
1761378681406024700,5.153024658203125,-0.0000666156192892231,0.00023315467115025967,-0.0002997702977154404
1761378681416049400,5.16304931640625,-0.0002664624771568924,-0.0001498851488577202,-0.0001498851488577202
1761378681426078700,5.17307861328125,-0.000016653904822305776,0.0002165007608709857,-0.0005162710440345109
1761378681436101000,5.18310107421875,-0.00039969373028725386,0.0002165007608709857,-0.0005828866851516068
1761378681446127000,5.193127197265625,-0.0002165007608709857,0.0002165007608709857,-0.0004330015217419714
1761378681456153000,5.203153076171875,0.0003663859097287059,-0.0003663859097287059,-0.0005662327748723328
1761378681466178000,5.213177978515625,-0.00016653904458507895,0.000016653904822305776,-0.0004330015217419714
1761378681476203500,5.22320361328125,-0.0003663859097287059,0.0006161945057101548,0.0008326952229253948
1761378681486232300,5.233232421875,-0.00004996171628590673,0.0002831163874361664,0.00003330780964461155
1761378681496259600,5.243259521484375,0.0005495788645930588,0.00003330780964461155,-0.00038303982000797987
1761378681506265900,5.253265869140625,0.00044965543202124536,0.00011657733557512984,0.0005995405954308808
1761378681516328700,5.26332861328125,0.00046630934230051935,0.0002831163874361664,0.0003497319994494319
1761378681526329600,5.27332958984375,-0.00009992343257181346,-0.0000666156192892231,0.000016653904822305776
1761378681536357600,5.283357666015625,-0.00024980856687761843,0.00044965543202124536,0.0005495788645930588
1761378681546383000,5.293383056640625,-0.0007993874605745077,-0.0011324655497446656,0.0005828866851516068
1761378681556408800,5.303408935546875,-0.00046630934230051935,-0.00019984686514362693,-0.000016653904822305776
1761378681566434300,5.313434326171875,-0.0002997702977154404,0.0008493491332046688,0.0004330015217419714
1761378681576460000,5.3234599609375,0.0003164241788908839,0.0001498851488577202,0.00004996171628590673
1761378681586485200,5.3334853515625,0.00011657733557512984,-0.0009659265051595867,0.0004330015217419714
1761378681596511200,5.34351123046875,-0.00023315467115025967,0.0010158881777897477,-0.0000666156192892231
1761378681606517800,5.353517822265625,-0.0004330015217419714,-0.0004163476114626974,-0.0007827335502952337
1761378681616562200,5.363562255859375,-0.00003330780964461155,-0.0007494257297366858,-0.0006828100886195898
1761378681626588700,5.373588623046875,-0.00039969373028725386,0.0008826569537632167,-0.00023315467115025967
1761378681636614100,5.3836142578125,-0.00019984686514362693,-0.0004163476114626974,-0.0004163476114626974
1761378681646640000,5.39364013671875,-0.0004330015217419714,-0.00019984686514362693,-0.00038303982000797987
1761378681656665000,5.4036650390625,-0.0005329249543137848,0.0009825803572311997,-0.0002165007608709857
1761378681666690800,5.41369091796875,-0.0002997702977154404,-0.00004996171628590673,-0.00008326952229253948
1761378681676716500,5.423716552734375,0.00003330780964461155,-0.0009825803572311997,0.0003330780891701579
1761378681686742000,5.433741943359375,-0.00048296325257979333,-0.00024980856687761843,0.0004163476114626974
1761378681696768000,5.44376806640625,-0.00019984686514362693,-0.000016653904822305776,0.00023315467115025967
1761378681706793500,5.45379345703125,-0.00044965543202124536,0.00018319295486435294,0.0005495788645930588
1761378681716819000,5.46381884765625,0.000016653904822305776,0.00024980856687761843,0.0005329249543137848
1761378681726844700,5.4738447265625,0.0004330015217419714,0.00039969373028725386,0.00008326952229253948
1761378681736870100,5.4838701171875,0.0003497319994494319,0.00003330780964461155,-0.0001498851488577202
1761378681746896600,5.493896728515625,0.0002165007608709857,0.0007660796400159597,-0.0006161945057101548
1761378681756885500,5.503885498046875,-0.0003164241788908839,0.0008660030434839427,-0.00009992343257181346
1761378681766947300,5.513947265625,-0.0003663859097287059,0.00024980856687761843,-0.00016653904458507895
1761378681776973600,5.5239736328125,-0.0007993874605745077,0.00038303982000797987,-0.00039969373028725386
1761378681786995700,5.53399560546875,-0.0008660030434839427,-0.0004330015217419714,-0.0002165007608709857
1761378681797006000,5.544006103515625,-0.0002831163874361664,0.00016653904458507895,-0.00019984686514362693
1761378681807050200,5.55405029296875,-0.00024980856687761843,-0.00008326952229253948,0.0007327718194574118
1761378681817075200,5.5640751953125,-0.0005162710440345109,0.00004996171628590673,0.0002831163874361664
1761378681827101200,5.57410107421875,-0.0002664624771568924,-0.0003497319994494319,0.0006994639988988638
1761378681837126700,5.584126708984375,0.0003164241788908839,-0.000016653904822305776,0.0002664624771568924
1761378681847152400,5.59415234375,-0.0003497319994494319,0,0.0004163476114626974
1761378681857177900,5.604177734375,-0.00018319295486435294,0.00003330780964461155,0.00039969373028725386
1761378681867203600,5.61420361328125,0,0.00023315467115025967,0.000016653904822305776
1761378681877232400,5.624232421875,-0.00008326952229253948,-0.0001498851488577202,0.00016653904458507895
1761378681887257300,5.63425732421875,0.00011657733557512984,0.00018319295486435294,0.0004163476114626974
1761378681897266400,5.644266357421875,0.00016653904458507895,0.0006994639988988638,-0.00024980856687761843
1761378681907329000,5.6543291015625,-0.0003164241788908839,-0.00044965543202124536,-0.0002997702977154404
1761378681917328400,5.664328369140625,-0.0005995405954308808,-0.00016653904458507895,-0.00023315467115025967
1761378681927357400,5.674357421875,0.00011657733557512984,-0.0003330780891701579,0.00003330780964461155
1761378681937383200,5.684383056640625,0.0003164241788908839,-0.0005495788645930588,0.0007327718194574118
1761378681947409000,5.694408935546875,-0.00018319295486435294,-0.0007993874605745077,-0.00003330780964461155
1761378681957416000,5.704416015625,-0.0002664624771568924,-0.00038303982000797987,-0.00024980856687761843
1761378681967459600,5.71445947265625,-0.00039969373028725386,-0.0005329249543137848,0.0002165007608709857
1761378681977485300,5.7244853515625,-0.0005162710440345109,-0.0002831163874361664,0.0004330015217419714
1761378681987490300,5.734490234375,-0.00016653904458507895,-0.00004996171628590673,-0.00023315467115025967
1761378681997538300,5.744538330078125,-0.00018319295486435294,0,0.0002165007608709857
1761378682007564500,5.754564453125,-0.0005329249543137848,-0.0002831163874361664,0.0005162710440345109
1761378682017588500,5.76458837890625,-0.0006994639988988638,0.00009992343257181346,0.00004996171628590673
1761378682027614500,5.774614501953125,-0.0006994639988988638,0.0002997702977154404,-0.0003164241788908839
1761378682037641500,5.784641357421875,-0.00039969373028725386,-0.0003164241788908839,-0.00011657733557512984
1761378682047667500,5.79466748046875,-0.00019984686514362693,-0.0005828866851516068,-0.0001332312385784462
1761378682057692700,5.804692626953125,-0.0004163476114626974,0.0003330780891701579,-0.00009992343257181346
1761378682067718100,5.81471826171875,-0.0002997702977154404,0.00048296325257979333,0.00019984686514362693
1761378682077743600,5.82474365234375,-0.0002664624771568924,0.0008493491332046688,0.0006994639988988638
1761378682087770400,5.834770263671875,0.0006495022680610418,0.0006328483577817678,-0.00016653904458507895
1761378682097795300,5.84479541015625,-0.00008326952229253948,0.00039969373028725386,-0.0006495022680610418
1761378682107820800,5.85482080078125,-0.0002831163874361664,0.00008326952229253948,-0.0001498851488577202
1761378682117841700,5.864841552734375,-0.00024980856687761843,-0.0003497319994494319,0.0007660796400159597
1761378682127871700,5.874871826171875,-0.0005162710440345109,-0.0001498851488577202,-0.000016653904822305776
1761378682137897200,5.884897216796875,-0.00004996171628590673,-0.00023315467115025967,0.00023315467115025967
1761378682147923500,5.89492333984375,-0.0008160413126461208,0.0002664624771568924,0.0001498851488577202
1761378682157927400,5.904927490234375,-0.0003330780891701579,-0.00019984686514362693,-0.0002165007608709857
1761378682167957000,5.91495703125,0.0006828100886195898,0.0002664624771568924,-0.0007161179091781378
1761378682178003000,5.9250029296875,-0.00009992343257181346,0.0006828100886195898,-0.0006328483577817678
1761378682188028200,5.935028076171875,-0.00008326952229253948,0.0007161179091781378,0.00018319295486435294
1761378682198051000,5.945051025390625,-0.0005662327748723328,0.0005995405954308808,0.0004163476114626974
1761378682208076500,5.95507666015625,-0.00038303982000797987,0.00008326952229253948,0.0008826569537632167
1761378682218102800,5.965102783203125,-0.0007660796400159597,-0.0005495788645930588,0.000016653904822305776
1761378682228128500,5.97512841796875,-0.0005662327748723328,-0.00004996171628590673,0.0003663859097287059
1761378682238122500,5.98512255859375,-0.00039969373028725386,0.00018319295486435294,-0.0003663859097287059
1761378682248180200,5.99518017578125,0.0001498851488577202,-0.00038303982000797987,0.0005995405954308808
1761378682258205200,6.005205078125,0.0010658499086275697,-0.00024980856687761843,0.0003663859097287059
1761378682268204500,6.01520458984375,0.0002997702977154404,0.00011657733557512984,-0.0010491959983482957
1761378682278259500,6.025259521484375,-0.00046630934230051935,0.000016653904822305776,-0.0010658499086275697
1761378682288260600,6.035260498046875,-0.0002831163874361664,0.0008326952229253948,-0.0005662327748723328
1761378682298285600,6.04528564453125,-0.0004996171337552369,0.0006828100886195898,-0.0002664624771568924
1761378682308342800,6.0553427734375,-0.00024980856687761843,-0.0004330015217419714,-0.0007161179091781378
1761378682318359000,6.065359130859375,-0.00009992343257181346,-0.0005662327748723328,-0.0003164241788908839
1761378682328384800,6.075384765625,0.00009992343257181346,0.0007660796400159597,-0.0006328483577817678
1761378682338414800,6.085414794921875,-0.00024980856687761843,-0.00044965543202124536,-0.00009992343257181346
1761378682348435500,6.095435546875,-0.00023315467115025967,-0.000016653904822305776,0.0003164241788908839
1761378682358461700,6.105461669921875,-0.00038303982000797987,0.00048296325257979333,0.00024980856687761843
1761378682368487200,6.115487060546875,-0.00044965543202124536,0.0005329249543137848,0.00009992343257181346
1761378682378513400,6.125513427734375,0,-0.00019984686514362693,0.00018319295486435294
1761378682388539000,6.135538818359375,0.00018319295486435294,0.00011657733557512984,0.00004996171628590673
1761378682398563300,6.145563232421875,0.00009992343257181346,0.00016653904458507895,0.000016653904822305776
1761378682408589800,6.15558984375,-0.00039969373028725386,-0.0003164241788908839,0.00003330780964461155
1761378682418615000,6.165614990234375,-0.0001332312385784462,0.0001332312385784462,0.00019984686514362693
1761378682428641800,6.175641845703125,-0.00023315467115025967,0.00016653904458507895,0.00009992343257181346
1761378682438651000,6.18565087890625,0.0001332312385784462,0.00008326952229253948,-0.0005162710440345109
1761378682448692200,6.195692138671875,-0.00018319295486435294,0.00048296325257979333,-0.0002664624771568924
1761378682458717700,6.2057177734375,0.0006661561783403158,0.0002831163874361664,-0.00024980856687761843
1761378682468733400,6.2157333984375,0.00038303982000797987,0.00039969373028725386,-0.00046630934230051935
1761378682478769700,6.225769775390625,0.0002165007608709857,-0.00008326952229253948,-0.0008493491332046688
1761378682488795600,6.235795654296875,0.0006828100886195898,0.0000666156192892231,-0.0013489662669599056
1761378682498821000,6.245821044921875,-0.00004996171628590673,0.0006661561783403158,0.0000666156192892231
1761378682508846300,6.255846435546875,0.00008326952229253948,0.00011657733557512984,-0.00011657733557512984
1761378682518871000,6.26587109375,-0.0005662327748723328,-0.0010825038189068437,0.00008326952229253948
1761378682528898000,6.27589794921875,-0.0003330780891701579,0.00008326952229253948,0.0006661561783403158
1761378682538922800,6.2859228515625,-0.0010658499086275697,-0.00023315467115025967,0.0005828866851516068
1761378682548951800,6.295951904296875,0,-0.00023315467115025967,0.00044965543202124536
1761378682558975200,6.305975341796875,-0.00044965543202124536,0.0004163476114626974,0.0008160413126461208
1761378682569004500,6.316004638671875,0,-0.0004996171337552369,0.00016653904458507895
1761378682579027200,6.326027099609375,0,-0.0005662327748723328,0.00044965543202124536
1761378682589051100,6.336051025390625,0.0007161179091781378,0.0005995405954308808,0.0001498851488577202
1761378682599078000,6.346077880859375,0.0000666156192892231,-0.00019984686514362693,-0.00008326952229253948
1761378682609101800,6.356101806640625,-0.000016653904822305776,0.0000666156192892231,-0.0002997702977154404
1761378682619128000,6.366128173828125,-0.00039969373028725386,0.0009492725948803127,-0.00023315467115025967
1761378682629153800,6.37615380859375,-0.00024980856687761843,-0.0007327718194574118,-0.0005662327748723328
1761378682639166200,6.386166259765625,-0.0005495788645930588,-0.0005495788645930588,-0.00024980856687761843
1761378682649183000,6.396182861328125,0.000016653904822305776,0.0005329249543137848,0
1761378682659235000,6.406235107421875,-0.00019984686514362693,-0.000016653904822305776,0.0005828866851516068
1761378682669239800,6.41623974609375,-0.00009992343257181346,-0.0005828866851516068,-0.00011657733557512984
1761378682679270400,6.4262705078125,-0.0006495022680610418,-0.00008326952229253948,0.0000666156192892231
1761378682689285000,6.43628515625,-0.0006994639988988638,-0.0007993874605745077,0.00009992343257181346
1761378682699336700,6.446336669921875,0.00044965543202124536,-0.0007494257297366858,0.00009992343257181346
1761378682709358800,6.45635888671875,-0.00039969373028725386,0.0009825803572311997,0.0000666156192892231
1761378682719383600,6.466383544921875,0.0003164241788908839,-0.00008326952229253948,0.00039969373028725386
1761378682729409500,6.476409423828125,0.00044965543202124536,0.000016653904822305776,0.00008326952229253948
1761378682739436300,6.486436279296875,0.0004163476114626974,0.0007660796400159597,-0.00011657733557512984
1761378682749462000,6.4964619140625,-0.00024980856687761843,0.0007161179091781378,0.00009992343257181346
1761378682759487500,6.506487548828125,-0.0003330780891701579,-0.00008326952229253948,0.0000666156192892231
1761378682769512200,6.51651220703125,0.0004330015217419714,0.00008326952229253948,0.00011657733557512984
1761378682779538700,6.52653857421875,0.0005329249543137848,0.0009825803572311997,-0.0005329249543137848
1761378682789564200,6.536564208984375,-0.0003164241788908839,0.0002997702977154404,-0.0009825803572311997
1761378682799573500,6.546573486328125,0.0001498851488577202,0.00048296325257979333,-0.000016653904822305776
1761378682809616000,6.556615966796875,0.0005162710440345109,0.00019984686514362693,-0.00009992343257181346
1761378682819620900,6.566620849609375,-0.00004996171628590673,-0.0004330015217419714,-0.0010158881777897477
1761378682829665800,6.576665771484375,-0.000016653904822305776,0.00024980856687761843,-0.0003164241788908839
1761378682839693800,6.58669384765625,0.0006161945057101548,-0.0005329249543137848,-0.00003330780964461155
1761378682849718800,6.59671875,0.0006328483577817678,-0.0003164241788908839,0.0002997702977154404
1761378682859743000,6.606742919921875,0.00008326952229253948,0.0005329249543137848,-0.000016653904822305776
1761378682869769200,6.616769287109375,-0.00019984686514362693,-0.0005329249543137848,-0.00009992343257181346
1761378682879795200,6.626795166015625,-0.00038303982000797987,-0.0002664624771568924,0.00023315467115025967
1761378682889819600,6.636819580078125,0.00019984686514362693,-0.0003164241788908839,-0.00008326952229253948
1761378682899845400,6.646845458984375,-0.000016653904822305776,-0.00008326952229253948,0.0004163476114626974
1761378682909871900,6.656871826171875,-0.0003330780891701579,0.00018319295486435294,0.0007993874605745077
1761378682919899000,6.66689892578125,0.0003164241788908839,0.0006161945057101548,0.00011657733557512984
1761378682929923300,6.67692333984375,0.00039969373028725386,0.00048296325257979333,-0.0003330780891701579
1761378682939952600,6.68695263671875,0.0003663859097287059,0.0005162710440345109,-0.0003497319994494319
1761378682949975300,6.696975341796875,0.00009992343257181346,0.00004996171628590673,0.0004163476114626974
1761378682960002800,6.7070029296875,-0.00004996171628590673,0.0003330780891701579,0.0001498851488577202
1761378682970027000,6.717027099609375,-0.00009992343257181346,-0.00048296325257979333,-0.0001498851488577202
1761378682980051700,6.7270517578125,-0.0005329249543137848,0,-0.00011657733557512984
1761378682990076700,6.73707666015625,-0.0008160413126461208,-0.0008493491332046688,-0.00023315467115025967
1761378683000117000,6.747116943359375,-0.0005162710440345109,0.00003330780964461155,0.0003330780891701579
1761378683010127400,6.75712744140625,0.00024980856687761843,-0.0002831163874361664,-0.0005495788645930588
1761378683020155100,6.767155029296875,-0.00019984686514362693,-0.0005995405954308808,-0.00038303982000797987
1761378683030178600,6.777178466796875,-0.0004163476114626974,0.00016653904458507895,0.00016653904458507895
1761378683040205800,6.787205810546875,-0.00011657733557512984,0.0005662327748723328,0.0003497319994494319
1761378683050233900,6.79723388671875,-0.0007494257297366858,0,-0.00038303982000797987
1761378683060263400,6.807263427734375,-0.0002831163874361664,0.0000666156192892231,-0.0006994639988988638
1761378683070271200,6.817271240234375,0.0000666156192892231,0.0002831163874361664,0.0003330780891701579
1761378683080286000,6.827285888671875,0.00024980856687761843,-0.00048296325257979333,-0.00023315467115025967
1761378683090343000,6.837343017578125,0.00023315467115025967,-0.0003330780891701579,-0.0002997702977154404
1761378683100359700,6.847359619140625,0.00024980856687761843,-0.0004163476114626974,-0.0004163476114626974
1761378683110384400,6.85738427734375,0.0003497319994494319,0.0002997702977154404,-0.00024980856687761843
1761378683120410400,6.867410400390625,0.0007494257297366858,-0.0005162710440345109,-0.0004996171337552369
1761378683130435800,6.877435791015625,-0.0002664624771568924,-0.0002664624771568924,0.0009659265051595867
1761378683140461800,6.8874619140625,0.00011657733557512984,-0.0006495022680610418,0.00011657733557512984
1761378683150488000,6.897488037109375,0.00011657733557512984,-0.0001332312385784462,-0.0003497319994494319
1761378683160512000,6.907511962890625,-0.0003497319994494319,0.00024980856687761843,-0.00003330780964461155
1761378683170523400,6.9175234375,-0.0007993874605745077,0.0003330780891701579,-0.0002997702977154404
1761378683180563500,6.9275634765625,-0.0006328483577817678,0.00024980856687761843,0.0003497319994494319
1761378683190588700,6.937588623046875,-0.00011657733557512984,-0.0003497319994494319,-0.0004330015217419714
1761378683200616400,6.947616455078125,-0.0005329249543137848,-0.0007327718194574118,0.0008326952229253948
1761378683210641400,6.957641357421875,0.0004996171337552369,0,0.0003164241788908839
1761378683220667100,6.967667236328125,-0.00003330780964461155,0.00016653904458507895,0.0005495788645930588
1761378683230692400,6.9776923828125,-0.00003330780964461155,0.00019984686514362693,0.0007161179091781378
1761378683240717300,6.98771728515625,0.0006328483577817678,-0.00046630934230051935,0.0008826569537632167
1761378683250743000,6.997742919921875,0.00038303982000797987,0.0005828866851516068,0.0002664624771568924
1761378683260768500,7.0077685546875,-0.0003330780891701579,0.00048296325257979333,0.0001498851488577202
1761378683270772700,7.017772705078125,0.00024980856687761843,-0.0006828100886195898,-0.0007161179091781378
1761378683280820500,7.027820556640625,-0.00019984686514362693,-0.0001332312385784462,-0.0005995405954308808
1761378683290847000,7.037846923828125,0.00011657733557512984,-0.00004996171628590673,-0.00024980856687761843
1761378683300872700,7.047872802734375,-0.0002165007608709857,-0.0012323890114203095,0.00004996171628590673
1761378683310898400,7.0578984375,-0.0000666156192892231,-0.00009992343257181346,-0.00003330780964461155
1761378683320924000,7.067923828125,0.0007327718194574118,0.0011824272805824876,-0.0010491959983482957
1761378683330927400,7.07792724609375,-0.00003330780964461155,-0.00003330780964461155,-0.0003663859097287059
1761378683340975600,7.0879755859375,-0.0003330780891701579,-0.0004330015217419714,-0.0012157351011410356
1761378683351000800,7.098000732421875,0.0001498851488577202,0.0000666156192892231,-0.00016653904458507895
1761378683361003500,7.10800341796875,0.00008326952229253948,-0.00004996171628590673,0.0009992342675104737
1761378683371029000,7.118029052734375,-0.0007161179091781378,-0.00046630934230051935,0.0007494257297366858
1761378683381078000,7.128078125,-0.0003663859097287059,-0.00019984686514362693,0.00018319295486435294
1761378683391103200,7.138103271484375,-0.00039969373028725386,0.00023315467115025967,0.0008493491332046688
1761378683401128000,7.1481279296875,-0.0003497319994494319,-0.00008326952229253948,0.00009992343257181346
1761378683411155000,7.158155029296875,-0.0000666156192892231,0.00018319295486435294,0.00008326952229253948
1761378683421180200,7.16818017578125,0.0009326186846010387,0.000016653904822305776,-0.00023315467115025967
1761378683431206100,7.1782060546875,0.0005162710440345109,-0.0005329249543137848,0.00011657733557512984
1761378683441232000,7.18823193359375,0.0006495022680610418,0.0002165007608709857,0.0002997702977154404
1761378683451257000,7.198257080078125,0.00019984686514362693,0.000016653904822305776,0.0007161179091781378
1761378683461282600,7.208282470703125,0.00009992343257181346,-0.0001498851488577202,-0.0005329249543137848
1761378683471308300,7.218308349609375,-0.00003330780964461155,-0.00004996171628590673,-0.00046630934230051935
1761378683481335000,7.2283349609375,0.0010158881777897477,0.0001498851488577202,-0.0007161179091781378
1761378683491360500,7.238360595703125,0.0009326186846010387,-0.00038303982000797987,-0.0005162710440345109
1761378683501363200,7.24836328125,0.0001498851488577202,-0.00019984686514362693,-0.0012823506258428097
1761378683511410700,7.25841064453125,0.00038303982000797987,0.0004996171337552369,-0.0006328483577817678
1761378683521436700,7.268436767578125,-0.00009992343257181346,0.00004996171628590673,0.0006495022680610418
1761378683531438600,7.2784384765625,-0.0004163476114626974,0.0005495788645930588,-0.0001332312385784462
1761378683541487900,7.28848779296875,-0.0008493491332046688,-0.0013822740875184536,0.00003330780964461155
1761378683551513000,7.29851318359375,0.00008326952229253948,-0.00018319295486435294,0.0004163476114626974
1761378683561539300,7.308539306640625,-0.0005329249543137848,-0.0001498851488577202,0.00044965543202124536
1761378683571565000,7.31856494140625,-0.0000666156192892231,0.00003330780964461155,0.0000666156192892231
1761378683581590800,7.3285908203125,0.00018319295486435294,-0.00004996171628590673,0.0008493491332046688
1761378683591616500,7.338616455078125,-0.00011657733557512984,-0.0003663859097287059,-0.00044965543202124536
1761378683601640700,7.348640625,0,0.0004163476114626974,-0.0011491194600239396
1761378683611666200,7.358666259765625,0.0008493491332046688,0.0011324655497446656,-0.0004163476114626974
1761378683621692700,7.368692626953125,0.0007827335502952337,0.0000666156192892231,-0.0004330015217419714
1761378683631718700,7.37871875,0.0005162710440345109,-0.0002664624771568924,-0.00003330780964461155
1761378683641744000,7.388743896484375,0.00016653904458507895,0.0003330780891701579,-0.0003330780891701579
1761378683651769000,7.39876904296875,-0.0006495022680610418,-0.0008326952229253948,-0.00044965543202124536
1761378683661795300,7.40879541015625,0.00008326952229253948,-0.0011824272805824876,0.0007494257297366858
1761378683671821600,7.418821533203125,-0.00011657733557512984,0.00004996171628590673,0.0002997702977154404
1761378683681846800,7.4288466796875,-0.00003330780964461155,0.0003663859097287059,0.00038303982000797987
1761378683691872500,7.43887255859375,0.0009159647743217647,-0.00003330780964461155,0.0006828100886195898
1761378683701874400,7.44887451171875,-0.0002664624771568924,0.0007494257297366858,-0.000016653904822305776
1761378683711926000,7.458926025390625,0.0003330780891701579,0.0007494257297366858,-0.00004996171628590673
1761378683721949200,7.46894921875,0.00019984686514362693,-0.00038303982000797987,0.00046630934230051935
1761378683731951900,7.478951904296875,-0.0006495022680610418,-0.00008326952229253948,0.00019984686514362693
1761378683742000400,7.48900048828125,-0.0010325420880690217,-0.0004996171337552369,0.0008160413126461208
1761378683752026000,7.499026123046875,-0.0005995405954308808,-0.0007660796400159597,0.00011657733557512984
1761378683762051600,7.509051513671875,-0.0001332312385784462,-0.00023315467115025967,-0.0002997702977154404
1761378683772079400,7.519079345703125,-0.00016653904458507895,0.00011657733557512984,0.0003497319994494319
1761378683782104600,7.5291044921875,-0.00024980856687761843,0,0.0005162710440345109
1761378683792132000,7.539132080078125,0.0002165007608709857,0.00011657733557512984,-0.0006161945057101548
1761378683802154200,7.549154296875,-0.00018319295486435294,0.00024980856687761843,-0.00038303982000797987
1761378683812183300,7.559183349609375,0.0006328483577817678,0.0006994639988988638,-0.0004330015217419714
1761378683822206000,7.5692060546875,0.0007993874605745077,0.00009992343257181346,0.00009992343257181346
1761378683832230700,7.579230712890625,0.0007327718194574118,0.00004996171628590673,-0.00018319295486435294
1761378683842256400,7.58925634765625,-0.0003164241788908839,-0.0005995405954308808,-0.0000666156192892231
1761378683852282600,7.59928271484375,-0.0004330015217419714,-0.00048296325257979333,-0.00009992343257181346
1761378683862285000,7.60928515625,-0.00048296325257979333,-0.0008326952229253948,0.0001498851488577202
1761378683872333600,7.61933349609375,-0.0007993874605745077,0.00044965543202124536,0.0003663859097287059
1761378683882359800,7.62935986328125,-0.0005828866851516068,0.00023315467115025967,0.00023315467115025967
1761378683892385300,7.63938525390625,-0.00044965543202124536,-0.0003330780891701579,-0.0004163476114626974
1761378683902412500,7.64941259765625,0.0002664624771568924,-0.00008326952229253948,0.00039969373028725386
1761378683912439600,7.659439453125,-0.000016653904822305776,0.00038303982000797987,0.0003330780891701579
1761378683922462200,7.669462158203125,-0.00008326952229253948,-0.0003164241788908839,-0.00009992343257181346
1761378683932487000,7.67948681640625,0.0005662327748723328,0.00003330780964461155,-0.0003164241788908839
1761378683942512400,7.689512451171875,0.00038303982000797987,-0.0010491959983482957,-0.0005162710440345109
1761378683952538600,7.69953857421875,0.0008326952229253948,-0.0004330015217419714,-0.0003497319994494319
1761378683962564000,7.709564208984375,-0.0007494257297366858,-0.0006994639988988638,0.0001498851488577202
1761378683972589300,7.71958935546875,0.0000666156192892231,-0.0002165007608709857,-0.00018319295486435294
1761378683982615800,7.72961572265625,0.00004996171628590673,0.000016653904822305776,-0.0000666156192892231
1761378683992641300,7.739641357421875,-0.0006161945057101548,-0.00024980856687761843,-0.00011657733557512984
1761378684002667500,7.74966748046875,-0.00039969373028725386,0.0003164241788908839,-0.0002997702977154404
1761378684012692500,7.7596923828125,0.0005495788645930588,0.0004330015217419714,0.0005495788645930588
1761378684022717700,7.7697177734375,-0.0001498851488577202,0.00018319295486435294,0.0006328483577817678
1761378684032746000,7.77974609375,0.00039969373028725386,0,-0.00009992343257181346
1761378684042770400,7.7897705078125,0.00009992343257181346,-0.0003497319994494319,-0.00018319295486435294
1761378684052794400,7.79979443359375,0.0004996171337552369,0,0.000016653904822305776
1761378684062815500,7.8098154296875,0.0006161945057101548,0.00024980856687761843,0.0009659265051595867
1761378684072846800,7.819846923828125,0.0004996171337552369,0.00038303982000797987,0.0007327718194574118
1761378684082862600,7.829862548828125,0,0.000016653904822305776,0.0007660796400159597
1761378684092898000,7.83989794921875,-0.0004996171337552369,-0.00044965543202124536,0.0005995405954308808
1761378684102923500,7.849923583984375,0.0000666156192892231,0.0002997702977154404,0.00004996171628590673
1761378684112948700,7.85994873046875,-0.0002997702977154404,-0.000016653904822305776,-0.00003330780964461155
1761378684122974700,7.869974609375,0.00044965543202124536,-0.0005828866851516068,-0.00004996171628590673
1761378684132978200,7.879978271484375,-0.00023315467115025967,-0.0001332312385784462,-0.0002165007608709857
1761378684143026700,7.890026611328125,0.0005828866851516068,0.0003330780891701579,0.0003330780891701579
1761378684153051000,7.90005078125,0.0010158881777897477,0.0008326952229253948,0.00023315467115025967
1761378684163077600,7.91007763671875,0.0007494257297366858,-0.0002831163874361664,-0.0003663859097287059
1761378684173103400,7.920103271484375,-0.0001498851488577202,-0.00008326952229253948,0
1761378684183128600,7.930128662109375,-0.0009659265051595867,0.03305800259113312,0.01612097956240177
1761378684193155300,7.9401552734375,-0.0011491194600239396,0.056839779019355774,0.012423813343048096
1761378684203179800,7.9501796875,-0.00018319295486435294,0.023915007710456848,0.012307235971093178
1761378684213206000,7.9602060546875,-0.0007494257297366858,0.01160777173936367,0.011341309174895287
1761378684223231200,7.970231201171875,-0.0004163476114626974,0.014122511260211468,-0.0025813551619648933
1761378684233217500,7.980217529296875,0.00019984686514362693,-0.00987576600164175,0.0009326186846010387
1761378684243283000,7.990282958984375,0.0002831163874361664,-0.011890888214111328,-0.006028713658452034
1761378684253308200,8.00030810546875,0.0008326952229253948,-0.007277756463736296,-0.006028713658452034
1761378684263339000,8.010339111328125,0.0015654671005904675,-0.02906106412410736,-0.011141462251543999
1761378684273359400,8.020359375,0.0019818146247416735,-0.039852794259786606,-0.01269027590751648
1761378684283384000,8.030384033203125,0.0007327718194574118,-0.02241615578532219,-0.0074942572973668575
1761378684293410300,8.040410400390625,0.0005828866851516068,-0.004363323096185923,0.0001498851488577202
1761378684303413500,8.05041357421875,-0.0005828866851516068,0.002431470202282071,-0.002448124112561345
