time,seconds_elapsed,z,y,x
1761379056023482600,0.106482666015625,0.00004996171628590673,-0.00024980856687761843,0.0010158881777897477
1761379056033487400,0.1164873046875,-0.0007494257297366858,-0.0002165007608709857,-0.0008660030434839427
1761379056043497000,0.1264970703125,-0.0008160413126461208,0.0013989279977977276,0.0004330015217419714
1761379056053562000,0.13656201171875,0.0003330780891701579,-0.00004996171628590673,0.000016653904822305776
1761379056063587800,0.146587890625,-0.0000666156192892231,-0.0005162710440345109,0.0003330780891701579
1761379056073614300,0.1566142578125,-0.0006828100886195898,0.0006495022680610418,-0.0000666156192892231
1761379056083639300,0.166639404296875,0.00023315467115025967,0.0000666156192892231,0.00009992343257181346
1761379056093666300,0.176666259765625,0.00008326952229253948,-0.0005828866851516068,-0.0004330015217419714
1761379056103691800,0.18669189453125,0.0003497319994494319,-0.00046630934230051935,0.00018319295486435294
1761379056113717500,0.196717529296875,-0.00039969373028725386,-0.00046630934230051935,0.0004163476114626974
1761379056123744300,0.206744140625,0.0005162710440345109,0.0006661561783403158,-0.00023315467115025967
1761379056133772300,0.216772216796875,0.0012990045361220837,0.00016653904458507895,-0.0001498851488577202
1761379056143820800,0.22682080078125,0.0008493491332046688,0.0001498851488577202,-0.0007660796400159597
1761379056153823200,0.2368232421875,0.0006161945057101548,0.0003164241788908839,-0.0007660796400159597
1761379056163852500,0.2468525390625,0.0002165007608709857,-0.000016653904822305776,-0.0013156584464013577
1761379056173858600,0.256858642578125,0.0002165007608709857,-0.0002664624771568924,-0.00044965543202124536
1761379056183891200,0.26689111328125,0.0003663859097287059,0.0001498851488577202,-0.00023315467115025967
1761379056193954800,0.276954833984375,0.000016653904822305776,-0.00048296325257979333,-0.0003330780891701579
1761379056203955200,0.286955078125,0.0000666156192892231,0.0003663859097287059,0.00008326952229253948
1761379056213980400,0.29698046875,-0.00038303982000797987,-0.0005662327748723328,0.0014155819080770016
1761379056224006700,0.307006591796875,-0.0007660796400159597,-0.0006661561783403158,0.0012157351011410356
1761379056234033000,0.317032958984375,0.0000666156192892231,-0.0005495788645930588,0.0010825038189068437
1761379056244059100,0.32705908203125,0.0000666156192892231,-0.0006161945057101548,0.0004996171337552369
1761379056254085400,0.33708544921875,-0.0000666156192892231,-0.0002165007608709857,0.0005162710440345109
1761379056264111900,0.34711181640625,-0.0005162710440345109,0.0002664624771568924,-0.0002831163874361664
1761379056274137900,0.357137939453125,0.0001332312385784462,0.0000666156192892231,0.00024980856687761843
1761379056284164400,0.367164306640625,0.0008160413126461208,0.00008326952229253948,-0.0006495022680610418
1761379056294190600,0.377190673828125,-0.00003330780964461155,0.0002997702977154404,-0.00038303982000797987
1761379056304201700,0.38720166015625,-0.0005495788645930588,-0.0005329249543137848,-0.0007660796400159597
1761379056314242800,0.397242919921875,-0.00004996171628590673,-0.0006661561783403158,-0.0004996171337552369
1761379056324269000,0.40726904296875,0.000016653904822305776,-0.0003164241788908839,-0.0003164241788908839
1761379056334295300,0.41729541015625,0,0.00046630934230051935,0.0002664624771568924
1761379056344322300,0.427322265625,0.0002664624771568924,-0.0002165007608709857,-0.0005162710440345109
1761379056354348300,0.437348388671875,0.00023315467115025967,0.00038303982000797987,0.00008326952229253948
1761379056364374300,0.447374267578125,-0.00009992343257181346,0.0008993108640424907,0.0003663859097287059
1761379056374400800,0.45740087890625,0.0004330015217419714,-0.0014322358183562756,0.00011657733557512984
1761379056384426500,0.467426513671875,0.0001332312385784462,0.0003497319994494319,0.0010658499086275697
1761379056394453000,0.477452880859375,0.00039969373028725386,0.00044965543202124536,0.0002664624771568924
1761379056404479000,0.48747900390625,0,-0.0008326952229253948,-0.0004330015217419714
1761379056414505500,0.49750537109375,-0.0004996171337552369,0.0000666156192892231,-0.0001498851488577202
1761379056424532500,0.507532470703125,-0.00018319295486435294,0,-0.0001498851488577202
1761379056434558000,0.517557861328125,0.00016653904458507895,-0.0005162710440345109,0.00018319295486435294
1761379056444585200,0.527585205078125,-0.0003330780891701579,0.00004996171628590673,-0.0002831163874361664
1761379056454610700,0.537610595703125,0.0003663859097287059,-0.00024980856687761843,-0.0003497319994494319
1761379056464636700,0.54763671875,0.0003164241788908839,0.00009992343257181346,0.00019984686514362693
1761379056474666000,0.557666015625,0.0005995405954308808,0.0011324655497446656,0.0005995405954308808
1761379056484689200,0.567689208984375,0.0002165007608709857,-0.0002165007608709857,-0.00011657733557512984
1761379056494715400,0.57771533203125,0.0009326186846010387,0.00016653904458507895,-0.0002165007608709857
1761379056504723700,0.5877236328125,0.00039969373028725386,0.0003164241788908839,-0.00011657733557512984
1761379056514767600,0.597767578125,-0.00011657733557512984,-0.00039969373028725386,-0.0004163476114626974
1761379056524795000,0.607794921875,-0.00004996171628590673,-0.00016653904458507895,0.00003330780964461155
1761379056534820400,0.6178203125,-0.00023315467115025967,0.0003330780891701579,0.0008326952229253948
1761379056544851000,0.627850830078125,0.0003330780891701579,-0.00011657733557512984,-0.0001332312385784462
1761379056554877000,0.637876953125,0.0006994639988988638,-0.0004330015217419714,0.0005828866851516068
1761379056564891600,0.6478916015625,0.00003330780964461155,0.000016653904822305776,0.00039969373028725386
1761379056574905000,0.657905029296875,0.0001498851488577202,-0.00018319295486435294,0.0004330015217419714
1761379056584956000,0.667955810546875,-0.00044965543202124536,-0.00011657733557512984,0.0006328483577817678
1761379056594977500,0.6779775390625,-0.0003663859097287059,-0.00004996171628590673,0.0006495022680610418
1761379056605004000,0.688004150390625,-0.0007660796400159597,-0.0007327718194574118,-0.00004996171628590673
1761379056615030300,0.6980302734375,-0.00019984686514362693,-0.0005828866851516068,-0.00004996171628590673
1761379056625056500,0.708056396484375,-0.00046630934230051935,0.0005828866851516068,0.00003330780964461155
1761379056635082800,0.718082763671875,0.0002165007608709857,0.0000666156192892231,-0.0004996171337552369
1761379056645108700,0.728108642578125,0.0002664624771568924,-0.00003330780964461155,-0.00038303982000797987
1761379056655155200,0.7381552734375,0.00018319295486435294,-0.00003330780964461155,-0.0002664624771568924
1761379056665161700,0.74816162109375,0.00008326952229253948,0,0.0000666156192892231
1761379056675168300,0.758168212890625,0.0003497319994494319,0.00008326952229253948,0.0005662327748723328
1761379056685214200,0.768214111328125,-0.00008326952229253948,-0.0003663859097287059,0.00008326952229253948
1761379056695240400,0.778240478515625,-0.0002165007608709857,-0.0008160413126461208,-0.00008326952229253948
1761379056705230800,0.78823095703125,0.0001498851488577202,-0.0001498851488577202,0.00024980856687761843
1761379056715292400,0.79829248046875,-0.00011657733557512984,0.00039969373028725386,0.0002997702977154404
1761379056725319000,0.80831884765625,0.00038303982000797987,0.0005662327748723328,0.0007827335502952337
1761379056735345200,0.81834521484375,-0.00044965543202124536,-0.0001498851488577202,0.0005162710440345109
1761379056745371400,0.828371337890625,-0.0008326952229253948,-0.0001498851488577202,0.0002664624771568924
1761379056755398000,0.83839794921875,0.00046630934230051935,-0.0007494257297366858,0.0002165007608709857
1761379056765424000,0.848424072265625,0.0002165007608709857,-0.0003164241788908839,0.0001332312385784462
1761379056775450400,0.858450439453125,-0.00039969373028725386,-0.0002165007608709857,0.00018319295486435294
1761379056785476600,0.8684765625,-0.00011657733557512984,-0.00046630934230051935,-0.0005162710440345109
1761379056795502600,0.878502685546875,-0.00008326952229253948,-0.0006161945057101548,0.00019984686514362693
1761379056805512000,0.888511962890625,-0.0008160413126461208,0.00009992343257181346,-0.00004996171628590673
1761379056815555000,0.89855517578125,-0.00024980856687761843,0.00038303982000797987,-0.0004330015217419714
1761379056825582800,0.908582763671875,-0.000016653904822305776,-0.0005828866851516068,-0.00044965543202124536
1761379056835611600,0.918611572265625,-0.00023315467115025967,-0.0008326952229253948,0.00009992343257181346
1761379056845635800,0.9286357421875,-0.00009992343257181346,0.000016653904822305776,0.0000666156192892231
1761379056855660000,0.938659912109375,0.00044965543202124536,0.00004996171628590673,-0.0003164241788908839
1761379056865686500,0.9486865234375,-0.0001498851488577202,-0.0001498851488577202,0.0005329249543137848
1761379056875713500,0.958713623046875,-0.0000666156192892231,-0.0001332312385784462,0.0008660030434839427
1761379056885720000,0.968719970703125,0,-0.00009992343257181346,-0.0004163476114626974
1761379056895765200,0.97876513671875,-0.0003164241788908839,-0.0009326186846010387,0.00024980856687761843
1761379056905792000,0.9887919921875,-0.0005828866851516068,-0.00038303982000797987,-0.00004996171628590673
1761379056915817200,0.998817138671875,0,0.00023315467115025967,-0.0002831163874361664
1761379056925847800,1.008847900390625,-0.00048296325257979333,-0.0003663859097287059,0.00004996171628590673
1761379056935873500,1.01887353515625,-0.0006161945057101548,0.0002165007608709857,0.0002831163874361664
1761379056945891300,1.028891357421875,-0.00011657733557512984,-0.0004996171337552369,0.00008326952229253948
1761379056955902000,1.03890185546875,0.0004996171337552369,0.0007827335502952337,0.00023315467115025967
1761379056965955800,1.048955810546875,0.00039969373028725386,0.0009825803572311997,0.00048296325257979333
1761379056975975200,1.05897509765625,0.0001332312385784462,-0.0002664624771568924,0.00046630934230051935
1761379056986001200,1.069001220703125,0.0002165007608709857,0.0005329249543137848,0.00003330780964461155
1761379056996027600,1.079027587890625,0.00003330780964461155,0.0003164241788908839,0.00011657733557512984
1761379057006075600,1.08907568359375,0.00048296325257979333,0.00038303982000797987,-0.0007327718194574118
1761379057016080100,1.099080078125,0.00018319295486435294,-0.00011657733557512984,-0.0009992342675104737
1761379057026106400,1.1091064453125,-0.00044965543202124536,-0.00019984686514362693,-0.00048296325257979333
1761379057036112000,1.11911181640625,-0.0003330780891701579,0.0002997702977154404,0.00024980856687761843
1761379057046158300,1.129158447265625,-0.00004996171628590673,0.00023315467115025967,-0.0002165007608709857
1761379057056185600,1.139185546875,0.00004996171628590673,-0.0001332312385784462,-0.0005495788645930588
1761379057066211300,1.14921142578125,0.000016653904822305776,-0.00008326952229253948,-0.0001498851488577202
1761379057076238300,1.15923828125,0.00044965543202124536,-0.0002664624771568924,0.0000666156192892231
1761379057086263800,1.169263916015625,-0.00008326952229253948,-0.0002831163874361664,-0.0005162710440345109
1761379057096290000,1.1792900390625,0.0004330015217419714,-0.00038303982000797987,-0.0005329249543137848
1761379057106316000,1.18931591796875,0.0002664624771568924,0.00003330780964461155,-0.0003330780891701579
1761379057116342500,1.199342529296875,0.00003330780964461155,-0.0002664624771568924,0.0001332312385784462
1761379057126369300,1.209369384765625,0.00011657733557512984,-0.00023315467115025967,0.00009992343257181346
1761379057136395300,1.219395263671875,0.0004330015217419714,-0.00016653904458507895,-0.00046630934230051935
1761379057146421500,1.22942138671875,-0.00038303982000797987,-0.0004996171337552369,0.0006328483577817678
1761379057156448000,1.239447998046875,-0.00044965543202124536,-0.0007993874605745077,0.00023315467115025967
1761379057166473700,1.2494736328125,-0.0002664624771568924,0.0003330780891701579,0.00039969373028725386
1761379057176500200,1.259500244140625,0,-0.00023315467115025967,-0.0001498851488577202
1761379057186527000,1.26952685546875,-0.00004996171628590673,0.0006661561783403158,-0.0003330780891701579
1761379057196552400,1.279552490234375,-0.0000666156192892231,-0.00023315467115025967,-0.00038303982000797987
1761379057206558200,1.28955810546875,0.00019984686514362693,0.00016653904458507895,0.0003497319994494319
1761379057216605400,1.29960546875,-0.0003663859097287059,-0.0006828100886195898,-0.00004996171628590673
1761379057226633000,1.309633056640625,-0.00018319295486435294,-0.0001332312385784462,-0.0002664624771568924
1761379057236658200,1.319658203125,-0.0002165007608709857,-0.00011657733557512984,-0.00011657733557512984
1761379057246684000,1.329683837890625,0.00011657733557512984,-0.0004996171337552369,-0.0007161179091781378
1761379057256693500,1.339693603515625,0.00011657733557512984,-0.0004163476114626974,0.0003330780891701579
1761379057266737000,1.34973681640625,0.0005828866851516068,-0.0003497319994494319,-0.0006328483577817678
1761379057276763100,1.35976318359375,0.00038303982000797987,0.00004996171628590673,-0.0003330780891701579
1761379057286789000,1.3697890625,0,-0.0000666156192892231,-0.0009825803572311997
1761379057296815000,1.379815185546875,0.0007327718194574118,-0.0001332312385784462,-0.00024980856687761843
1761379057306840800,1.3898408203125,0.00039969373028725386,0.0006328483577817678,-0.0002664624771568924
1761379057316869600,1.39986962890625,0.00004996171628590673,0.0008493491332046688,-0.00018319295486435294
1761379057326891500,1.4098916015625,-0.0008660030434839427,-0.00039969373028725386,0.00009992343257181346
1761379057336899300,1.4198994140625,-0.0000666156192892231,-0.0006828100886195898,0.0002831163874361664
1761379057346954000,1.4299541015625,0.0001498851488577202,0.0010491959983482957,-0.00011657733557512984
1761379057356972500,1.43997265625,0.0002831163874361664,-0.00019984686514362693,0.00039969373028725386
1761379057366981000,1.449981201171875,0.00009992343257181346,-0.00011657733557512984,0.0000666156192892231
1761379057377025000,1.46002490234375,-0.0003497319994494319,0.0009492725948803127,0.00024980856687761843
1761379057387051000,1.470051025390625,-0.0012990045361220837,-0.0013822740875184536,0.0005495788645930588
1761379057397077200,1.4800771484375,0.00011657733557512984,-0.0008326952229253948,-0.0007161179091781378
1761379057407106800,1.49010693359375,0.00016653904458507895,-0.00009992343257181346,-0.0005495788645930588
1761379057417134800,1.500134765625,0.00039969373028725386,-0.0011824272805824876,-0.0006994639988988638
1761379057427157800,1.51015771484375,0.0007660796400159597,-0.00046630934230051935,-0.00008326952229253948
1761379057437167600,1.520167724609375,0.0010991577291861176,0.0006328483577817678,-0.00019984686514362693
1761379057447209000,1.530208984375,0.0005995405954308808,-0.0002664624771568924,-0.00019984686514362693
1761379057457235000,1.54023486328125,0.0002165007608709857,0.0005495788645930588,-0.0003497319994494319
1761379057467261200,1.55026123046875,-0.00046630934230051935,0.00039969373028725386,0.00004996171628590673
1761379057477287700,1.56028759765625,0.0006994639988988638,-0.00024980856687761843,0.00011657733557512984
1761379057487313700,1.570313720703125,0.0001498851488577202,0.0007993874605745077,-0.00008326952229253948
1761379057497340000,1.58033984375,-0.00023315467115025967,0.0005329249543137848,-0.0004330015217419714
1761379057507366000,1.590365966796875,-0.00018319295486435294,-0.0001332312385784462,-0.0003164241788908839
1761379057517392400,1.600392333984375,-0.0001498851488577202,-0.00008326952229253948,-0.0006828100886195898
1761379057527418600,1.610418701171875,0.0003164241788908839,0.0001332312385784462,0.00024980856687761843
1761379057537413600,1.62041357421875,-0.0004996171337552369,0.0000666156192892231,0.0002997702977154404
1761379057547471400,1.630471435546875,0.00016653904458507895,0.0001332312385784462,0.0000666156192892231
1761379057557497300,1.640497314453125,-0.0005329249543137848,0.0002165007608709857,-0.00044965543202124536
1761379057567505700,1.650505615234375,0.00016653904458507895,0.00023315467115025967,-0.0005995405954308808
1761379057577550300,1.66055029296875,-0.0003164241788908839,-0.00008326952229253948,0.000016653904822305776
1761379057587556000,1.67055615234375,0.00046630934230051935,-0.0003663859097287059,-0.0006328483577817678
1761379057597602800,1.680602783203125,0.00039969373028725386,0.00044965543202124536,-0.0001332312385784462
1761379057607632000,1.6906318359375,-0.0004996171337552369,0.00019984686514362693,-0.0002165007608709857
1761379057617660400,1.700660400390625,0.00018319295486435294,0.0002664624771568924,-0.00004996171628590673
1761379057627681000,1.710680908203125,0.00016653904458507895,0.0002165007608709857,-0.00003330780964461155
1761379057637708000,1.7207080078125,0.00024980856687761843,-0.00008326952229253948,-0.00009992343257181346
1761379057647734300,1.730734375,-0.0003663859097287059,-0.00024980856687761843,-0.00044965543202124536
1761379057657759500,1.740759521484375,-0.0003164241788908839,-0.00018319295486435294,-0.0004163476114626974
1761379057667786200,1.7507861328125,-0.00004996171628590673,0.0004163476114626974,-0.00011657733557512984
1761379057677812500,1.7608125,-0.0004163476114626974,0.0005329249543137848,-0.0001332312385784462
1761379057687838700,1.770838623046875,0.0000666156192892231,0.0006161945057101548,-0.0006828100886195898
1761379057697867300,1.7808671875,0.0000666156192892231,0.000016653904822305776,-0.0002997702977154404
1761379057707891500,1.790891357421875,0,0.0001498851488577202,0.0001498851488577202
1761379057717899300,1.800899169921875,0.00016653904458507895,0.0003663859097287059,-0.0006661561783403158
1761379057727955700,1.810955810546875,0.0002664624771568924,0.0005662327748723328,0.0002165007608709857
1761379057737947400,1.820947509765625,0.00023315467115025967,0.000016653904822305776,-0.0005329249543137848
1761379057747996200,1.83099609375,-0.00039969373028725386,0.0001332312385784462,0.00024980856687761843
1761379057758022400,1.8410224609375,-0.00038303982000797987,0,0.0005495788645930588
1761379057768023600,1.8510234375,-0.0006495022680610418,-0.00024980856687761843,-0.0006661561783403158
1761379057778075000,1.861074951171875,-0.0001332312385784462,-0.0008493491332046688,-0.00046630934230051935
1761379057788100600,1.8711005859375,-0.0004330015217419714,0.00038303982000797987,0.0006161945057101548
1761379057798127400,1.88112744140625,0.0003164241788908839,0.0001332312385784462,-0.0008160413126461208
1761379057808156000,1.891156005859375,0.00003330780964461155,0.0005329249543137848,-0.00044965543202124536
1761379057818180900,1.901180908203125,-0.0003663859097287059,0.00019984686514362693,0.0006161945057101548
1761379057828208000,1.9112080078125,0.00024980856687761843,0.0011158116394653916,0.00009992343257181346
1761379057838233000,1.921233154296875,0.0000666156192892231,0.00038303982000797987,0.0008160413126461208
1761379057848260400,1.93126025390625,0.0002997702977154404,0.00008326952229253948,0.0003330780891701579
1761379057858264000,1.94126416015625,0.0006828100886195898,-0.00016653904458507895,0.0002165007608709857
1761379057868313900,1.95131396484375,0.0003164241788908839,-0.0002997702977154404,0.0010991577291861176
1761379057878339300,1.96133935546875,-0.0001498851488577202,-0.00009992343257181346,0.00038303982000797987
1761379057888364800,1.97136474609375,0.00046630934230051935,-0.0005662327748723328,0.00024980856687761843
1761379057898391800,1.981391845703125,0.00011657733557512984,0.00011657733557512984,0.0003497319994494319
1761379057908418000,1.99141796875,0.00016653904458507895,-0.0003663859097287059,-0.00003330780964461155
1761379057918444800,2.00144482421875,0.00016653904458507895,-0.00003330780964461155,0.0001498851488577202
1761379057928470500,2.011470458984375,0.0002664624771568924,0.0013323123566806316,-0.00008326952229253948
1761379057938505500,2.02150537109375,-0.00018319295486435294,-0.00048296325257979333,0.0003330780891701579
1761379057948501000,2.0315009765625,0.00048296325257979333,-0.0006661561783403158,-0.00024980856687761843
1761379057958550300,2.04155029296875,0.00018319295486435294,0.0003663859097287059,-0.000016653904822305776
1761379057968578600,2.05157861328125,-0.0003663859097287059,0.000016653904822305776,-0.0002831163874361664
1761379057978604500,2.0616044921875,0.00009992343257181346,-0.000016653904822305776,-0.0004330015217419714
1761379057988631300,2.07163134765625,-0.00016653904458507895,-0.0003663859097287059,0.00011657733557512984
1761379057998657800,2.08165771484375,-0.0002664624771568924,-0.0003497319994494319,0.00016653904458507895
1761379058008680000,2.091679931640625,0.0004163476114626974,-0.00004996171628590673,-0.00044965543202124536
1761379058018706700,2.101706787109375,0.0003497319994494319,0.00039969373028725386,-0.00019984686514362693
1761379058028733400,2.1117333984375,0.0001332312385784462,-0.00038303982000797987,-0.0002664624771568924
1761379058038759700,2.121759765625,-0.0005662327748723328,-0.00018319295486435294,0.0003497319994494319
1761379058048785000,2.131784912109375,0.0003330780891701579,-0.00003330780964461155,-0.0002664624771568924
1761379058058811100,2.14181103515625,0.00048296325257979333,-0.00003330780964461155,-0.00023315467115025967
1761379058068838000,2.151837890625,0.0001332312385784462,0.0002165007608709857,-0.00038303982000797987
1761379058078867200,2.1618671875,-0.0003330780891701579,-0.00004996171628590673,-0.000016653904822305776
1761379058088895500,2.1718955078125,-0.00016653904458507895,-0.0000666156192892231,0.0002831163874361664
1761379058098894600,2.18189453125,0.00024980856687761843,0.00019984686514362693,0.0002165007608709857
1761379058108968700,2.19196875,-0.0005329249543137848,0.00038303982000797987,-0.0002997702977154404
1761379058118965200,2.20196533203125,-0.0003330780891701579,-0.0004330015217419714,0.00016653904458507895
1761379058128994800,2.211994873046875,0.00023315467115025967,0.00004996171628590673,0.0003663859097287059
1761379058139021000,2.22202099609375,-0.00016653904458507895,0.0007161179091781378,0.0004996171337552369
1761379058149047300,2.23204736328125,0.00044965543202124536,-0.00009992343257181346,0.00048296325257979333
1761379058159073500,2.242073486328125,-0.0002165007608709857,-0.00009992343257181346,0.00018319295486435294
1761379058169100500,2.2521005859375,-0.0000666156192892231,-0.00004996171628590673,-0.0002165007608709857
1761379058179126300,2.262126220703125,-0.0005329249543137848,0.00003330780964461155,-0.00009992343257181346
1761379058189153000,2.272153076171875,0.00008326952229253948,0.00024980856687761843,-0.00024980856687761843
1761379058199179500,2.282179443359375,0.0001332312385784462,-0.0001332312385784462,-0.00044965543202124536
1761379058209205200,2.292205322265625,-0.0002997702977154404,0.0007494257297366858,-0.0005828866851516068
1761379058219231200,2.302231201171875,0.0004996171337552369,0.0007494257297366858,-0.0005495788645930588
1761379058229257200,2.31225732421875,0.0005828866851516068,0.0003164241788908839,-0.00048296325257979333
1761379058239283500,2.322283447265625,0.0002997702977154404,0.0003663859097287059,-0.00003330780964461155
1761379058249310500,2.332310546875,0.0006828100886195898,-0.00004996171628590673,-0.00046630934230051935
1761379058259336700,2.342336669921875,0.0003164241788908839,0.00039969373028725386,0.00044965543202124536
1761379058269330200,2.352330078125,0.0004163476114626974,-0.00048296325257979333,0.000016653904822305776
1761379058279389400,2.362389404296875,0.000016653904822305776,0.00044965543202124536,0.0004163476114626974
1761379058289415400,2.37241552734375,-0.00011657733557512984,0.0007494257297366858,0.0006828100886195898
1761379058299438000,2.38243798828125,-0.0003164241788908839,-0.0010658499086275697,-0.00024980856687761843
1761379058309468200,2.39246826171875,0.0005995405954308808,0.0003330780891701579,0.0007827335502952337
1761379058319494000,2.402493896484375,0.0005329249543137848,0.00018319295486435294,-0.0001498851488577202
1761379058329521700,2.412521728515625,-0.0002165007608709857,-0.0001498851488577202,0
1761379058339548000,2.4225478515625,-0.0001332312385784462,0.0005662327748723328,0.0008660030434839427
1761379058349598000,2.432597900390625,-0.0006161945057101548,0.0008326952229253948,0.0009825803572311997
1761379058359602700,2.442602783203125,0.000016653904822305776,-0.0009159647743217647,-0.00011657733557512984
1761379058369629700,2.452629638671875,-0.00004996171628590673,0.0010658499086275697,-0.0007660796400159597
1761379058379653000,2.462653076171875,0.0003330780891701579,-0.00024980856687761843,-0.0009159647743217647
1761379058389677800,2.472677734375,0.0004996171337552369,-0.0012490428052842617,-0.0008493491332046688
1761379058399704000,2.4827041015625,-0.0002165007608709857,0.00046630934230051935,0.00019984686514362693
1761379058409729300,2.492729248046875,-0.000016653904822305776,0.0010158881777897477,-0.00024980856687761843
1761379058419756300,2.50275634765625,0.0006161945057101548,-0.0005329249543137848,-0.0004996171337552369
1761379058429782500,2.512782470703125,0.0005329249543137848,0.0014155819080770016,-0.00011657733557512984
1761379058439808500,2.52280859375,-0.00011657733557512984,-0.00044965543202124536,-0.00003330780964461155
1761379058449835000,2.5328349609375,0.00023315467115025967,-0.0006994639988988638,-0.0000666156192892231
1761379058459829200,2.542829345703125,-0.0001332312385784462,0.0002165007608709857,0.00023315467115025967
1761379058469898000,2.55289794921875,0.0004330015217419714,0.0000666156192892231,0.0003164241788908839
1761379058479896300,2.562896240234375,0.0000666156192892231,-0.0005162710440345109,0.0003497319994494319
1761379058489966300,2.57296630859375,-0.000016653904822305776,-0.0001498851488577202,0.0001498851488577202
1761379058499946000,2.582946044921875,0.0002165007608709857,-0.0002664624771568924,0.0002997702977154404
1761379058509993500,2.592993408203125,-0.00023315467115025967,-0.0001498851488577202,0.0003663859097287059
1761379058520018700,2.603018798828125,0.0003663859097287059,-0.0005329249543137848,-0.0005162710440345109
1761379058530045200,2.613045166015625,-0.00004996171628590673,-0.0005329249543137848,0.00019984686514362693
1761379058540071000,2.62307080078125,0.00003330780964461155,-0.00004996171628590673,0.0002831163874361664
1761379058550097200,2.63309716796875,0.00004996171628590673,0.0005662327748723328,-0.0007494257297366858
1761379058560124200,2.643124267578125,0.00019984686514362693,0.00024980856687761843,-0.0007327718194574118
1761379058570150400,2.653150390625,0.0005329249543137848,-0.0008160413126461208,0.000016653904822305776
1761379058580176600,2.6631767578125,0.00023315467115025967,-0.0003663859097287059,-0.0005828866851516068
1761379058590203000,2.673202880859375,0.0006161945057101548,-0.00011657733557512984,-0.0003164241788908839
1761379058600229600,2.683229736328125,0.0000666156192892231,-0.0001498851488577202,-0.0005495788645930588
1761379058610255600,2.693255615234375,0.0002165007608709857,-0.0008493491332046688,-0.00038303982000797987
1761379058620281300,2.70328125,-0.0002997702977154404,0.00008326952229253948,-0.00019984686514362693
1761379058630293000,2.71329296875,-0.0002831163874361664,-0.0002664624771568924,-0.0003330780891701579
1761379058640333800,2.723333740234375,0.00008326952229253948,-0.00018319295486435294,-0.00024980856687761843
1761379058650343700,2.73334375,-0.0004163476114626974,-0.00003330780964461155,-0.0007161179091781378
1761379058660386600,2.743386474609375,-0.0001498851488577202,-0.00039969373028725386,-0.0003663859097287059
1761379058670413800,2.753413818359375,0.0001332312385784462,-0.00016653904458507895,0.00038303982000797987
1761379058680439800,2.763439697265625,-0.0008326952229253948,-0.0008660030434839427,0.00024980856687761843
1761379058690464500,2.773464599609375,-0.0002831163874361664,-0.0003330780891701579,-0.0001498851488577202
1761379058700492300,2.7834921875,0.000016653904822305776,0.0002997702977154404,0.00038303982000797987
1761379058710494700,2.79349462890625,0.00011657733557512984,-0.00009992343257181346,0.00009992343257181346
1761379058720545000,2.803544921875,-0.00004996171628590673,0.0002165007608709857,0.0002165007608709857
1761379058730574600,2.81357470703125,-0.00024980856687761843,-0.00018319295486435294,0.0005495788645930588
1761379058740599000,2.82359912109375,-0.0001498851488577202,-0.0004330015217419714,0
1761379058750625300,2.833625244140625,0.0004163476114626974,-0.000016653904822305776,0
1761379058760653600,2.843653564453125,0.0000666156192892231,0.0005162710440345109,0.0000666156192892231
1761379058770680000,2.85368017578125,-0.00023315467115025967,-0.0005162710440345109,0.00048296325257979333
1761379058780703500,2.863703369140625,-0.0009992342675104737,-0.0000666156192892231,-0.00044965543202124536
1761379058790730800,2.873730712890625,-0.0004330015217419714,0.0008160413126461208,-0.0002831163874361664
1761379058800746800,2.883746826171875,-0.00048296325257979333,0.00009992343257181346,0.00023315467115025967
1761379058810780400,2.893780517578125,-0.00019984686514362693,0.00016653904458507895,-0.00008326952229253948
1761379058820806000,2.903805908203125,-0.0000666156192892231,-0.00024980856687761843,0.00016653904458507895
1761379058830811000,2.913810791015625,0.00016653904458507895,0.00009992343257181346,-0.00003330780964461155
1761379058840862000,2.923862060546875,0.0006661561783403158,0.0003330780891701579,0.0004996171337552369
1761379058850890800,2.933890869140625,-0.00011657733557512984,-0.0005495788645930588,0.00046630934230051935
1761379058860892700,2.943892578125,-0.00009992343257181346,0.0002831163874361664,-0.00008326952229253948
1761379058870966500,2.953966552734375,-0.00024980856687761843,-0.0002664624771568924,-0.0001498851488577202
1761379058880960800,2.963960693359375,0.00009992343257181346,0.000016653904822305776,0.0006828100886195898
1761379058890990000,2.973989990234375,0.00024980856687761843,0.00046630934230051935,-0.0006661561783403158
1761379058901016000,2.98401611328125,0,0.00018319295486435294,0.00038303982000797987
1761379058911042000,2.9940419921875,0.0001498851488577202,0.00044965543202124536,0.0005329249543137848
1761379058921069000,3.004069091796875,0.0003497319994494319,-0.0006161945057101548,0.0003663859097287059
1761379058931095600,3.014095458984375,0.00018319295486435294,-0.0005162710440345109,0.0004996171337552369
1761379058941120800,3.024120849609375,-0.0006161945057101548,0.0002997702977154404,0.0005662327748723328
1761379058951148000,3.03414794921875,-0.0003330780891701579,0.00038303982000797987,0.00024980856687761843
1761379058961173800,3.044173828125,-0.0008993108640424907,-0.00039969373028725386,-0.0003663859097287059
1761379058971200000,3.054199951171875,-0.0003497319994494319,-0.000016653904822305776,-0.0009326186846010387
1761379058981226800,3.064226806640625,0.00018319295486435294,-0.0005162710440345109,0
1761379058991252700,3.074252685546875,0.00019984686514362693,0.0007327718194574118,-0.00011657733557512984
1761379059001258000,3.084258056640625,-0.0005828866851516068,-0.00019984686514362693,-0.0008660030434839427
1761379059011305000,3.094304931640625,-0.0002997702977154404,0.00038303982000797987,0.0011158116394653916
1761379059021331700,3.104331787109375,-0.0005162710440345109,-0.00024980856687761843,0.0003497319994494319
1761379059031335400,3.11433544921875,-0.0005828866851516068,0.0001498851488577202,0.00038303982000797987
1761379059041384400,3.124384521484375,0.0002831163874361664,-0.00024980856687761843,-0.0002165007608709857
1761379059051410200,3.13441015625,0.0002165007608709857,0.0002165007608709857,0.00023315467115025967
1761379059061414000,3.144413818359375,0.0002664624771568924,0.000016653904822305776,0
1761379059071463700,3.154463623046875,-0.00039969373028725386,-0.0002831163874361664,0.0002664624771568924
1761379059081466000,3.164466064453125,-0.0006328483577817678,-0.0005329249543137848,-0.0005662327748723328
1761379059091492400,3.174492431640625,0.0005329249543137848,-0.00024980856687761843,-0.0004163476114626974
1761379059101542000,3.1845419921875,-0.00004996171628590673,-0.00044965543202124536,-0.00048296325257979333
1761379059111567600,3.194567626953125,-0.0006495022680610418,-0.0006828100886195898,-0.0001332312385784462
1761379059121595000,3.204594970703125,-0.00019984686514362693,-0.0008493491332046688,-0.0008326952229253948
1761379059131620600,3.21462060546875,-0.00011657733557512984,0.0001498851488577202,-0.0005495788645930588
1761379059141646800,3.224646728515625,-0.0001498851488577202,0.00003330780964461155,-0.0005162710440345109
1761379059151672600,3.234672607421875,-0.0001498851488577202,0.0002664624771568924,0.0001498851488577202
1761379059161678800,3.244678955078125,-0.00011657733557512984,-0.0003330780891701579,-0.000016653904822305776
1761379059171726000,3.25472607421875,-0.00046630934230051935,0.00011657733557512984,0.0001498851488577202
1761379059181751300,3.264751220703125,-0.0003330780891701579,0.00016653904458507895,-0.0002165007608709857
1761379059191777800,3.27477783203125,-0.00004996171628590673,-0.0003330780891701579,0.00004996171628590673
1761379059201804800,3.2848046875,-0.0006661561783403158,0,0.0001498851488577202
1761379059211808000,3.29480810546875,0.00019984686514362693,0.00004996171628590673,-0.0001498851488577202
1761379059221857500,3.304857421875,0.0000666156192892231,0.0003497319994494319,-0.0009159647743217647
1761379059231883800,3.3148837890625,0.0003663859097287059,-0.0001332312385784462,-0.0012323890114203095
1761379059241909500,3.324909423828125,0.00023315467115025967,-0.0001332312385784462,-0.00003330780964461155
1761379059251936300,3.334936279296875,0.00023315467115025967,-0.0005828866851516068,-0.00008326952229253948
1761379059261961700,3.344961669921875,0.0005828866851516068,0.000016653904822305776,-0.0007660796400159597
1761379059271987500,3.354987548828125,0.0000666156192892231,0.00023315467115025967,-0.0008660030434839427
1761379059282014200,3.36501416015625,0.00046630934230051935,0.00046630934230051935,-0.0005995405954308808
1761379059292041200,3.375041259765625,0.00039969373028725386,-0.0012157351011410356,-0.0011657733703032136
1761379059302066700,3.385066650390625,0.00039969373028725386,0.0005662327748723328,-0.00023315467115025967
1761379059312092700,3.3950927734375,0.0002997702977154404,0.0006994639988988638,0.0002165007608709857
1761379059322119400,3.405119384765625,0.00009992343257181346,-0.0008160413126461208,-0.0006495022680610418
1761379059332147700,3.415147705078125,0.00019984686514362693,0.00011657733557512984,0.0000666156192892231
1761379059342172200,3.425172119140625,0.00048296325257979333,0.0003330780891701579,-0.00008326952229253948
1761379059352199000,3.435198974609375,0.0000666156192892231,0.00003330780964461155,0.0006828100886195898
1761379059362206500,3.44520654296875,-0.0009159647743217647,0.0006828100886195898,0.00048296325257979333
1761379059372250400,3.45525048828125,-0.00039969373028725386,0.00016653904458507895,0.0005495788645930588
1761379059382276900,3.46527685546875,-0.0000666156192892231,-0.0003164241788908839,0.0003330780891701579
1761379059392304000,3.47530419921875,0.0002997702977154404,0.0012157351011410356,0.0001498851488577202
1761379059402328600,3.48532861328125,0.00011657733557512984,-0.00019984686514362693,-0.0005162710440345109
1761379059412355000,3.49535498046875,0.0004996171337552369,0.00008326952229253948,-0.00008326952229253948
1761379059432407800,3.51540771484375,-0.00009992343257181346,0.00019984686514362693,-0.0009326186846010387
1761379059442433800,3.525433837890625,0.0000666156192892231,0.00039969373028725386,-0.0007660796400159597
1761379059452460800,3.535460693359375,-0.00023315467115025967,0.0009326186846010387,-0.0005329249543137848
1761379059462486300,3.545486328125,-0.0003497319994494319,0.0001498851488577202,0.0003497319994494319
1761379059472513000,3.555512939453125,0.00003330780964461155,-0.0003497319994494319,0.0002664624771568924
1761379059482539300,3.565539306640625,-0.00023315467115025967,-0.00044965543202124536,0.00019984686514362693
1761379059492565800,3.575565673828125,0.0000666156192892231,-0.0004163476114626974,0.0003330780891701579
1761379059502592000,3.585592041015625,0.00019984686514362693,-0.00008326952229253948,0.0005162710440345109
1761379059512618500,3.595618408203125,-0.0003164241788908839,-0.0004996171337552369,0.0004163476114626974
1761379059522644200,3.605644287109375,-0.00023315467115025967,0.00003330780964461155,0.0006994639988988638
1761379059532634400,3.61563427734375,-0.00016653904458507895,0.00019984686514362693,0.0001498851488577202
1761379059542697000,3.625697021484375,-0.00004996171628590673,-0.00009992343257181346,-0.0006994639988988638
1761379059552723200,3.63572314453125,0.0012323890114203095,-0.00008326952229253948,-0.0005495788645930588
1761379059562728000,3.64572802734375,0.0003164241788908839,0.00024980856687761843,0.00019984686514362693
1761379059572775000,3.65577490234375,0.0004330015217419714,-0.00044965543202124536,-0.00018319295486435294
1761379059582802000,3.665802001953125,0.00019984686514362693,0.0003164241788908839,-0.0005329249543137848
1761379059592827400,3.675827392578125,-0.0002664624771568924,-0.0004996171337552369,-0.0002831163874361664
1761379059602835500,3.68583544921875,-0.0003497319994494319,0.00008326952229253948,-0.0006661561783403158
1761379059612880600,3.695880615234375,-0.0004996171337552369,0.0000666156192892231,-0.0001332312385784462
1761379059622907000,3.705906982421875,-0.00038303982000797987,-0.0002831163874361664,-0.0002997702977154404
1761379059632933400,3.715933349609375,-0.00023315467115025967,-0.0002831163874361664,-0.0007827335502952337
1761379059642959000,3.725958984375,-0.0008826569537632167,-0.0007660796400159597,-0.00003330780964461155
1761379059652985000,3.735985107421875,-0.00023315467115025967,0.00003330780964461155,0.0002997702977154404
1761379059662989000,3.745989013671875,-0.0006161945057101548,0.0002664624771568924,-0.0001332312385784462
1761379059673037800,3.756037841796875,-0.0004163476114626974,-0.00009992343257181346,-0.000016653904822305776
1761379059683041300,3.766041259765625,-0.000016653904822305776,0.0003497319994494319,-0.00011657733557512984
1761379059693081300,3.776081298828125,-0.00019984686514362693,0.0001498851488577202,0.0004163476114626974
1761379059703117300,3.786117431640625,-0.00039969373028725386,-0.000016653904822305776,-0.0001498851488577202
1761379059713143600,3.7961435546875,0.000016653904822305776,0.0002165007608709857,-0.00008326952229253948
1761379059723169300,3.806169189453125,-0.00011657733557512984,-0.00009992343257181346,-0.00008326952229253948
1761379059733195800,3.81619580078125,-0.0003164241788908839,-0.0005828866851516068,0.0006328483577817678
1761379059743222300,3.82622216796875,-0.00018319295486435294,0.00024980856687761843,-0.00024980856687761843
1761379059753248300,3.836248291015625,0.0004330015217419714,0.0003497319994494319,0.00046630934230051935
1761379059763273700,3.846273681640625,0.0002831163874361664,-0.0004330015217419714,0.0003497319994494319
1761379059773300700,3.85630078125,0.00003330780964461155,-0.00016653904458507895,-0.00008326952229253948
1761379059783327200,3.8663271484375,0.00048296325257979333,-0.00004996171628590673,0.00018319295486435294
1761379059793354000,3.87635400390625,-0.0002664624771568924,-0.0009492725948803127,-0.00003330780964461155
1761379059803380000,3.8863798828125,-0.00018319295486435294,-0.0004163476114626974,0.0008493491332046688
1761379059813405200,3.8964052734375,0.00046630934230051935,0.00038303982000797987,-0.0001332312385784462
1761379059823432200,3.90643212890625,0.0001498851488577202,0.000016653904822305776,-0.0002165007608709857
1761379059833458000,3.9164580078125,0.0005828866851516068,-0.00044965543202124536,0.00004996171628590673
1761379059843462000,3.9264619140625,0.0003164241788908839,0.0003164241788908839,0.0001332312385784462
1761379059853487000,3.936487060546875,0,-0.0001332312385784462,-0.0002165007608709857
1761379059863513900,3.946513916015625,0.00024980856687761843,0.0009492725948803127,0.0002997702977154404
1761379059873563400,3.9565634765625,-0.00003330780964461155,0.0006994639988988638,0.0001332312385784462
1761379059883588900,3.9665888671875,-0.0005329249543137848,-0.00004996171628590673,-0.0005995405954308808
1761379059893615600,3.97661572265625,-0.00023315467115025967,0.00023315467115025967,-0.0003330780891701579
1761379059903642000,3.98664208984375,0.00011657733557512984,-0.000016653904822305776,-0.00008326952229253948
1761379059913667800,3.996667724609375,0.00018319295486435294,-0.00018319295486435294,0.0008326952229253948
1761379059923694800,4.00669482421875,0.00019984686514362693,-0.00019984686514362693,0.00009992343257181346
1761379059933721600,4.0167216796875,0.00008326952229253948,0.0002664624771568924,-0.0002997702977154404
1761379059943746800,4.026746826171875,-0.00003330780964461155,0.00011657733557512984,-0.00009992343257181346
1761379059953773600,4.036773681640625,-0.0005662327748723328,0.00048296325257979333,0.0003330780891701579
1761379059963799300,4.04679931640625,0.00019984686514362693,-0.0007494257297366858,-0.0005495788645930588
1761379059973825300,4.0568251953125,-0.00018319295486435294,-0.0009659265051595867,-0.0005329249543137848
1761379059983851300,4.066851318359375,0.0001498851488577202,0.0001332312385784462,0.0005162710440345109
1761379059993878300,4.076878173828125,-0.0006661561783403158,0.0004330015217419714,-0.0003497319994494319
1761379060003904500,4.086904541015625,0.0004163476114626974,-0.0003497319994494319,-0.00004996171628590673
1761379060013916400,4.09691650390625,-0.00003330780964461155,-0.0002997702977154404,-0.00023315467115025967
1761379060023956700,4.106956787109375,-0.00004996171628590673,-0.000016653904822305776,0.0007327718194574118
1761379060033983000,4.11698291015625,-0.0001498851488577202,-0.00018319295486435294,0.0003497319994494319
1761379060043988000,4.126988037109375,-0.000016653904822305776,0.0006328483577817678,0.0000666156192892231
1761379060054035500,4.137035400390625,-0.00023315467115025967,0.0003663859097287059,0.0000666156192892231
1761379060064061700,4.147061767578125,-0.00009992343257181346,0.00004996171628590673,0.0004163476114626974
1761379060074088000,4.157087890625,0.00008326952229253948,0.00016653904458507895,0.0006328483577817678
1761379060084114200,4.1671142578125,-0.00023315467115025967,0.0001332312385784462,-0.000016653904822305776
1761379060094141000,4.177140869140625,0.0001332312385784462,-0.0009326186846010387,0.0001498851488577202
1761379060104167000,4.1871669921875,0.0006994639988988638,0.00016653904458507895,0.00044965543202124536
1761379060114193200,4.197193115234375,-0.0003497319994494319,-0.00011657733557512984,0.0003330780891701579
1761379060124219400,4.207219482421875,0.0002664624771568924,0.0008493491332046688,0.00038303982000797987
1761379060134245400,4.217245361328125,-0.00011657733557512984,0.0003330780891701579,0.0000666156192892231
1761379060144272600,4.227272705078125,-0.00046630934230051935,0.00024980856687761843,-0.0006661561783403158
1761379060154299100,4.237299072265625,-0.0003497319994494319,0.0004996171337552369,-0.00023315467115025967
1761379060164324600,4.24732470703125,-0.0004330015217419714,0.00008326952229253948,0.00011657733557512984
1761379060174350300,4.257350341796875,-0.00004996171628590673,0.0007660796400159597,-0.00044965543202124536
1761379060184377000,4.267377197265625,-0.00044965543202124536,-0.0003330780891701579,-0.0005162710440345109
1761379060194403300,4.2774033203125,-0.00044965543202124536,0.0003497319994494319,0
1761379060204429800,4.287429931640625,-0.000016653904822305776,0.0003164241788908839,0.0005662327748723328
1761379060214468400,4.29746826171875,-0.00046630934230051935,0.0008493491332046688,-0.0001498851488577202
1761379060224481800,4.307481689453125,0.0005995405954308808,0.0009159647743217647,0.00048296325257979333
1761379060234493400,4.317493408203125,0.00018319295486435294,0.00046630934230051935,0.0006161945057101548
1761379060244514300,4.327514404296875,-0.0002165007608709857,0.0006161945057101548,0.0005495788645930588
1761379060254561000,4.33756103515625,-0.0005828866851516068,0.0003663859097287059,0.0000666156192892231
1761379060264611000,4.347611083984375,-0.0003663859097287059,0.0001498851488577202,0.00008326952229253948
1761379060274613200,4.35761328125,-0.0004163476114626974,-0.00016653904458507895,-0.0003330780891701579
1761379060284639000,4.367638916015625,-0.00004996171628590673,-0.0003164241788908839,-0.0003164241788908839
1761379060294666000,4.377666015625,0.00008326952229253948,0.0002664624771568924,-0.0003663859097287059
1761379060304691500,4.38769140625,0.00038303982000797987,-0.0000666156192892231,-0.0003497319994494319
1761379060314717400,4.397717529296875,-0.00024980856687761843,0.0001498851488577202,-0.0006495022680610418
1761379060324743400,4.407743408203125,0.0001332312385784462,0.00008326952229253948,-0.00048296325257979333
1761379060334770200,4.417770263671875,0.00009992343257181346,-0.0003164241788908839,-0.0006495022680610418
1761379060344796700,4.427796630859375,-0.00004996171628590673,-0.00011657733557512984,0.0002831163874361664
1761379060354822700,4.43782275390625,-0.00008326952229253948,-0.00016653904458507895,0.0008160413126461208
1761379060364850200,4.44785009765625,-0.0003663859097287059,-0.0008826569537632167,0.00011657733557512984
1761379060374854100,4.457854248046875,-0.0005662327748723328,0.0007660796400159597,0.0009326186846010387
1761379060384901400,4.4679013671875,-0.0005495788645930588,-0.0001332312385784462,0.00039969373028725386
1761379060394929000,4.477928955078125,-0.00018319295486435294,-0.0006828100886195898,-0.0006161945057101548
1761379060404954400,4.487954345703125,0.00003330780964461155,0.0011491194600239396,0.0011657733703032136
1761379060414980900,4.49798095703125,0,-0.0005495788645930588,-0.00038303982000797987
1761379060424998700,4.50799853515625,-0.00024980856687761843,-0.0006495022680610418,-0.00009992343257181346
1761379060435033600,4.51803369140625,-0.0003330780891701579,0.0005495788645930588,-0.00004996171628590673
1761379060445038000,4.5280380859375,0.00008326952229253948,-0.0005495788645930588,-0.0004163476114626974
1761379060455084500,4.53808447265625,0.00009992343257181346,-0.00039969373028725386,-0.0007827335502952337
1761379060465111000,4.548111083984375,-0.0002831163874361664,0.0007327718194574118,-0.0006828100886195898
1761379060475138300,4.55813818359375,-0.0008493491332046688,-0.00011657733557512984,0.00011657733557512984
1761379060485163500,4.56816357421875,-0.00003330780964461155,-0.0002165007608709857,-0.00016653904458507895
1761379060495190000,4.57818994140625,0.0003663859097287059,0.0004330015217419714,0.00003330780964461155
1761379060505216000,4.588216064453125,-0.0003164241788908839,-0.0005495788645930588,-0.0005495788645930588
1761379060515243500,4.598243408203125,-0.00011657733557512984,-0.00024980856687761843,-0.00008326952229253948
1761379060525269200,4.608269287109375,-0.000016653904822305776,-0.00009992343257181346,0.0005662327748723328
1761379060535295700,4.618295654296875,-0.0005662327748723328,-0.0007161179091781378,-0.0001332312385784462
1761379060545298000,4.6282978515625,0.00004996171628590673,-0.00009992343257181346,-0.00003330780964461155
1761379060555347700,4.63834765625,-0.0002165007608709857,0.0007327718194574118,-0.00046630934230051935
1761379060565374500,4.64837451171875,-0.00008326952229253948,0.0001332312385784462,0.0001332312385784462
1761379060575377700,4.658377685546875,0,0.0006994639988988638,0.0002664624771568924
1761379060585426200,4.66842626953125,-0.0005495788645930588,0.0002664624771568924,0.0001498851488577202
1761379060595453200,4.678453125,-0.0007660796400159597,-0.0007827335502952337,-0.00004996171628590673
1761379060605478100,4.68847802734375,0.000016653904822305776,-0.0004996171337552369,0.000016653904822305776
1761379060615483000,4.69848291015625,-0.0004330015217419714,-0.00009992343257181346,-0.0008326952229253948
1761379060625531100,4.70853125,0.0000666156192892231,-0.00023315467115025967,0.0005329249543137848
1761379060635559200,4.71855908203125,0.00011657733557512984,0.0005162710440345109,-0.00004996171628590673
1761379060645584600,4.728584716796875,0.0002165007608709857,0.00038303982000797987,-0.0002997702977154404
1761379060655610600,4.738610595703125,-0.00024980856687761843,-0.0001332312385784462,-0.00024980856687761843
1761379060665636400,4.74863623046875,-0.00048296325257979333,0.00016653904458507895,-0.0003330780891701579
1761379060675639800,4.758639892578125,-0.0002664624771568924,0.00004996171628590673,0.00003330780964461155
1761379060685689300,4.768689453125,-0.000016653904822305776,0,0
1761379060695715300,4.77871533203125,-0.0006161945057101548,0.0003497319994494319,0.00024980856687761843
1761379060705742000,4.7887421875,0.00023315467115025967,-0.0001498851488577202,-0.0002997702977154404
1761379060715767300,4.798767333984375,-0.0001498851488577202,-0.00004996171628590673,0.0002997702977154404
1761379060725794600,4.808794677734375,0.00009992343257181346,0.00003330780964461155,0.0006828100886195898
1761379060735820000,4.818820068359375,-0.0007327718194574118,0.0003497319994494319,-0.00011657733557512984
1761379060745836000,4.8288359375,-0.00039969373028725386,0.00023315467115025967,0.00023315467115025967
1761379060755872800,4.838872802734375,0.0004330015217419714,-0.00024980856687761843,-0.00003330780964461155
1761379060765899500,4.8488994140625,-0.00008326952229253948,0.00016653904458507895,0.00003330780964461155
1761379060775925800,4.85892578125,0.00016653904458507895,0.0005329249543137848,-0.0003330780891701579
1761379060785952000,4.868951904296875,-0.00003330780964461155,0.00024980856687761843,-0.0002664624771568924
1761379060795977200,4.878977294921875,-0.0005495788645930588,-0.0003497319994494319,-0.0003330780891701579
1761379060806004200,4.889004150390625,-0.0003663859097287059,-0.00038303982000797987,0.0001498851488577202
1761379060816030200,4.8990302734375,0.00024980856687761843,-0.0003497319994494319,-0.0002831163874361664
1761379060826056200,4.90905615234375,0.00048296325257979333,0.000016653904822305776,-0.0002831163874361664
1761379060836083700,4.919083740234375,-0.0006328483577817678,-0.00003330780964461155,0.0003663859097287059
1761379060846099200,4.92909912109375,-0.0001498851488577202,0.00009992343257181346,0.00039969373028725386
1761379060856143000,4.93914306640625,-0.0001332312385784462,-0.0003164241788908839,0.00039969373028725386
1761379060866160600,4.94916064453125,0.00011657733557512984,-0.00003330780964461155,0.0002664624771568924
1761379060876187100,4.959187255859375,-0.00039969373028725386,0.00024980856687761843,0.00044965543202124536
1761379060886215700,4.969215576171875,0.00003330780964461155,0.0005329249543137848,0.0005662327748723328
1761379060896239600,4.979239501953125,-0.00011657733557512984,0.0005828866851516068,0.00039969373028725386
1761379060906267100,4.98926708984375,0.0002664624771568924,0.00039969373028725386,0.00048296325257979333
1761379060916292900,4.99929296875,0.0000666156192892231,-0.00039969373028725386,-0.00008326952229253948
1761379060926318300,5.009318359375,-0.0004163476114626974,0.0003330780891701579,0.0001498851488577202
1761379060936344800,5.0193447265625,-0.00018319295486435294,0.0004330015217419714,0.00003330780964461155
1761379060946371600,5.02937158203125,0.0003164241788908839,0.00023315467115025967,0.0003663859097287059
1761379060956398800,5.03939892578125,-0.00038303982000797987,-0.0005329249543137848,0.0005329249543137848
1761379060966423800,5.049423828125,-0.0004996171337552369,-0.00016653904458507895,-0.0003497319994494319
1761379060976451000,5.059451171875,-0.0005995405954308808,-0.0007161179091781378,0.0005828866851516068
1761379060986476300,5.069476318359375,-0.0005162710440345109,-0.0001498851488577202,-0.00011657733557512984
1761379060996480800,5.079480712890625,0.000016653904822305776,0.0006495022680610418,0.0002664624771568924
1761379061006520800,5.089520751953125,0.00023315467115025967,-0.00004996171628590673,-0.000016653904822305776
1761379061016555300,5.09955517578125,0.0000666156192892231,0.0000666156192892231,-0.000016653904822305776
1761379061026571000,5.109571044921875,-0.00024980856687761843,-0.0002165007608709857,0.00004996171628590673
1761379061036608000,5.11960791015625,-0.0005162710440345109,0.00016653904458507895,0.00003330780964461155
1761379061046634000,5.129634033203125,-0.00019984686514362693,-0.00024980856687761843,0.0005329249543137848
1761379061056660500,5.139660400390625,0.0001332312385784462,0.0008160413126461208,-0.0003663859097287059
1761379061066687500,5.1496875,-0.00019984686514362693,0.0006328483577817678,0.0006328483577817678
1761379061076712400,5.15971240234375,0.00044965543202124536,-0.0002664624771568924,-0.00038303982000797987
1761379061086738200,5.16973828125,-0.00009992343257181346,0.0007993874605745077,-0.0002664624771568924
1761379061096765000,5.179764892578125,-0.00011657733557512984,-0.0000666156192892231,0.0001498851488577202
1761379061106791400,5.18979150390625,0.0004996171337552369,-0.00011657733557512984,-0.00003330780964461155
1761379061116817700,5.199817626953125,0.00024980856687761843,-0.00008326952229253948,0.0008326952229253948
1761379061126845000,5.209844970703125,-0.00024980856687761843,-0.0000666156192892231,0.00018319295486435294
1761379061136870000,5.219869873046875,-0.0003497319994494319,-0.0008326952229253948,0.0011657733703032136
1761379061146896400,5.229896484375,-0.0005495788645930588,0.000016653904822305776,0.0004330015217419714
1761379061156922600,5.239922607421875,-0.0005662327748723328,-0.0001332312385784462,0.0002664624771568924
1761379061166949000,5.24994921875,-0.0007993874605745077,0.0001332312385784462,0.00038303982000797987
1761379061176961300,5.259961181640625,-0.00009992343257181346,0.0000666156192892231,0.0008326952229253948
1761379061187002400,5.27000244140625,0.0001332312385784462,0.0002664624771568924,-0.0000666156192892231
1761379061197028000,5.280028076171875,0.0003497319994494319,0.0006661561783403158,-0.0002831163874361664
1761379061207053800,5.2900537109375,-0.00023315467115025967,0,0.00046630934230051935
1761379061217080600,5.30008056640625,0.0006828100886195898,-0.0002165007608709857,0.0001498851488577202
1761379061237133600,5.320133544921875,0.0006661561783403158,-0.00024980856687761843,0
1761379061247168800,5.330168701171875,0.00044965543202124536,0.000016653904822305776,0.0005495788645930588
1761379061257185500,5.340185546875,0.0005162710440345109,0.0003330780891701579,0.00038303982000797987
1761379061267212000,5.3502119140625,-0.0000666156192892231,-0.00038303982000797987,-0.0004330015217419714
1761379061277237200,5.3602373046875,0.0007327718194574118,-0.0001332312385784462,-0.0007494257297366858
1761379061287263700,5.370263671875,0.0012490428052842617,0.0005329249543137848,-0.0009659265051595867
1761379061297290000,5.3802900390625,0.0005995405954308808,-0.0002165007608709857,0.0011824272805824876
1761379061307316700,5.390316650390625,0.00039969373028725386,-0.0000666156192892231,-0.0002664624771568924
1761379061317342000,5.400342041015625,0.0003497319994494319,-0.0003164241788908839,0.0005828866851516068
1761379061327369000,5.410368896484375,0.00023315467115025967,0.0014488897286355495,0.0005162710440345109
1761379061337395500,5.4203955078125,0.00038303982000797987,-0.0008493491332046688,0.0005495788645930588
1761379061347421400,5.43042138671875,-0.0001332312385784462,0.0001332312385784462,0.0004996171337552369
1761379061357448400,5.440448486328125,-0.0004330015217419714,0.0010991577291861176,0.0005662327748723328
1761379061367474700,5.450474609375,0.0004163476114626974,-0.00023315467115025967,0.0008493491332046688
1761379061377484300,5.460484375,-0.00023315467115025967,0.00009992343257181346,-0.0003330780891701579
1761379061387526100,5.470526123046875,0.0003497319994494319,0.0003164241788908839,-0.0003497319994494319
1761379061397553400,5.480553466796875,0.0002165007608709857,-0.0008326952229253948,-0.00018319295486435294
1761379061407579100,5.4905791015625,-0.00004996171628590673,0.0001498851488577202,0.0005329249543137848
1761379061417606000,5.50060595703125,-0.000016653904822305776,0.0006661561783403158,-0.00009992343257181346
1761379061427631600,5.510631591796875,0.00023315467115025967,-0.00044965543202124536,0.00023315467115025967
1761379061437658000,5.520658203125,0.0005662327748723328,0.0007660796400159597,-0.0001332312385784462
1761379061447684000,5.53068408203125,-0.000016653904822305776,0.0008493491332046688,-0.0006828100886195898
1761379061457710000,5.5407099609375,0.0003330780891701579,-0.0008826569537632167,0.0003663859097287059
1761379061467736300,5.550736328125,0.0003497319994494319,0.0004330015217419714,0.0003330780891701579
1761379061477762800,5.5607626953125,0.0003164241788908839,0.0006828100886195898,0.0009326186846010387
1761379061487766000,5.57076611328125,0,-0.00004996171628590673,-0.00003330780964461155
1761379061497815000,5.58081494140625,0.00008326952229253948,-0.0007993874605745077,-0.0002664624771568924
1761379061507841300,5.59084130859375,-0.00004996171628590673,0.00008326952229253948,0.0001498851488577202
1761379061517868500,5.60086865234375,0.0003663859097287059,-0.0008326952229253948,0.0003663859097287059
1761379061527885300,5.61088525390625,0.00048296325257979333,-0.0003497319994494319,0.0002997702977154404
1761379061537914000,5.6209140625,0.00009992343257181346,-0.00018319295486435294,-0.0002997702977154404
1761379061547947000,5.630947021484375,-0.0001332312385784462,0.0003663859097287059,0.00009992343257181346
1761379061557972700,5.64097265625,0,-0.0001498851488577202,0.0003663859097287059
1761379061567998700,5.650998779296875,-0.0003164241788908839,0.00044965543202124536,0.0004996171337552369
1761379061578024700,5.661024658203125,0.0005828866851516068,0.00009992343257181346,0.00009992343257181346
1761379061588051500,5.671051513671875,0.00003330780964461155,0.00016653904458507895,-0.00004996171628590673
1761379061598077200,5.6810771484375,-0.00008326952229253948,0.00003330780964461155,0.0007327718194574118
1761379061608104200,5.691104248046875,0.0000666156192892231,-0.00009992343257181346,0.0005828866851516068
1761379061618130000,5.7011298828125,-0.00023315467115025967,-0.0004330015217419714,0.0002831163874361664
1761379061628157200,5.7111572265625,0.00009992343257181346,-0.000016653904822305776,-0.0001332312385784462
1761379061638182400,5.721182373046875,0.00024980856687761843,-0.0001498851488577202,-0.0000666156192892231
1761379061648209000,5.731208984375,0.000016653904822305776,-0.0002997702977154404,0.00023315467115025967
1761379061658210300,5.741210205078125,-0.0005495788645930588,0.00003330780964461155,0.00018319295486435294
1761379061668261000,5.75126123046875,-0.00016653904458507895,-0.0001498851488577202,0.0006828100886195898
1761379061678288100,5.7612880859375,-0.0002165007608709857,-0.0005995405954308808,0.00004996171628590673
1761379061688291600,5.77129150390625,-0.00009992343257181346,-0.00016653904458507895,-0.00009992343257181346
1761379061698340900,5.7813408203125,0,0.0000666156192892231,0.0001498851488577202
1761379061708366800,5.791366943359375,-0.00048296325257979333,-0.00023315467115025967,-0.00004996171628590673
1761379061718392600,5.801392578125,0.00004996171628590673,-0.0002165007608709857,0.0004163476114626974
1761379061728419000,5.811419189453125,0.00018319295486435294,-0.00009992343257181346,0.0005662327748723328
1761379061738445300,5.8214453125,0.00039969373028725386,-0.00004996171628590673,0.0003663859097287059
1761379061748471800,5.831471923828125,0.0002165007608709857,0.0002831163874361664,-0.00016653904458507895
1761379061758480000,5.84147998046875,0.0006828100886195898,-0.00003330780964461155,-0.00011657733557512984
1761379061768523300,5.851523193359375,-0.0006828100886195898,0,0.0010158881777897477
1761379061778550500,5.861550537109375,-0.00046630934230051935,-0.00023315467115025967,0.0006328483577817678
1761379061788577500,5.87157763671875,0.00011657733557512984,-0.0002997702977154404,0.0010491959983482957
1761379061798602200,5.881602294921875,-0.00048296325257979333,0.00003330780964461155,0.0006495022680610418
1761379061808629200,5.891629150390625,-0.0002997702977154404,-0.00023315467115025967,-0.00048296325257979333
1761379061818632200,5.901632080078125,0.00003330780964461155,-0.0005162710440345109,0.0000666156192892231
1761379061828682500,5.9116826171875,0.0002165007608709857,0.00011657733557512984,-0.0002997702977154404
1761379061838708000,5.9217080078125,-0.0003330780891701579,-0.000016653904822305776,0.0002997702977154404
1761379061848734700,5.931734619140625,0.0002664624771568924,0.0002664624771568924,-0.00019984686514362693
1761379061858738000,5.941738037109375,0.0002997702977154404,-0.0002997702977154404,-0.00008326952229253948
1761379061868786400,5.951786376953125,-0.0006661561783403158,-0.0003497319994494319,-0.0004163476114626974
1761379061878812700,5.961812744140625,0.0002831163874361664,-0.0003663859097287059,0.0006328483577817678
1761379061888818200,5.971818115234375,0.0007327718194574118,-0.00046630934230051935,0.00038303982000797987
1761379061898864600,5.98186474609375,-0.00009992343257181346,-0.00038303982000797987,-0.0002997702977154404
1761379061908891400,5.991891357421875,0.000016653904822305776,-0.00016653904458507895,0.0006161945057101548
1761379061918917600,6.001917724609375,0.00044965543202124536,-0.0004996171337552369,0.00009992343257181346
1761379061928943600,6.011943603515625,0.00044965543202124536,-0.0009326186846010387,-0.0006994639988988638
1761379061938969900,6.021969970703125,-0.0002664624771568924,-0.0002664624771568924,-0.0005329249543137848
1761379061948997000,6.0319970703125,-0.0001498851488577202,0.0002997702977154404,0.00018319295486435294
1761379061959022300,6.042022216796875,-0.0006828100886195898,0.000016653904822305776,0.00003330780964461155
1761379061969049900,6.0520498046875,0.0001332312385784462,-0.0000666156192892231,0.0006328483577817678
1761379061979074800,6.06207470703125,-0.00008326952229253948,0.0002831163874361664,0.0009992342675104737
1761379061989101800,6.072101806640625,-0.00016653904458507895,-0.0000666156192892231,-0.0003164241788908839
1761379061999128000,6.082128173828125,-0.00003330780964461155,-0.0003164241788908839,-0.0006994639988988638
1761379062009154300,6.092154296875,0.0003164241788908839,-0.00011657733557512984,-0.0005828866851516068
1761379062019165000,6.1021650390625,0.00009992343257181346,0.00003330780964461155,-0.00004996171628590673
1761379062029207000,6.11220703125,0.00038303982000797987,0.0002831163874361664,0.00039969373028725386
1761379062039233000,6.12223291015625,-0.00009992343257181346,-0.00019984686514362693,-0.0004330015217419714
1761379062049258800,6.1322587890625,-0.00023315467115025967,0.0003164241788908839,0.00018319295486435294
1761379062059291100,6.142291015625,-0.0008993108640424907,-0.00003330780964461155,-0.00016653904458507895
1761379062069335300,6.152335205078125,0.00023315467115025967,0.00003330780964461155,0.0007327718194574118
1761379062079337500,6.16233740234375,-0.0010491959983482957,0.0000666156192892231,0.0004330015217419714
1761379062089363500,6.172363525390625,-0.0000666156192892231,0.00023315467115025967,0.0003164241788908839
1761379062099390700,6.182390625,0.0001332312385784462,-0.0009159647743217647,0.0003497319994494319
1761379062109417200,6.192417236328125,0.00011657733557512984,-0.0008660030434839427,-0.00003330780964461155
1761379062119443000,6.20244287109375,0.0001498851488577202,0.0006661561783403158,0.00038303982000797987
1761379062129469700,6.2124697265625,-0.0009326186846010387,-0.00008326952229253948,0.0003663859097287059
1761379062139495400,6.222495361328125,-0.0006495022680610418,-0.000016653904822305776,0.0000666156192892231
1761379062149521200,6.232521240234375,0,-0.00024980856687761843,0.0006328483577817678
1761379062159547400,6.24254736328125,0.0004163476114626974,-0.0002997702977154404,0.0002831163874361664
1761379062169574100,6.25257421875,0.00038303982000797987,0.0000666156192892231,-0.0001332312385784462
1761379062179600400,6.262600341796875,0.0005329249543137848,-0.00024980856687761843,-0.00008326952229253948
1761379062189612300,6.2726123046875,0.0005662327748723328,-0.0007993874605745077,-0.00009992343257181346
1761379062199653400,6.2826533203125,0.00048296325257979333,-0.00011657733557512984,-0.0002165007608709857
1761379062209679000,6.29267919921875,0.0009992342675104737,0.00023315467115025967,0.0002997702977154404
1761379062219688000,6.30268798828125,0.00003330780964461155,0.0002664624771568924,-0.0003330780891701579
1761379062229731600,6.312731689453125,0.0003663859097287059,0.0003164241788908839,-0.0005162710440345109
1761379062239734800,6.32273486328125,0.0004330015217419714,0,-0.00003330780964461155
1761379062249783800,6.33278369140625,-0.00016653904458507895,-0.0004996171337552369,-0.0012323890114203095
1761379062259810000,6.34281005859375,0.0007161179091781378,0.0005662327748723328,0.0006161945057101548
1761379062269836500,6.35283642578125,-0.0001332312385784462,0.00039969373028725386,0.0012157351011410356
1761379062279862800,6.36286279296875,0,-0.0008160413126461208,0.0000666156192892231
1761379062289889000,6.372888916015625,-0.0005495788645930588,0.0005162710440345109,0.00046630934230051935
1761379062299914800,6.382914794921875,-0.000016653904822305776,0.0004996171337552369,0.0002831163874361664
1761379062309942000,6.39294189453125,-0.0002664624771568924,-0.0006495022680610418,-0.0003663859097287059
1761379062319968300,6.40296826171875,0.0001332312385784462,0.0005995405954308808,0.0007660796400159597
1761379062329994200,6.412994140625,0.0005495788645930588,0.00011657733557512984,0.0006994639988988638
1761379062340019700,6.423019775390625,-0.00019984686514362693,-0.0008326952229253948,0.00003330780964461155
1761379062350046500,6.43304638671875,-0.0000666156192892231,0.0011158116394653916,0.0007660796400159597
1761379062360073000,6.443072998046875,-0.0003330780891701579,-0.0003497319994494319,0.0005662327748723328
1761379062370099200,6.45309912109375,0.0003330780891701579,-0.0010491959983482957,-0.00009992343257181346
1761379062380125700,6.463125732421875,-0.0002831163874361664,0.0004163476114626974,0.00003330780964461155
1761379062390128400,6.47312841796875,-0.00024980856687761843,0.0006828100886195898,-0.00004996171628590673
1761379062400176600,6.4831767578125,-0.00004996171628590673,-0.0003497319994494319,-0.00044965543202124536
1761379062410204400,6.493204345703125,0.00024980856687761843,0.0002831163874361664,-0.0005995405954308808
1761379062420230100,6.503230224609375,0.00048296325257979333,0.0000666156192892231,0.0003330780891701579
1761379062430255900,6.513255859375,0.0001498851488577202,-0.0002997702977154404,0.0002664624771568924
1761379062440283100,6.523283203125,0.0011990811908617616,0.0005662327748723328,-0.00004996171628590673
1761379062450308600,6.53330859375,0.0007660796400159597,-0.00018319295486435294,0.0005329249543137848
1761379062460335000,6.543335205078125,-0.00019984686514362693,0.00008326952229253948,-0.0003164241788908839
1761379062470361900,6.55336181640625,0.00019984686514362693,0.0010991577291861176,0.00018319295486435294
1761379062480388000,6.56338818359375,-0.00011657733557512984,0.00003330780964461155,0.00038303982000797987
1761379062490414000,6.5734140625,-0.0001332312385784462,-0.0010825038189068437,0.000016653904822305776
1761379062500440600,6.583440673828125,-0.0004996171337552369,0.00016653904458507895,-0.0002165007608709857
1761379062510466600,6.593466552734375,0.0003330780891701579,0.00024980856687761843,0.0004163476114626974
1761379062520492500,6.603492431640625,0.0002165007608709857,-0.00009992343257181346,0.0005329249543137848
1761379062530519600,6.61351953125,-0.0002831163874361664,-0.0004996171337552369,0.00004996171628590673
1761379062540521700,6.623521728515625,0.000016653904822305776,-0.0002664624771568924,-0.0002831163874361664
1761379062550573300,6.6335732421875,0.0004996171337552369,0.0003164241788908839,-0.0001332312385784462
1761379062560597800,6.64359765625,0.00004996171628590673,0.0002664624771568924,0.000016653904822305776
1761379062570624800,6.653624755859375,0.00044965543202124536,-0.00011657733557512984,-0.0002997702977154404
1761379062580650500,6.663650390625,0.0009326186846010387,-0.0006828100886195898,-0.0011491194600239396
1761379062590681900,6.673681884765625,0.00038303982000797987,-0.0003497319994494319,-0.00009992343257181346
1761379062600705800,6.683705810546875,-0.00009992343257181346,-0.000016653904822305776,-0.0006661561783403158
1761379062610732500,6.693732666015625,-0.00004996171628590673,-0.00019984686514362693,0.00024980856687761843
1761379062620755000,6.7037548828125,0.00008326952229253948,-0.00004996171628590673,-0.00024980856687761843
1761379062630782200,6.7137822265625,0.0003164241788908839,-0.0006994639988988638,-0.0003663859097287059
1761379062640807000,6.723806884765625,-0.00044965543202124536,0.0005995405954308808,0.00009992343257181346
1761379062650834200,6.733834228515625,0.00004996171628590673,-0.0003164241788908839,0.0002831163874361664
1761379062660863700,6.74386376953125,0.00009992343257181346,-0.00004996171628590673,0.0005162710440345109
1761379062670884900,6.753884765625,-0.00038303982000797987,0.0003497319994494319,-0.0003164241788908839
1761379062680915700,6.763915771484375,-0.00003330780964461155,0.0002664624771568924,0.0000666156192892231
1761379062690939600,6.773939697265625,0.0005329249543137848,-0.00003330780964461155,-0.0000666156192892231
1761379062700974300,6.783974365234375,-0.00016653904458507895,0.0005329249543137848,-0.00048296325257979333
1761379062710992000,6.793991943359375,0.0002165007608709857,0.000016653904822305776,0.0004996171337552369
1761379062720997600,6.80399755859375,-0.00003330780964461155,-0.00011657733557512984,0.00024980856687761843
1761379062731044400,6.81404443359375,0.0000666156192892231,-0.000016653904822305776,0.0005995405954308808
1761379062741070600,6.824070556640625,-0.00048296325257979333,-0.00009992343257181346,0.00008326952229253948
1761379062751096600,6.8340966796875,-0.0002165007608709857,0.00024980856687761843,0.000016653904822305776
1761379062761122600,6.84412255859375,-0.00039969373028725386,0.0001332312385784462,0.0003330780891701579
1761379062771148800,6.854148681640625,0.0004996171337552369,-0.00048296325257979333,0.0008826569537632167
1761379062781174800,6.8641748046875,-0.00009992343257181346,-0.00023315467115025967,0
1761379062791201800,6.874201904296875,-0.0002664624771568924,0.0002165007608709857,0
1761379062801227500,6.8842275390625,0.0007993874605745077,-0.0007494257297366858,-0.0000666156192892231
1761379062811254500,6.894254638671875,0.0004163476114626974,-0.0006161945057101548,0.00008326952229253948
1761379062821280300,6.9042802734375,0.0005662327748723328,0.00004996171628590673,0.0001498851488577202
1761379062831307300,6.914307373046875,0.0005995405954308808,0.0007660796400159597,0.00016653904458507895
1761379062841332700,6.924332763671875,-0.00008326952229253948,0.00039969373028725386,-0.00044965543202124536
1761379062851358700,6.934358642578125,0.0005662327748723328,-0.00011657733557512984,0.00038303982000797987
1761379062861385000,6.944385009765625,-0.00048296325257979333,-0.0006328483577817678,-0.0002664624771568924
1761379062871379500,6.95437939453125,0.00008326952229253948,-0.0008326952229253948,-0.00018319295486435294
1761379062881437200,6.964437255859375,-0.0002997702977154404,0.00003330780964461155,-0.0005329249543137848
1761379062891464000,6.9744638671875,-0.00011657733557512984,0.00016653904458507895,0.0002997702977154404
1761379062901467400,6.98446728515625,0.0000666156192892231,0.00004996171628590673,-0.000016653904822305776
1761379062911517000,6.994516845703125,0.0007993874605745077,0.0005495788645930588,0.00011657733557512984
1761379062921542700,7.004542724609375,0.0003663859097287059,-0.00023315467115025967,-0.0006495022680610418
1761379062931568600,7.014568603515625,-0.0003330780891701579,0.000016653904822305776,-0.00039969373028725386
1761379062941595400,7.024595458984375,-0.00024980856687761843,0.00019984686514362693,0.0002165007608709857
1761379062951621400,7.034621337890625,-0.00038303982000797987,-0.0004330015217419714,-0.00003330780964461155
1761379062961648600,7.044648681640625,0.00018319295486435294,0.0005995405954308808,-0.0002165007608709857
1761379062971673600,7.054673583984375,0.00016653904458507895,-0.0003663859097287059,0.0002165007608709857
1761379062981700600,7.06470068359375,-0.00008326952229253948,-0.00009992343257181346,0.0002831163874361664
1761379062991725600,7.0747255859375,0.00038303982000797987,-0.00004996171628590673,0.0006495022680610418
1761379063001753300,7.08475341796875,0.0001498851488577202,-0.0006828100886195898,0.00039969373028725386
1761379063011778600,7.094778564453125,0.00003330780964461155,-0.0002664624771568924,-0.00009992343257181346
1761379063021805600,7.1048056640625,0.00023315467115025967,0.0001498851488577202,-0.00008326952229253948
1761379063031832300,7.114832275390625,0.0002165007608709857,0.0009326186846010387,0.00018319295486435294
1761379063041858300,7.1248583984375,0.00046630934230051935,0.00039969373028725386,-0.0005662327748723328
1761379063051884300,7.13488427734375,0.0001332312385784462,-0.00009992343257181346,-0.0000666156192892231
1761379063061910500,7.14491064453125,-0.00009992343257181346,0.00039969373028725386,-0.0002831163874361664
1761379063071917300,7.154917236328125,0.0000666156192892231,0.00011657733557512984,0.00019984686514362693
1761379063081959400,7.16495947265625,0.0006161945057101548,-0.00023315467115025967,-0.00046630934230051935
1761379063091989200,7.1749892578125,0.00008326952229253948,-0.0001498851488577202,-0.0005329249543137848
1761379063101993200,7.1849931640625,0.0005162710440345109,0.0004330015217419714,-0.0003164241788908839
1761379063112042000,7.1950419921875,0.0001332312385784462,0.0002997702977154404,-0.00003330780964461155
1761379063122067700,7.205067626953125,-0.00018319295486435294,0.0004996171337552369,-0.0002664624771568924
1761379063132094200,7.21509423828125,-0.0005828866851516068,0.0006994639988988638,0.00019984686514362693
1761379063142120200,7.2251201171875,-0.0002165007608709857,0.0002165007608709857,0.0005828866851516068
1761379063152146400,7.235146484375,-0.00039969373028725386,0.00046630934230051935,0.0007494257297366858
1761379063162173200,7.245173095703125,-0.0006328483577817678,0.0002831163874361664,-0.0002997702977154404
1761379063172199000,7.255198974609375,-0.00009992343257181346,-0.00016653904458507895,0.00003330780964461155
1761379063182225700,7.2652255859375,-0.0009492725948803127,-0.00038303982000797987,-0.00004996171628590673
1761379063192251100,7.275251220703125,-0.0006161945057101548,-0.00019984686514362693,0.00003330780964461155
1761379063202278000,7.28527783203125,0.00008326952229253948,0.0006328483577817678,0.000016653904822305776
1761379063212304600,7.2953046875,-0.0004163476114626974,0.0006495022680610418,-0.0006161945057101548
1761379063222330400,7.305330322265625,-0.00018319295486435294,0.0004996171337552369,-0.00018319295486435294
1761379063232334300,7.315334228515625,-0.00018319295486435294,0.0007993874605745077,-0.00019984686514362693
1761379063242383000,7.325383056640625,0.0001498851488577202,-0.000016653904822305776,-0.0004996171337552369
1761379063252385800,7.3353857421875,0.0003330780891701579,-0.0003164241788908839,-0.0003663859097287059
1761379063262435000,7.34543505859375,0.0008326952229253948,-0.0003663859097287059,-0.0004996171337552369
1761379063272453000,7.355453125,-0.00016653904458507895,-0.000016653904822305776,-0.0007327718194574118
1761379063282495500,7.36549560546875,0.00024980856687761843,0.000016653904822305776,-0.0002165007608709857
1761379063292514300,7.375514404296875,-0.00016653904458507895,0.00016653904458507895,0.0005995405954308808
1761379063302540300,7.385540283203125,-0.0003663859097287059,0.0009659265051595867,0.0002165007608709857
1761379063312567300,7.3955673828125,-0.0003663859097287059,-0.0006161945057101548,-0.0006661561783403158
1761379063322593300,7.40559326171875,-0.00046630934230051935,-0.00016653904458507895,0.0008326952229253948
1761379063332614400,7.415614501953125,-0.0003497319994494319,-0.00024980856687761843,0.00009992343257181346
1761379063342645800,7.425645751953125,-0.0006328483577817678,-0.00008326952229253948,-0.00024980856687761843
1761379063352649000,7.43564892578125,-0.0004163476114626974,0.00044965543202124536,-0.0000666156192892231
1761379063362698800,7.44569873046875,-0.0008993108640424907,0.00023315467115025967,-0.00019984686514362693
1761379063372723500,7.455723388671875,-0.00039969373028725386,-0.0015155053697526455,-0.0003663859097287059
1761379063382750500,7.46575048828125,-0.00023315467115025967,0.0006161945057101548,0.00003330780964461155
1761379063392776400,7.4757763671875,-0.0000666156192892231,-0.00019984686514362693,-0.0003330780891701579
1761379063402802400,7.485802490234375,-0.00016653904458507895,0.000016653904822305776,-0.0004996171337552369
1761379063412829000,7.495828857421875,-0.0008660030434839427,0.0010991577291861176,-0.00016653904458507895
1761379063422855400,7.50585546875,0.0001332312385784462,0.00004996171628590673,-0.0002664624771568924
1761379063432882000,7.5158818359375,-0.000016653904822305776,-0.00046630934230051935,0.00009992343257181346
1761379063442908200,7.525908203125,-0.0003497319994494319,0.0005162710440345109,-0.0003164241788908839
1761379063452934100,7.53593408203125,0.000016653904822305776,0.0002997702977154404,0.0002165007608709857
1761379063462960000,7.545960205078125,0.0006161945057101548,-0.0002664624771568924,-0.00008326952229253948
1761379063472986600,7.555986572265625,-0.0000666156192892231,0.00004996171628590673,-0.0000666156192892231
1761379063483013400,7.566013427734375,0.0002664624771568924,0.0003497319994494319,0.00004996171628590673
1761379063493038300,7.576038330078125,0.00023315467115025967,0.0002165007608709857,0.0001498851488577202
1761379063503048400,7.58604833984375,0.00011657733557512984,0.0000666156192892231,-0.0002997702977154404
1761379063513092000,7.596092041015625,0,0.0003497319994494319,-0.0001498851488577202
1761379063523118300,7.606118408203125,0.0011324655497446656,-0.00011657733557512984,-0.00008326952229253948
1761379063533109800,7.61610986328125,0.00016653904458507895,0.00016653904458507895,0.0004996171337552369
1761379063543170000,7.626170166015625,0.00004996171628590673,-0.0007827335502952337,0.0005828866851516068
1761379063553196300,7.6361962890625,0.0002664624771568924,0.00019984686514362693,-0.00019984686514362693
1761379063563222800,7.646222900390625,-0.0002165007608709857,0.00004996171628590673,-0.0004163476114626974
1761379063573248000,7.656248046875,-0.00003330780964461155,-0.000016653904822305776,-0.0002165007608709857
1761379063583275300,7.666275146484375,0.0003330780891701579,0.00023315467115025967,-0.0007827335502952337
1761379063593301500,7.676301513671875,0.00016653904458507895,-0.0001498851488577202,-0.0006495022680610418
1761379063603328500,7.68632861328125,-0.0003663859097287059,-0.0002664624771568924,-0.00039969373028725386
1761379063613355000,7.69635498046875,0.00008326952229253948,-0.00003330780964461155,-0.00048296325257979333
1761379063623380500,7.70638037109375,0.0002997702977154404,0.0010658499086275697,-0.0005828866851516068
1761379063633407500,7.716407470703125,-0.0002165007608709857,-0.0002165007608709857,-0.0010325420880690217
1761379063643433200,7.72643310546875,-0.00048296325257979333,0.00038303982000797987,-0.00046630934230051935
1761379063653459000,7.736458984375,-0.00038303982000797987,0.00038303982000797987,-0.0005495788645930588
1761379063663470800,7.746470947265625,-0.00008326952229253948,-0.00008326952229253948,-0.0002831163874361664
1761379063673511000,7.756510986328125,-0.00024980856687761843,0.0000666156192892231,0.0006495022680610418
1761379063683537400,7.766537353515625,0.0000666156192892231,0.0002831163874361664,0.0003497319994494319
1761379063693563600,7.776563720703125,0.0001332312385784462,0.00004996171628590673,-0.0002165007608709857
1761379063703567400,7.7865673828125,-0.0004996171337552369,0.0004163476114626974,0.0002831163874361664
1761379063713596200,7.79659619140625,0.0001498851488577202,-0.0002664624771568924,0.0003497319994494319
1761379063723643000,7.806642822265625,0.0003663859097287059,0.0002831163874361664,-0.00016653904458507895
1761379063733668900,7.8166689453125,-0.00008326952229253948,-0.0005162710440345109,-0.00011657733557512984
1761379063743695000,7.826695068359375,0.0005495788645930588,0.0000666156192892231,0.0000666156192892231
1761379063753722000,7.83672216796875,0.00023315467115025967,0.0009992342675104737,-0.0005662327748723328
1761379063763748900,7.846748779296875,0.00038303982000797987,0.0005162710440345109,-0.0005495788645930588
1761379063773774000,7.856774169921875,0.00024980856687761843,0.00009992343257181346,-0.0008160413126461208
1761379063783800800,7.86680078125,-0.000016653904822305776,0.0006161945057101548,0.00011657733557512984
1761379063793827600,7.87682763671875,0.00004996171628590673,0.000016653904822305776,-0.00009992343257181346
1761379063803851500,7.8868515625,0.00023315467115025967,-0.00016653904458507895,-0.00008326952229253948
1761379063813879800,7.8968798828125,0.00018319295486435294,0.0007494257297366858,0.000016653904822305776
1761379063823905000,7.906905029296875,0.0007827335502952337,0.0006828100886195898,0.00003330780964461155
1761379063833934300,7.916934326171875,0.0007827335502952337,0.0005495788645930588,-0.00011657733557512984
1761379063843957500,7.92695751953125,0.0002831163874361664,0.0010325420880690217,0.0005162710440345109
1761379063853984000,7.93698388671875,0.00048296325257979333,0.0008993108640424907,-0.0001498851488577202
1761379063863981800,7.94698193359375,0.0009492725948803127,0.00003330780964461155,-0.0002165007608709857
1761379063874037200,7.957037353515625,0.0002831163874361664,0.020134570077061653,0.007860642857849598
1761379063884020700,7.967020751953125,-0.0003497319994494319,0.03362423554062843,0.007161179091781378
1761379063894089200,7.977089111328125,-0.00019984686514362693,0.008310298435389996,0.007061255630105734
1761379063904092700,7.9870927734375,-0.0006661561783403158,0.005895482376217842,0.0054458267986774445
1761379063914141200,7.99714111328125,-0.0006828100886195898,0.012174004688858986,0.0006495022680610418
1761379063924167700,8.007167724609374,-0.00008326952229253948,-0.005012825131416321,0.0020484302658587694
1761379063934194000,8.01719384765625,-0.0008493491332046688,-0.0009659265051595867,0.00009992343257181346
1761379063944221000,8.027220947265626,-0.0003663859097287059,0.003647205187007785,-0.0013656201772391796
1761379063954246100,8.03724609375,0.0004330015217419714,-0.004912902135401964,-0.0019318530103191733
1761379063964273400,8.0472734375,0.0005495788645930588,-0.00046630934230051935,-0.004929556045681238
1761379063974299100,8.057299072265625,0.0004330015217419714,-0.003946975339204073,-0.00654498441144824
1761379063984325000,8.0673251953125,0.0002664624771568924,-0.019884763285517693,-0.006078675389289856
1761379063994351600,8.0773515625,-0.00016653904458507895,-0.02429804764688015,-0.006145291030406952
1761379064004377600,8.087377685546874,-0.0010658499086275697,-0.015404862351715565,-0.0026979325339198112
1761379064014404000,8.097404052734374,0.000016653904822305776,0.0017153521766886115,0.0010825038189068437
1761379064024430800,8.107430908203124,-0.0005662327748723328,0.002764548175036907,-0.003264165250584483
