time,seconds_elapsed,z,y,x
1761379044287767300,0.099767333984375,-0.0003330780891701579,-0.0003330780891701579,-0.0013656201772391796
1761379044297804000,0.109803955078125,0.0005828866851516068,-0.00024980856687761843,0.0001498851488577202
1761379044307819500,0.119819580078125,0.0007494257297366858,-0.0001332312385784462,-0.0005495788645930588
1761379044317846300,0.12984619140625,-0.0000666156192892231,0.0010325420880690217,0.00038303982000797987
1761379044327872000,0.1398720703125,0.00023315467115025967,-0.0002664624771568924,-0.0003663859097287059
1761379044337898000,0.14989794921875,0.00039969373028725386,0.00024980856687761843,0.00019984686514362693
1761379044347924500,0.159924560546875,0.0000666156192892231,0.0005329249543137848,0.00023315467115025967
1761379044357950700,0.16995068359375,0.00048296325257979333,0.000016653904822305776,0
1761379044367977700,0.179977783203125,-0.0006661561783403158,0.00016653904458507895,0.0005828866851516068
1761379044378003200,0.190003173828125,-0.00009992343257181346,0.00019984686514362693,0.00039969373028725386
1761379044388005600,0.200005615234375,-0.0004163476114626974,-0.0008660030434839427,0.0003164241788908839
1761379044398055200,0.21005517578125,0.0001332312385784462,-0.0005662327748723328,-0.00008326952229253948
1761379044408082000,0.22008203125,-0.0002831163874361664,0.0001332312385784462,-0.00016653904458507895
1761379044418090000,0.230090087890625,0.00046630934230051935,0.0002165007608709857,0.0005995405954308808
1761379044428095000,0.240094970703125,0.00048296325257979333,-0.00039969373028725386,0.0003164241788908839
1761379044438161000,0.250160888671875,0.0007494257297366858,0.0003497319994494319,0.00019984686514362693
1761379044448187000,0.260186767578125,0.00024980856687761843,0.00018319295486435294,0.00023315467115025967
1761379044458213400,0.27021337890625,-0.0005828866851516068,0.00008326952229253948,0.00016653904458507895
1761379044468239600,0.280239501953125,0.0006495022680610418,0.00048296325257979333,-0.0003330780891701579
1761379044478266400,0.290266357421875,0.0006994639988988638,-0.00004996171628590673,-0.00023315467115025967
1761379044488293600,0.300293701171875,0.0005329249543137848,0.00011657733557512984,0.0000666156192892231
1761379044498318800,0.31031884765625,0.0006828100886195898,-0.0005995405954308808,-0.0005828866851516068
1761379044508346400,0.320346435546875,0.0008160413126461208,-0.0005662327748723328,0.0005495788645930588
1761379044518370300,0.330370361328125,0.00018319295486435294,0.00023315467115025967,0.00004996171628590673
1761379044528396300,0.340396240234375,0,-0.0010991577291861176,-0.0007827335502952337
1761379044538390500,0.350390625,0.000016653904822305776,-0.0005828866851516068,0.0009992342675104737
1761379044548449300,0.36044921875,0.00011657733557512984,0.00003330780964461155,0.0002165007608709857
1761379044558458000,0.3704580078125,-0.0001332312385784462,-0.0005662327748723328,0.0006994639988988638
1761379044568501200,0.380501220703125,0.0000666156192892231,0.00038303982000797987,0.0006994639988988638
1761379044578528500,0.390528564453125,-0.0005828866851516068,-0.00024980856687761843,0.0003497319994494319
1761379044588555000,0.400554931640625,0.00016653904458507895,-0.0007660796400159597,-0.00018319295486435294
1761379044598584800,0.410584716796875,-0.0003164241788908839,0.0012157351011410356,0.0001332312385784462
1761379044608611300,0.420611328125,0.0005995405954308808,0,0.0006661561783403158
1761379044618592500,0.430592529296875,0.00038303982000797987,-0.0010991577291861176,0.0003164241788908839
1761379044628673500,0.440673583984375,0.0003164241788908839,0.0012990045361220837,0.00019984686514362693
1761379044638686000,0.45068603515625,0.0005662327748723328,-0.0001332312385784462,-0.0006661561783403158
1761379044648711400,0.46071142578125,-0.00003330780964461155,-0.0006328483577817678,-0.0003497319994494319
1761379044658737400,0.4707373046875,0.00018319295486435294,0.0010658499086275697,0.0003330780891701579
1761379044668764000,0.480763916015625,0.0002997702977154404,-0.0005329249543137848,-0.00048296325257979333
1761379044678790100,0.4907900390625,0.0009159647743217647,-0.0004996171337552369,-0.00011657733557512984
1761379044688816600,0.500816650390625,0.0005162710440345109,0.0007993874605745077,-0.00039969373028725386
1761379044698842600,0.510842529296875,-0.0006495022680610418,-0.00004996171628590673,-0.00024980856687761843
1761379044708827000,0.520826904296875,-0.00016653904458507895,-0.000016653904822305776,0.00023315467115025967
1761379044718895000,0.53089501953125,-0.00004996171628590673,0.0011824272805824876,0.0003164241788908839
1761379044728920800,0.5409208984375,-0.0003497319994494319,0.00023315467115025967,0.0002997702977154404
1761379044738947000,0.550947021484375,0.00039969373028725386,-0.0007494257297366858,-0.0001498851488577202
1761379044748973800,0.560973876953125,-0.00008326952229253948,-0.000016653904822305776,0.0007827335502952337
1761379044758999800,0.570999755859375,-0.0005662327748723328,0.000016653904822305776,0.0007660796400159597
1761379044769026300,0.5810263671875,-0.00011657733557512984,0.0001332312385784462,0.0005162710440345109
1761379044779053300,0.59105322265625,-0.0004330015217419714,0.0006828100886195898,0.0002165007608709857
1761379044789078500,0.60107861328125,-0.0004996171337552369,0.0000666156192892231,0.00009992343257181346
1761379044799104800,0.611104736328125,-0.00018319295486435294,-0.0002165007608709857,-0.0006994639988988638
1761379044809131300,0.62113134765625,-0.00048296325257979333,0.00044965543202124536,-0.0005495788645930588
1761379044819157500,0.631157470703125,-0.00003330780964461155,0.0002997702977154404,-0.0002165007608709857
1761379044829183700,0.641183837890625,0.0003164241788908839,-0.00039969373028725386,0.0002831163874361664
1761379044839209700,0.651209716796875,0.0003497319994494319,-0.0001332312385784462,-0.00016653904458507895
1761379044849236000,0.661236083984375,-0.00044965543202124536,-0.0002997702977154404,0.0006328483577817678
1761379044859262000,0.671261962890625,-0.00019984686514362693,-0.00046630934230051935,0.0005828866851516068
1761379044869289700,0.681289794921875,0.00009992343257181346,-0.00004996171628590673,-0.0006495022680610418
1761379044879315200,0.691315185546875,-0.0001332312385784462,0.00009992343257181346,0.0003497319994494319
1761379044889343700,0.70134375,-0.0004330015217419714,-0.0004330015217419714,-0.00044965543202124536
1761379044899367400,0.711367431640625,-0.0005329249543137848,-0.00019984686514362693,-0.000016653904822305776
1761379044909373000,0.721373046875,0.0002165007608709857,-0.0001332312385784462,0.00044965543202124536
1761379044919419400,0.73141943359375,0.0005162710440345109,-0.0007161179091781378,-0.0005828866851516068
1761379044929446000,0.74144580078125,0.0001498851488577202,0.00004996171628590673,0.0004163476114626974
1761379044939474200,0.75147412109375,-0.00024980856687761843,0.00016653904458507895,0.0001498851488577202
1761379044949498600,0.76149853515625,-0.0008160413126461208,-0.00046630934230051935,-0.00008326952229253948
1761379044959524900,0.77152490234375,-0.0001498851488577202,0.0005162710440345109,-0.0001498851488577202
1761379044969551000,0.781551025390625,0.00048296325257979333,-0.00016653904458507895,0.0003164241788908839
1761379044979581400,0.79158154296875,0.0008660030434839427,-0.0001498851488577202,0.00011657733557512984
1761379044989607200,0.801607177734375,0.0004996171337552369,0.00023315467115025967,-0.0004996171337552369
1761379044999611100,0.811611083984375,-0.00011657733557512984,0.000016653904822305776,0.00018319295486435294
1761379045009673000,0.8216728515625,0.00024980856687761843,-0.0006161945057101548,-0.0002831163874361664
1761379045019686000,0.831685791015625,0.00038303982000797987,-0.00019984686514362693,0.0004163476114626974
1761379045029708500,0.84170849609375,-0.00016653904458507895,-0.00039969373028725386,0.0003663859097287059
1761379045039700500,0.851700439453125,-0.00018319295486435294,0.00003330780964461155,-0.00003330780964461155
1761379045049760800,0.8617607421875,-0.00004996171628590673,-0.0002997702977154404,0.00038303982000797987
1761379045059786500,0.871786376953125,0.0005662327748723328,-0.0000666156192892231,-0.0002664624771568924
1761379045069830000,0.881829833984375,0.00016653904458507895,-0.0002831163874361664,-0.00024980856687761843
1761379045079841300,0.89184130859375,-0.0005995405954308808,0.0003663859097287059,-0.0004996171337552369
1761379045089849900,0.901849853515625,0.00039969373028725386,0.0005828866851516068,-0.0002165007608709857
1761379045099893000,0.91189306640625,0.00039969373028725386,-0.00008326952229253948,-0.0007494257297366858
1761379045109897700,0.921897705078125,-0.0003497319994494319,-0.000016653904822305776,0.00008326952229253948
1761379045119947000,0.931947021484375,0.00024980856687761843,0.00018319295486435294,0.00019984686514362693
1761379045129972500,0.941972412109375,0.00038303982000797987,0.0007660796400159597,0.00039969373028725386
1761379045139999200,0.951999267578125,-0.0001332312385784462,-0.00009992343257181346,0.00016653904458507895
1761379045150025700,0.962025634765625,-0.00016653904458507895,-0.0004163476114626974,-0.00044965543202124536
1761379045160052000,0.972052001953125,-0.00038303982000797987,0.0002831163874361664,0.00009992343257181346
1761379045170076200,0.982076171875,-0.0005162710440345109,0.00023315467115025967,-0.00011657733557512984
1761379045180104200,0.992104248046875,-0.0007993874605745077,-0.00024980856687761843,-0.0003164241788908839
1761379045190129700,1.002129638671875,-0.00024980856687761843,0.00023315467115025967,-0.0001498851488577202
1761379045200157200,1.0121572265625,0.00044965543202124536,-0.0003663859097287059,0.0004163476114626974
1761379045210182400,1.022182373046875,-0.0005662327748723328,0.00004996171628590673,0
1761379045220208400,1.03220849609375,-0.00024980856687761843,0.0003497319994494319,-0.0002664624771568924
1761379045230234600,1.042234619140625,-0.0012656967155635357,-0.0004330015217419714,0.0008160413126461208
1761379045240222700,1.05222265625,-0.0001498851488577202,-0.0005495788645930588,-0.00008326952229253948
1761379045250290700,1.062290771484375,-0.000016653904822305776,-0.00011657733557512984,0.00003330780964461155
1761379045260315000,1.07231494140625,0.0006161945057101548,-0.0005495788645930588,-0.0003497319994494319
1761379045270332700,1.082332763671875,0.0007161179091781378,-0.0008493491332046688,0.00009992343257181346
1761379045280375600,1.09237548828125,-0.0005162710440345109,-0.0005995405954308808,-0.00009992343257181346
1761379045290392600,1.102392578125,0.00044965543202124536,-0.00046630934230051935,0.000016653904822305776
1761379045300418800,1.112418701171875,0.000016653904822305776,-0.0008326952229253948,-0.0003164241788908839
1761379045310430000,1.122429931640625,0.0002664624771568924,-0.0005162710440345109,-0.0000666156192892231
1761379045320471000,1.132470947265625,-0.000016653904822305776,0,-0.00046630934230051935
1761379045330497000,1.1424970703125,0.0009159647743217647,-0.0007660796400159597,-0.0005162710440345109
1761379045340523500,1.1525234375,0.00024980856687761843,-0.0007327718194574118,-0.000016653904822305776
1761379045350549500,1.162549560546875,0,-0.0003164241788908839,-0.0005329249543137848
1761379045360582000,1.172581787109375,0,-0.0002997702977154404,0.0004163476114626974
1761379045370609700,1.182609619140625,-0.0000666156192892231,-0.00018319295486435294,0.00011657733557512984
1761379045380601300,1.192601318359375,-0.00008326952229253948,0.0006828100886195898,-0.0007327718194574118
1761379045390684200,1.20268408203125,0.0003497319994494319,0.0007327718194574118,-0.00016653904458507895
1761379045400685000,1.21268505859375,0.0002831163874361664,0.0005329249543137848,0.0005662327748723328
1761379045410709500,1.22270947265625,0.0002831163874361664,-0.0005828866851516068,0.0004996171337552369
1761379045420735500,1.232735595703125,-0.00009992343257181346,-0.0009659265051595867,0.0005995405954308808
1761379045430759400,1.242759521484375,0.00011657733557512984,0.00016653904458507895,-0.0002997702977154404
1761379045440764400,1.252764404296875,0.00011657733557512984,0.00024980856687761843,-0.00018319295486435294
1761379045450811400,1.262811279296875,-0.00008326952229253948,-0.0003497319994494319,-0.0003497319994494319
1761379045460838100,1.272838134765625,0.00046630934230051935,0.0002831163874361664,-0.00008326952229253948
1761379045470837000,1.2828369140625,0.0006161945057101548,-0.0001332312385784462,-0.0006828100886195898
1761379045480892400,1.292892333984375,0.00003330780964461155,0.00018319295486435294,-0.0006161945057101548
1761379045490919400,1.30291943359375,0,0.000016653904822305776,-0.00019984686514362693
1761379045500944400,1.3129443359375,-0.00004996171628590673,-0.0005828866851516068,-0.0006161945057101548
1761379045510947800,1.32294775390625,0.0002997702977154404,-0.00011657733557512984,-0.0010491959983482957
1761379045520994600,1.33299462890625,0.00039969373028725386,0.0005662327748723328,0.0005162710440345109
1761379045531021800,1.343021728515625,0.0004163476114626974,0.0006328483577817678,0.0006994639988988638
1761379045541047300,1.35304736328125,0.00004996171628590673,-0.0006161945057101548,-0.00003330780964461155
1761379045551052500,1.363052490234375,-0.00008326952229253948,0.0009825803572311997,0.0003164241788908839
1761379045561100000,1.37310009765625,0.0002165007608709857,0.00039969373028725386,0.0002831163874361664
1761379045571105800,1.383105712890625,-0.0002997702977154404,-0.00009992343257181346,-0.00018319295486435294
1761379045581152800,1.39315283203125,-0.0007327718194574118,0.0009492725948803127,0.00044965543202124536
1761379045591178000,1.403177978515625,-0.0005662327748723328,-0.000016653904822305776,-0.00008326952229253948
1761379045601205000,1.413205078125,-0.0005828866851516068,-0.00039969373028725386,-0.0007993874605745077
1761379045611231700,1.423231689453125,-0.0004996171337552369,0.0003330780891701579,-0.0003663859097287059
1761379045621258200,1.43325830078125,0.0003164241788908839,-0.0005329249543137848,0.00009992343257181346
1761379045631289000,1.4432890625,-0.00039969373028725386,-0.00003330780964461155,0.0005329249543137848
1761379045641310700,1.453310791015625,0.0002165007608709857,-0.00016653904458507895,0.00003330780964461155
1761379045651336400,1.46333642578125,0.000016653904822305776,-0.0009992342675104737,-0.0008660030434839427
1761379045661365000,1.473364990234375,0.0002664624771568924,-0.00038303982000797987,0.00039969373028725386
1761379045671369000,1.483368896484375,0.0003164241788908839,-0.00018319295486435294,-0.00024980856687761843
1761379045681416200,1.493416259765625,0.0005329249543137848,-0.0006495022680610418,-0.00009992343257181346
1761379045691441200,1.503441162109375,0.0003164241788908839,0.00003330780964461155,0.0006661561783403158
1761379045701463800,1.5134638671875,0.00008326952229253948,-0.0000666156192892231,0.00004996171628590673
1761379045711494400,1.523494384765625,0.0004163476114626974,0.00011657733557512984,0.00024980856687761843
1761379045721499100,1.5334990234375,0.0002997702977154404,-0.00003330780964461155,-0.0003330780891701579
1761379045731546400,1.54354638671875,-0.0003330780891701579,-0.00004996171628590673,-0.00003330780964461155
1761379045741578200,1.553578125,-0.00008326952229253948,-0.00038303982000797987,0.0002997702977154404
1761379045751607300,1.563607177734375,0.00018319295486435294,0.0004163476114626974,0.00023315467115025967
1761379045761610800,1.57361083984375,-0.0000666156192892231,0.00008326952229253948,-0.0005995405954308808
1761379045771614200,1.5836142578125,-0.00024980856687761843,0.0002831163874361664,-0.0004163476114626974
1761379045781675000,1.593675048828125,-0.0003164241788908839,0.00009992343257181346,-0.0005162710440345109
1761379045791704000,1.6037041015625,0.0004996171337552369,-0.0002664624771568924,-0.0009492725948803127
1761379045801730600,1.61373046875,-0.0002831163874361664,0.0004330015217419714,-0.00011657733557512984
1761379045811755800,1.623755859375,-0.0000666156192892231,0.0001332312385784462,-0.0009159647743217647
1761379045821782300,1.6337822265625,0.0008326952229253948,-0.00046630934230051935,-0.0010325420880690217
1761379045831809000,1.64380908203125,0.0000666156192892231,-0.00003330780964461155,-0.0006495022680610418
1761379045841835300,1.653835205078125,0.0001332312385784462,0.00046630934230051935,-0.0013323123566806316
1761379045851861500,1.663861572265625,-0.00008326952229253948,0.0003497319994494319,-0.0014322358183562756
1761379045861887700,1.6738876953125,0.00009992343257181346,-0.00023315467115025967,-0.0005995405954308808
1761379045871907800,1.683907958984375,0.0001498851488577202,-0.0005162710440345109,-0.00008326952229253948
1761379045881940200,1.693940185546875,-0.0003164241788908839,-0.00046630934230051935,-0.00004996171628590673
1761379045891966500,1.703966552734375,-0.00038303982000797987,-0.0005329249543137848,-0.0003164241788908839
1761379045901993200,1.7139931640625,0.0003164241788908839,0.00004996171628590673,-0.0007827335502952337
1761379045912018700,1.724018798828125,0,-0.0002165007608709857,0.00016653904458507895
1761379045922044700,1.734044677734375,0.0002831163874361664,-0.00018319295486435294,0.0003663859097287059
1761379045932071000,1.74407080078125,0.00024980856687761843,-0.0002664624771568924,0.00024980856687761843
1761379045942099000,1.754098876953125,0.0004330015217419714,0.00046630934230051935,0.0001498851488577202
1761379045952123600,1.76412353515625,0.0002664624771568924,0.0003663859097287059,-0.00016653904458507895
1761379045962149600,1.774149658203125,0.00009992343257181346,-0.00019984686514362693,-0.0001498851488577202
1761379045972176100,1.784176025390625,0.0005495788645930588,0.00003330780964461155,0.0006994639988988638
1761379045982202600,1.79420263671875,0.0003164241788908839,0.0000666156192892231,-0.0008826569537632167
1761379045992228900,1.804228759765625,0.00024980856687761843,-0.000016653904822305776,-0.0003663859097287059
1761379046002256000,1.814255859375,0.0002831163874361664,-0.0005162710440345109,0.00008326952229253948
1761379046012284700,1.82428466796875,-0.0000666156192892231,-0.0001498851488577202,-0.0003497319994494319
1761379046022308600,1.83430859375,-0.00016653904458507895,0.0003164241788908839,0.0001498851488577202
1761379046032334600,1.84433447265625,0.00019984686514362693,0.00048296325257979333,-0.0004996171337552369
1761379046042363100,1.854363037109375,0.0005662327748723328,0.00046630934230051935,-0.0007660796400159597
1761379046052386600,1.864386474609375,0.00003330780964461155,-0.00038303982000797987,0.0002664624771568924
1761379046062411800,1.874411865234375,0.0002165007608709857,0.0002831163874361664,0.00018319295486435294
1761379046072422100,1.884422119140625,-0.00004996171628590673,-0.0004330015217419714,-0.00039969373028725386
1761379046082464800,1.89446484375,-0.0003330780891701579,-0.0006161945057101548,0
1761379046092490500,1.904490478515625,0.0005828866851516068,0.00018319295486435294,-0.0002664624771568924
1761379046102489600,1.914489501953125,-0.0003164241788908839,-0.0005662327748723328,-0.00024980856687761843
1761379046112543000,1.92454296875,-0.00044965543202124536,0.00011657733557512984,0.0002831163874361664
1761379046122573600,1.934573486328125,-0.00023315467115025967,0.00046630934230051935,0.0007161179091781378
1761379046132578600,1.94457861328125,0.00018319295486435294,-0.0007494257297366858,-0.00011657733557512984
1761379046142608600,1.954608642578125,0.0006161945057101548,0.0005828866851516068,-0.00024980856687761843
1761379046152626200,1.964626220703125,0.00004996171628590673,-0.00038303982000797987,0.0010158881777897477
1761379046162676700,1.9746767578125,-0.00019984686514362693,-0.0001332312385784462,-0.0005329249543137848
1761379046172700400,1.984700439453125,-0.00038303982000797987,0.00004996171628590673,-0.00018319295486435294
1761379046182727400,1.9947275390625,0.00009992343257181346,-0.00039969373028725386,0.00003330780964461155
1761379046192753200,2.004753173828125,-0.00024980856687761843,-0.0006161945057101548,0.0003330780891701579
1761379046202780700,2.01478076171875,-0.0001332312385784462,0.00023315467115025967,0.00046630934230051935
1761379046212806100,2.02480615234375,0.00004996171628590673,0.0007494257297366858,0.00039969373028725386
1761379046222832000,2.03483203125,0.00004996171628590673,-0.0001498851488577202,0.0010491959983482957
1761379046232842200,2.04484228515625,-0.0005162710440345109,-0.0005495788645930588,-0.00024980856687761843
1761379046242884000,2.054884033203125,-0.00008326952229253948,-0.0004996171337552369,-0.00044965543202124536
1761379046252911400,2.064911376953125,0.0003330780891701579,0.00016653904458507895,-0.00023315467115025967
1761379046262936600,2.0749365234375,0.00008326952229253948,-0.0001332312385784462,0.00018319295486435294
1761379046272948000,2.084947998046875,-0.0002165007608709857,-0.0003330780891701579,0.00039969373028725386
1761379046282990800,2.094990966796875,0.0004330015217419714,-0.0003497319994494319,0.0007161179091781378
1761379046293014500,2.1050146484375,-0.00011657733557512984,-0.0004163476114626974,-0.00023315467115025967
1761379046303043000,2.11504296875,0.0001332312385784462,0.0002997702977154404,-0.00039969373028725386
1761379046313068300,2.125068359375,-0.000016653904822305776,0.0004163476114626974,-0.00016653904458507895
1761379046323094000,2.135093994140625,-0.0002664624771568924,0.00019984686514362693,-0.0003497319994494319
1761379046333098800,2.1450986328125,-0.00008326952229253948,-0.0003330780891701579,0.00018319295486435294
1761379046343147000,2.15514697265625,0,-0.00024980856687761843,0.0007660796400159597
1761379046353188000,2.16518798828125,0.0002831163874361664,-0.0007494257297366858,0.00023315467115025967
1761379046363200000,2.175199951171875,-0.00024980856687761843,0.00004996171628590673,0.0006328483577817678
1761379046373225700,2.185225830078125,-0.00046630934230051935,0.0000666156192892231,0.0002664624771568924
1761379046383209000,2.195208984375,0.0001498851488577202,-0.0005329249543137848,0.0004996171337552369
1761379046393284400,2.205284423828125,0.0000666156192892231,0.00023315467115025967,0.0002664624771568924
1761379046403308500,2.21530859375,0.00004996171628590673,-0.00019984686514362693,0.0006994639988988638
1761379046413334500,2.22533447265625,-0.0004330015217419714,-0.0000666156192892231,0.0001332312385784462
1761379046423335200,2.235335205078125,-0.00016653904458507895,0.0003164241788908839,-0.0006328483577817678
1761379046433384200,2.24538427734375,-0.00024980856687761843,0.0003497319994494319,-0.0006994639988988638
1761379046443410400,2.255410400390625,0.00008326952229253948,-0.00011657733557512984,-0.00003330780964461155
1761379046453420800,2.2654208984375,0.0002165007608709857,0.0003330780891701579,-0.0011491194600239396
1761379046463462700,2.275462646484375,0.000016653904822305776,-0.00016653904458507895,-0.0004330015217419714
1761379046473489000,2.285489013671875,0.0004330015217419714,0.00046630934230051935,-0.0008660030434839427
1761379046483513900,2.295513916015625,0.00038303982000797987,0.00009992343257181346,-0.0007494257297366858
1761379046493540400,2.305540283203125,-0.00003330780964461155,0.0003497319994494319,-0.0013656201772391796
1761379046503571500,2.315571533203125,0,-0.00016653904458507895,0.0009659265051595867
1761379046513601800,2.325601806640625,0.00004996171628590673,0.0009326186846010387,0.0002831163874361664
1761379046523601400,2.335601318359375,-0.00019984686514362693,-0.0004330015217419714,0.00011657733557512984
1761379046533624600,2.34562451171875,-0.0002664624771568924,0.0001332312385784462,0.0006661561783403158
1761379046543676200,2.35567626953125,-0.00044965543202124536,0.00016653904458507895,0
1761379046553693200,2.365693115234375,-0.00023315467115025967,-0.0008326952229253948,0.0002831163874361664
1761379046563723800,2.375723876953125,-0.00003330780964461155,0.0012157351011410356,-0.0002997702977154404
1761379046573750500,2.38575048828125,0.0002831163874361664,-0.0005828866851516068,0.00004996171628590673
1761379046583801900,2.3958017578125,-0.0005828866851516068,-0.00009992343257181346,-0.00046630934230051935
1761379046593803000,2.405802978515625,-0.0004996171337552369,0.0006828100886195898,-0.0004163476114626974
1761379046603829200,2.415829345703125,-0.00018319295486435294,-0.0005495788645930588,0.0000666156192892231
1761379046613856500,2.4258564453125,0.0005495788645930588,-0.0006161945057101548,0.0002165007608709857
1761379046623881700,2.4358818359375,0.00048296325257979333,0.0007161179091781378,-0.0002165007608709857
1761379046633908000,2.445907958984375,0.0004330015217419714,-0.0003330780891701579,-0.00016653904458507895
1761379046643935000,2.45593505859375,-0.000016653904822305776,-0.00024980856687761843,-0.0007993874605745077
1761379046653939000,2.46593896484375,-0.0006994639988988638,0.0003330780891701579,0
1761379046663987200,2.4759873046875,-0.0002165007608709857,-0.00023315467115025967,0.00044965543202124536
1761379046674012700,2.4860126953125,0.00003330780964461155,-0.00003330780964461155,0.0005495788645930588
1761379046684039200,2.4960390625,-0.00011657733557512984,0.0003497319994494319,0.00004996171628590673
1761379046694065400,2.5060654296875,0.0003164241788908839,-0.0007161179091781378,0.00046630934230051935
1761379046704092000,2.516091796875,0.0002165007608709857,0.00018319295486435294,0.00044965543202124536
1761379046714118100,2.5261181640625,0.0003663859097287059,-0.0003330780891701579,-0.00024980856687761843
1761379046724144400,2.536144287109375,-0.00011657733557512984,-0.0010491959983482957,0.00038303982000797987
1761379046734170000,2.546170166015625,0.00018319295486435294,-0.00024980856687761843,-0.0001332312385784462
1761379046744196400,2.5561962890625,-0.00024980856687761843,-0.0003164241788908839,0.00046630934230051935
1761379046754201000,2.566201171875,0.00004996171628590673,0.0000666156192892231,0.00011657733557512984
1761379046764250400,2.57625048828125,-0.00003330780964461155,0.000016653904822305776,0.00018319295486435294
1761379046774280400,2.586280517578125,-0.0001332312385784462,-0.00003330780964461155,-0.00009992343257181346
1761379046784285200,2.59628515625,0.00024980856687761843,-0.00009992343257181346,-0.00003330780964461155
1761379046794329600,2.60632958984375,0.0007827335502952337,-0.00016653904458507895,-0.000016653904822305776
1761379046804354000,2.61635400390625,0,0.0006661561783403158,-0.0008993108640424907
1761379046814384000,2.626384033203125,0.0005162710440345109,-0.000016653904822305776,-0.00019984686514362693
1761379046824405000,2.636405029296875,0.00044965543202124536,0.000016653904822305776,-0.00004996171628590673
1761379046834431200,2.64643115234375,0.0002831163874361664,-0.00023315467115025967,0.0000666156192892231
1761379046844457000,2.65645703125,0.00046630934230051935,0.0001332312385784462,0.00038303982000797987
1761379046854483700,2.666483642578125,0.00008326952229253948,-0.0002831163874361664,-0.00004996171628590673
1761379046864511500,2.676511474609375,0.00008326952229253948,-0.0001332312385784462,0.00023315467115025967
1761379046874538500,2.68653857421875,0.0002165007608709857,-0.00039969373028725386,0.00008326952229253948
1761379046884567600,2.696567626953125,-0.000016653904822305776,-0.00008326952229253948,-0.00004996171628590673
1761379046894592500,2.706592529296875,-0.00046630934230051935,-0.0005662327748723328,0.0001332312385784462
1761379046904596000,2.716595947265625,-0.0004163476114626974,-0.0001498851488577202,-0.0006161945057101548
1761379046914620000,2.726619873046875,0.000016653904822305776,-0.00003330780964461155,-0.00046630934230051935
1761379046924674000,2.736674072265625,-0.0000666156192892231,-0.0005329249543137848,0.0007327718194574118
1761379046934677500,2.746677490234375,-0.0007993874605745077,-0.00048296325257979333,-0.0001498851488577202
1761379046944721200,2.75672119140625,0.0006828100886195898,-0.0004163476114626974,-0.0003330780891701579
1761379046954747000,2.766746826171875,-0.0006661561783403158,0.0001332312385784462,-0.0002165007608709857
1761379046964773400,2.7767734375,0.00004996171628590673,0.0007993874605745077,0.0002831163874361664
1761379046974800100,2.786800048828125,0.00018319295486435294,-0.0008493491332046688,-0.00008326952229253948
1761379046984828000,2.796827880859375,0.0003497319994494319,-0.0007327718194574118,0.00003330780964461155
1761379046994850800,2.806850830078125,0.00023315467115025967,-0.0000666156192892231,-0.0006828100886195898
1761379047004877600,2.816877685546875,-0.0006161945057101548,0.0003330780891701579,0.0000666156192892231
1761379047014903300,2.8269033203125,-0.00003330780964461155,0.00019984686514362693,-0.0002997702977154404
1761379047024929500,2.836929443359375,-0.0003497319994494319,0.0002664624771568924,-0.0004330015217419714
1761379047034956500,2.84695654296875,0.00016653904458507895,-0.00023315467115025967,-0.0003497319994494319
1761379047044982000,2.85698193359375,-0.00024980856687761843,-0.0002997702977154404,0
1761379047055008300,2.86700830078125,-0.0000666156192892231,-0.0000666156192892231,0.00009992343257181346
1761379047065034500,2.877034423828125,-0.0002165007608709857,0.00046630934230051935,0.0007327718194574118
1761379047075060500,2.887060546875,-0.00018319295486435294,-0.0003663859097287059,0.0000666156192892231
1761379047085069800,2.89706982421875,0.0003497319994494319,-0.00046630934230051935,0.0002997702977154404
1761379047095113200,2.90711328125,0.00023315467115025967,-0.000016653904822305776,0.0002997702977154404
1761379047105139500,2.917139404296875,-0.000016653904822305776,0.00038303982000797987,0.00009992343257181346
1761379047115145000,2.92714501953125,-0.00003330780964461155,-0.00003330780964461155,-0.0000666156192892231
1761379047125191400,2.93719140625,0,-0.00018319295486435294,-0.00048296325257979333
1761379047135219000,2.947218994140625,-0.00048296325257979333,-0.0004996171337552369,0.00004996171628590673
1761379047145244700,2.95724462890625,0.0002997702977154404,0.00008326952229253948,0.0011990811908617616
1761379047155264500,2.967264404296875,-0.00023315467115025967,0.00011657733557512984,0.0001498851488577202
1761379047165298200,2.977298095703125,0.00004996171628590673,-0.00023315467115025967,-0.00016653904458507895
1761379047175325400,2.987325439453125,-0.0005995405954308808,-0.00003330780964461155,-0.0005662327748723328
1761379047185349600,2.997349609375,0.0003497319994494319,-0.0002997702977154404,-0.00003330780964461155
1761379047195375600,3.007375732421875,0.0005162710440345109,-0.000016653904822305776,0.0005995405954308808
1761379047205401900,3.01740185546875,0.0007660796400159597,-0.00019984686514362693,-0.00009992343257181346
1761379047215428000,3.027427978515625,0.0003497319994494319,0.0001332312385784462,0.0004996171337552369
1761379047225454300,3.037454345703125,0.0002997702977154404,-0.00038303982000797987,0.0003330780891701579
1761379047235481000,3.047481201171875,0.0008826569537632167,0.0005995405954308808,0.0002165007608709857
1761379047245506600,3.057506591796875,0.0000666156192892231,-0.0003330780891701579,0.0007494257297366858
1761379047255533300,3.067533203125,0,0.0002165007608709857,0.0007993874605745077
1761379047265559300,3.077559326171875,-0.00011657733557512984,-0.0009159647743217647,0.0005162710440345109
1761379047275592000,3.087592041015625,-0.0002997702977154404,0.0003164241788908839,0.00039969373028725386
1761379047285606700,3.097606689453125,-0.0003330780891701579,-0.0006495022680610418,-0.0001498851488577202
1761379047295617000,3.107616943359375,0.0002997702977154404,-0.0003663859097287059,0.00023315467115025967
1761379047305676800,3.1176767578125,0.00009992343257181346,0.0003330780891701579,0.00019984686514362693
1761379047315689000,3.12768896484375,-0.0006495022680610418,0.00023315467115025967,0.0005162710440345109
1761379047325717800,3.1377177734375,-0.00024980856687761843,0.000016653904822305776,0.0001498851488577202
1761379047335745500,3.14774560546875,-0.00023315467115025967,0.00008326952229253948,0.0001332312385784462
1761379047345771000,3.15777099609375,-0.0001498851488577202,-0.00018319295486435294,0.00038303982000797987
1761379047355797800,3.1677978515625,-0.00024980856687761843,-0.00019984686514362693,0.00044965543202124536
1761379047365824800,3.17782470703125,-0.0002997702977154404,-0.0004330015217419714,-0.0005995405954308808
1761379047375849700,3.187849609375,0.0003497319994494319,-0.00046630934230051935,-0.00039969373028725386
1761379047385875200,3.197875244140625,0.00008326952229253948,0.00038303982000797987,-0.0003330780891701579
1761379047395902200,3.207902099609375,0.0003497319994494319,0.0008160413126461208,-0.0005995405954308808
1761379047405928000,3.217927978515625,-0.0007161179091781378,-0.00038303982000797987,0.00004996171628590673
1761379047415955000,3.227954833984375,-0.0007827335502952337,0.0004330015217419714,-0.0003330780891701579
1761379047425981200,3.237981201171875,-0.0002831163874361664,0,0.0010491959983482957
1761379047436007700,3.248007568359375,0.0005995405954308808,-0.0009326186846010387,-0.0003330780891701579
1761379047446007000,3.258007080078125,-0.0004163476114626974,0.0001332312385784462,-0.00011657733557512984
1761379047456059600,3.2680595703125,-0.0005662327748723328,0.0007993874605745077,0.0000666156192892231
1761379047466086400,3.27808642578125,-0.00004996171628590673,-0.0007660796400159597,0.0009326186846010387
1761379047476113400,3.288113525390625,-0.00009992343257181346,0.0008493491332046688,0.00038303982000797987
1761379047486120700,3.29812060546875,-0.00044965543202124536,0.00004996171628590673,0.00024980856687761843
1761379047496142300,3.308142333984375,-0.0005662327748723328,-0.0006994639988988638,0.0002997702977154404
1761379047506192400,3.3181923828125,-0.00008326952229253948,-0.000016653904822305776,0.0001498851488577202
1761379047516198100,3.3281982421875,-0.0006661561783403158,0.00023315467115025967,-0.00008326952229253948
1761379047526243800,3.338243896484375,0.000016653904822305776,-0.0007993874605745077,0
1761379047536270000,3.34827001953125,-0.0004996171337552369,0.0003164241788908839,0.00024980856687761843
1761379047546295600,3.358295654296875,0.00019984686514362693,0.0004163476114626974,-0.0004996171337552369
1761379047556322600,3.368322509765625,-0.00011657733557512984,-0.0007494257297366858,-0.0004996171337552369
1761379047566349600,3.378349609375,-0.00018319295486435294,-0.0000666156192892231,-0.0006661561783403158
1761379047576374300,3.388374267578125,-0.0002831163874361664,0.0009825803572311997,0.0004996171337552369
1761379047586401000,3.398401123046875,0.0005162710440345109,0.00016653904458507895,0.0004163476114626974
1761379047596427000,3.408427001953125,-0.0003164241788908839,-0.0000666156192892231,0.0005662327748723328
1761379047606453500,3.41845361328125,-0.00019984686514362693,0.00009992343257181346,0.00016653904458507895
1761379047616457200,3.428457275390625,-0.000016653904822305776,0.0007161179091781378,0.00011657733557512984
1761379047626506500,3.438506591796875,0.00016653904458507895,-0.00003330780964461155,-0.0002165007608709857
1761379047636532200,3.4485322265625,0.00008326952229253948,0.00039969373028725386,0.0003663859097287059
1761379047646519300,3.458519287109375,-0.0007327718194574118,-0.0003497319994494319,-0.00019984686514362693
1761379047656585000,3.4685849609375,-0.0004163476114626974,0.0002165007608709857,0.000016653904822305776
1761379047666582000,3.47858203125,0.00046630934230051935,-0.00024980856687761843,-0.0003330780891701579
1761379047676637200,3.48863720703125,0.00019984686514362693,-0.0003330780891701579,0.00003330780964461155
1761379047686642400,3.498642333984375,0.00008326952229253948,0,0.00038303982000797987
1761379047696689700,3.508689697265625,0.00023315467115025967,0.0003497319994494319,-0.0006495022680610418
1761379047706716200,3.518716064453125,0.0007327718194574118,-0.00016653904458507895,0.0004330015217419714
1761379047716740900,3.528740966796875,0.0009159647743217647,0.00003330780964461155,-0.00009992343257181346
1761379047726769700,3.538769775390625,-0.0005329249543137848,0.0002831163874361664,-0.00048296325257979333
1761379047736795100,3.548795166015625,-0.00024980856687761843,-0.0000666156192892231,-0.0005662327748723328
1761379047746820900,3.55882080078125,-0.00038303982000797987,-0.0001332312385784462,-0.0006161945057101548
1761379047756847400,3.568847412109375,0.0001332312385784462,-0.0005662327748723328,-0.0003497319994494319
1761379047766873000,3.578873046875,0.0005495788645930588,-0.00038303982000797987,-0.0005828866851516068
1761379047776899800,3.58889990234375,-0.00008326952229253948,-0.0003663859097287059,-0.0004330015217419714
1761379047786925600,3.598925537109375,-0.0001498851488577202,0.00019984686514362693,0.00011657733557512984
1761379047796952600,3.60895263671875,-0.0005495788645930588,0.00008326952229253948,0.00024980856687761843
1761379047806978000,3.61897802734375,-0.0010158881777897477,-0.0000666156192892231,0.00048296325257979333
1761379047816983000,3.628983154296875,-0.0005329249543137848,-0.0004163476114626974,-0.00039969373028725386
1761379047827030800,3.63903076171875,0.00019984686514362693,0.0005329249543137848,0.000016653904822305776
1761379047837057000,3.64905712890625,0.00024980856687761843,0.00038303982000797987,0.00011657733557512984
1761379047847077000,3.6590771484375,-0.00009992343257181346,0.0003663859097287059,0.00003330780964461155
1761379047857109000,3.66910888671875,0.0005828866851516068,0.0001498851488577202,0.00044965543202124536
1761379047867136800,3.67913671875,0.0000666156192892231,-0.0005995405954308808,0.00003330780964461155
1761379047877162500,3.68916259765625,0.0006161945057101548,-0.0004330015217419714,-0.000016653904822305776
1761379047887188000,3.69918798828125,0.00003330780964461155,0.00024980856687761843,0.00008326952229253948
1761379047897214500,3.70921435546875,-0.00018319295486435294,-0.0002831163874361664,0
1761379047907241000,3.719240966796875,0.00004996171628590673,-0.0005662327748723328,-0.00004996171628590673
1761379047917266700,3.7292666015625,-0.00016653904458507895,-0.0001498851488577202,0.0005995405954308808
1761379047927293400,3.73929345703125,0.00009992343257181346,0.0003663859097287059,0.0002165007608709857
1761379047937320200,3.7493203125,-0.0003497319994494319,-0.0003497319994494319,-0.0002165007608709857
1761379047947346400,3.759346435546875,0.0004330015217419714,-0.00019984686514362693,-0.000016653904822305776
1761379047957372700,3.76937255859375,0.00018319295486435294,-0.00016653904458507895,0.0002165007608709857
1761379047967398400,3.7793984375,0.00003330780964461155,-0.0000666156192892231,-0.00008326952229253948
1761379047977424600,3.789424560546875,0.00016653904458507895,0.0000666156192892231,0.0001332312385784462
1761379047987450600,3.79945068359375,0.00023315467115025967,0.00004996171628590673,0.00038303982000797987
1761379047997477000,3.80947705078125,-0.0005495788645930588,-0.0001498851488577202,-0.00004996171628590673
1761379048007503000,3.819503173828125,0.0004330015217419714,0.00016653904458507895,-0.0002664624771568924
1761379048017511700,3.82951171875,0.00018319295486435294,-0.0005828866851516068,0.0005995405954308808
1761379048027537000,3.839536865234375,-0.0004163476114626974,-0.0003164241788908839,0.00009992343257181346
1761379048037581600,3.84958154296875,0.00008326952229253948,-0.0001498851488577202,0.00023315467115025967
1761379048047569700,3.859569580078125,-0.000016653904822305776,0.0008160413126461208,0.0003497319994494319
1761379048057634300,3.86963427734375,0.000016653904822305776,0.00003330780964461155,0.0005828866851516068
1761379048067660500,3.87966064453125,-0.0006828100886195898,-0.000016653904822305776,0.00018319295486435294
1761379048077687000,3.88968701171875,-0.00011657733557512984,0.00003330780964461155,0.0002997702977154404
1761379048087712800,3.899712646484375,0.00003330780964461155,0.0002831163874361664,-0.00018319295486435294
1761379048097740300,3.909740234375,0.00019984686514362693,0.00019984686514362693,-0.00023315467115025967
1761379048107765800,3.919765869140625,0.00003330780964461155,0.00003330780964461155,0.00004996171628590673
1761379048117791700,3.929791748046875,-0.00019984686514362693,-0.00011657733557512984,0.0008493491332046688
1761379048127818000,3.93981787109375,-0.00019984686514362693,0.0002831163874361664,-0.00009992343257181346
1761379048137844000,3.949843994140625,0.0002831163874361664,-0.0001498851488577202,-0.00016653904458507895
1761379048147871700,3.959871826171875,-0.00024980856687761843,-0.00009992343257181346,-0.00004996171628590673
1761379048157897000,3.96989697265625,0.0004330015217419714,0.0002165007608709857,0.00003330780964461155
1761379048167923200,3.979923095703125,0.0008493491332046688,-0.0003164241788908839,-0.00016653904458507895
1761379048177918200,3.989918212890625,-0.00039969373028725386,-0.0012490428052842617,0.0007161179091781378
1761379048187975700,3.9999755859375,-0.00023315467115025967,-0.0002165007608709857,-0.0004330015217419714
1761379048197994800,4.009994873046875,-0.0006328483577817678,0.00011657733557512984,0.00004996171628590673
1761379048208028000,4.02002783203125,-0.00009992343257181346,0.0004996171337552369,0.00018319295486435294
1761379048218051600,4.030051513671875,0.0002997702977154404,0.00008326952229253948,-0.0007327718194574118
1761379048228080000,4.040080078125,0.00039969373028725386,0.00044965543202124536,-0.00048296325257979333
1761379048238107000,4.05010693359375,0.00003330780964461155,0.0002831163874361664,0.0003497319994494319
1761379048248132900,4.0601328125,-0.00009992343257181346,-0.00038303982000797987,-0.0003164241788908839
1761379048258159600,4.07015966796875,0.00003330780964461155,0.0004163476114626974,0.0005329249543137848
1761379048268185300,4.080185302734375,0.00003330780964461155,0.0009492725948803127,0.0002997702977154404
1761379048278213000,4.090213134765625,-0.000016653904822305776,0.0003330780891701579,-0.0002664624771568924
1761379048288238000,4.100238037109375,0.0001332312385784462,-0.0002165007608709857,0.0005662327748723328
1761379048298263800,4.110263916015625,-0.0001498851488577202,0.0001332312385784462,0.00046630934230051935
1761379048308291000,4.120291015625,0.00008326952229253948,-0.00023315467115025967,0.00003330780964461155
1761379048318317000,4.130317138671875,-0.00004996171628590673,-0.00009992343257181346,0.00008326952229253948
1761379048328343000,4.140343017578125,0.00009992343257181346,-0.0006828100886195898,0.00016653904458507895
1761379048338369000,4.150369140625,-0.0007161179091781378,-0.000016653904822305776,0.0002165007608709857
1761379048348375800,4.160375732421875,0.000016653904822305776,0.0002831163874361664,0.00018319295486435294
1761379048358421200,4.170421142578125,-0.0005162710440345109,-0.0002997702977154404,-0.0002997702977154404
1761379048368448000,4.180447998046875,-0.0002831163874361664,-0.0003330780891701579,0.0004330015217419714
1761379048378452700,4.19045263671875,0.00019984686514362693,0.0001498851488577202,-0.00016653904458507895
1761379048388501000,4.2005009765625,-0.00003330780964461155,-0.0002831163874361664,-0.0009326186846010387
1761379048398526000,4.21052587890625,0,0.00004996171628590673,-0.0004996171337552369
1761379048408553200,4.22055322265625,-0.00024980856687761843,0.00009992343257181346,0.000016653904822305776
1761379048418588000,4.230587890625,-0.00003330780964461155,-0.0004163476114626974,-0.0001332312385784462
1761379048428583700,4.240583740234375,0.0006161945057101548,0.00008326952229253948,0.0008326952229253948
1761379048438631700,4.250631591796875,0.00003330780964461155,0.0011158116394653916,0.0007660796400159597
1761379048448657400,4.260657470703125,0.00008326952229253948,-0.0009825803572311997,0.00003330780964461155
1761379048458683600,4.27068359375,-0.0004163476114626974,-0.0003164241788908839,0.0008660030434839427
1761379048468710100,4.280710205078125,-0.0004996171337552369,0.0004330015217419714,0.0005828866851516068
1761379048478736400,4.290736328125,-0.0004163476114626974,-0.0006828100886195898,0.0002997702977154404
1761379048488763000,4.300762939453125,-0.0002997702977154404,0.0004330015217419714,-0.00018319295486435294
1761379048498788000,4.3107880859375,-0.0004163476114626974,0.0008160413126461208,-0.00018319295486435294
1761379048508815000,4.320815185546875,0.0002165007608709857,-0.0006828100886195898,0.0003663859097287059
1761379048518842400,4.33084228515625,-0.00003330780964461155,0.00039969373028725386,-0.00038303982000797987
1761379048528867600,4.34086767578125,0.00046630934230051935,0.0007660796400159597,0.0005995405954308808
1761379048538894000,4.35089404296875,0.0003497319994494319,-0.0010658499086275697,-0.0006161945057101548
1761379048548911900,4.360911865234375,-0.0002997702977154404,0.0007827335502952337,-0.0004996171337552369
1761379048558945800,4.37094580078125,-0.0003330780891701579,0.0008493491332046688,-0.0005162710440345109
1761379048568972000,4.380971923828125,-0.0003330780891701579,-0.0001332312385784462,0.00024980856687761843
1761379048578976300,4.390976318359375,0.00003330780964461155,0.0003330780891701579,0.0003663859097287059
1761379048589025800,4.40102587890625,0.000016653904822305776,0.0005495788645930588,0.0007660796400159597
1761379048599050800,4.41105078125,0.00038303982000797987,-0.00044965543202124536,0.0006828100886195898
1761379048609078000,4.421078125,0.00008326952229253948,0.0002831163874361664,0.0003164241788908839
1761379048619103500,4.431103515625,-0.0007161179091781378,0.0001332312385784462,0.0003663859097287059
1761379048629130000,4.4411298828125,-0.00039969373028725386,-0.00023315467115025967,-0.00024980856687761843
1761379048639156200,4.45115625,-0.0007660796400159597,0.00018319295486435294,-0.00044965543202124536
1761379048649182500,4.461182373046875,-0.0002997702977154404,0.00011657733557512984,-0.00018319295486435294
1761379048659208700,4.471208740234375,0.0001498851488577202,0.00018319295486435294,-0.00048296325257979333
1761379048669235200,4.481235107421875,0.0005329249543137848,-0.00009992343257181346,0.0006495022680610418
1761379048679261700,4.49126171875,-0.00003330780964461155,-0.00044965543202124536,0.0007827335502952337
1761379048689287400,4.501287353515625,0.0004996171337552369,-0.0003330780891701579,-0.0003164241788908839
1761379048699313200,4.511313232421875,0.00044965543202124536,0.0002664624771568924,0.0000666156192892231
1761379048709340000,4.52133984375,-0.00009992343257181346,-0.0002997702977154404,0.00024980856687761843
1761379048719367700,4.53136767578125,-0.00004996171628590673,-0.0003164241788908839,-0.0006994639988988638
1761379048729391900,4.541391845703125,-0.00016653904458507895,0.0003330780891701579,0.0006994639988988638
1761379048739419100,4.551419189453125,-0.00018319295486435294,0.00009992343257181346,0.0002664624771568924
1761379048749445400,4.5614453125,-0.0005162710440345109,-0.0002664624771568924,0.0002831163874361664
1761379048759471400,4.571471435546875,-0.0005828866851516068,-0.00004996171628590673,0.0008493491332046688
1761379048769497000,4.5814970703125,-0.000016653904822305776,0.00019984686514362693,0.00023315467115025967
1761379048779504000,4.591504150390625,0.0003330780891701579,-0.00003330780964461155,-0.00004996171628590673
1761379048789550000,4.601550048828125,-0.0004163476114626974,0.0001332312385784462,0.0013156584464013577
1761379048799576300,4.611576416015625,-0.0010658499086275697,-0.0004996171337552369,0.0002831163874361664
1761379048809597200,4.62159716796875,-0.0001498851488577202,-0.0000666156192892231,0.0001332312385784462
1761379048819630600,4.631630615234375,-0.0002165007608709857,-0.00019984686514362693,0.0010991577291861176
1761379048829655300,4.6416552734375,0.00004996171628590673,0.0003497319994494319,0.0005329249543137848
1761379048839681800,4.651681884765625,-0.0001332312385784462,0.0002664624771568924,-0.0004330015217419714
1761379048849690000,4.661690185546875,-0.0006161945057101548,0.000016653904822305776,0.00011657733557512984
1761379048859733500,4.6717333984375,0.00023315467115025967,0.0003330780891701579,-0.00004996171628590673
1761379048869759500,4.681759521484375,-0.0002831163874361664,0.00004996171628590673,0.0002664624771568924
1761379048879763000,4.691762939453125,0.0002664624771568924,-0.00004996171628590673,0.0000666156192892231
1761379048889811700,4.701811767578125,0.00004996171628590673,0.00003330780964461155,-0.00004996171628590673
1761379048899838000,4.711837890625,-0.00004996171628590673,0.000016653904822305776,-0.00008326952229253948
1761379048909865000,4.721864990234375,0.0006661561783403158,0.00008326952229253948,-0.0002165007608709857
1761379048919890400,4.731890380859375,0.00008326952229253948,0.0002664624771568924,-0.00004996171628590673
1761379048929917400,4.74191748046875,0.00003330780964461155,0.0006994639988988638,0.0003164241788908839
1761379048939943400,4.751943359375,0.0004330015217419714,-0.0001498851488577202,-0.0005329249543137848
1761379048949969700,4.7619697265625,-0.00008326952229253948,-0.0003164241788908839,-0.00044965543202124536
1761379048959997000,4.771996826171875,-0.0002831163874361664,-0.0000666156192892231,0.00024980856687761843
1761379048970021400,4.782021484375,-0.0001332312385784462,0.0005329249543137848,-0.0001498851488577202
1761379048980037400,4.792037353515625,-0.00004996171628590673,0.0007327718194574118,0.00019984686514362693
1761379048990075600,4.80207568359375,0.0001498851488577202,0.000016653904822305776,0.00003330780964461155
1761379049000101600,4.8121015625,0.0005828866851516068,0.00039969373028725386,-0.00038303982000797987
1761379049010107400,4.822107421875,-0.0002997702977154404,-0.0007993874605745077,0.0001332312385784462
1761379049020153300,4.8321533203125,0.0002165007608709857,0.00011657733557512984,0.00004996171628590673
1761379049030179600,4.8421796875,0.00038303982000797987,-0.00024980856687761843,-0.0005495788645930588
1761379049040205800,4.852205810546875,-0.000016653904822305776,-0.0004330015217419714,-0.0002165007608709857
1761379049050212600,4.862212646484375,0.0005662327748723328,0.0002831163874361664,0.0002664624771568924
1761379049060258300,4.87225830078125,0.0002165007608709857,-0.0000666156192892231,-0.0001332312385784462
1761379049070285600,4.88228564453125,-0.0005329249543137848,-0.0008326952229253948,-0.0003663859097287059
1761379049080310800,4.892310791015625,0.00018319295486435294,0.0005662327748723328,0.0003330780891701579
1761379049090337500,4.902337646484375,-0.00039969373028725386,-0.0002664624771568924,0.0009659265051595867
1761379049100363000,4.912363037109375,-0.0003164241788908839,-0.00011657733557512984,-0.0003497319994494319
1761379049110390000,4.92239013671875,-0.00019984686514362693,0.00044965543202124536,0.0013156584464013577
1761379049120415500,4.93241552734375,0.00008326952229253948,-0.0003663859097287059,0.0011158116394653916
1761379049130442500,4.9424423828125,-0.0004330015217419714,-0.00024980856687761843,0.0007161179091781378
1761379049140468700,4.95246875,-0.00003330780964461155,-0.0000666156192892231,0.0005495788645930588
1761379049150494700,4.96249462890625,0.00003330780964461155,0.0001498851488577202,0.0002997702977154404
1761379049160520400,4.9725205078125,0.0002165007608709857,0.0004996171337552369,-0.0008993108640424907
1761379049170547500,4.98254736328125,0.00009992343257181346,0.00003330780964461155,0.0005495788645930588
1761379049180573200,4.9925732421875,0.0009659265051595867,-0.00016653904458507895,0.0003663859097287059
1761379049190600000,5.002599853515625,0.0007327718194574118,0.00018319295486435294,-0.00003330780964461155
1761379049200625700,5.012625732421875,0.0005828866851516068,0.0002664624771568924,-0.0008326952229253948
1761379049210663700,5.02266357421875,0.0005495788645930588,0.00004996171628590673,0.0003330780891701579
1761379049220682200,5.03268212890625,0.00018319295486435294,-0.00004996171628590673,-0.00048296325257979333
1761379049230705000,5.042704833984375,-0.00024980856687761843,-0.0000666156192892231,-0.0003164241788908839
1761379049240733400,5.0527333984375,0,0.00039969373028725386,0.0003497319994494319
1761379049250756600,5.062756591796875,-0.00011657733557512984,-0.0004330015217419714,0.0009992342675104737
1761379049260782600,5.072782470703125,0.0001498851488577202,-0.000016653904822305776,-0.0002831163874361664
1761379049270809300,5.082809326171875,0.00009992343257181346,0.0001498851488577202,0.0008493491332046688
1761379049280835600,5.092835693359375,-0.0005662327748723328,-0.00024980856687761843,0.0007993874605745077
1761379049290866700,5.10286669921875,0.00004996171628590673,0.00004996171628590673,0.00018319295486435294
1761379049300889300,5.112889404296875,0.0005162710440345109,0.00009992343257181346,0.00011657733557512984
1761379049310917000,5.122917236328125,0.00023315467115025967,0.0003330780891701579,0.0002664624771568924
1761379049320940000,5.13293994140625,0.00024980856687761843,-0.000016653904822305776,-0.00039969373028725386
1761379049330967600,5.142967529296875,0.0002831163874361664,0.0003330780891701579,-0.0003663859097287059
1761379049340987400,5.1529873046875,-0.0003164241788908839,-0.00011657733557512984,-0.0002664624771568924
1761379049351019800,5.163019775390625,0.000016653904822305776,-0.0003497319994494319,-0.0006495022680610418
1761379049361014800,5.173014892578125,0.0005162710440345109,0.00039969373028725386,-0.0003663859097287059
1761379049371071700,5.18307177734375,0.0002997702977154404,0.0003164241788908839,-0.0006828100886195898
1761379049381097700,5.19309765625,0.0006495022680610418,0.0007161179091781378,-0.0002664624771568924
1761379049391124700,5.203124755859375,0.0006828100886195898,0.0005329249543137848,-0.00011657733557512984
1761379049401150200,5.213150146484375,0.0006661561783403158,-0.00004996171628590673,-0.0004163476114626974
1761379049411176200,5.22317626953125,-0.000016653904822305776,0.0009992342675104737,0.0006661561783403158
1761379049421203000,5.233202880859375,0.00008326952229253948,0.0006328483577817678,0.0004163476114626974
1761379049431229200,5.243229248046875,-0.00018319295486435294,-0.0005662327748723328,0.00048296325257979333
1761379049441256200,5.253256103515625,-0.0006828100886195898,0.0009659265051595867,0.0006161945057101548
1761379049451282700,5.26328271484375,-0.00008326952229253948,-0.00018319295486435294,-0.00039969373028725386
1761379049461308200,5.27330810546875,-0.0000666156192892231,0.0003330780891701579,0.00039969373028725386
1761379049471334400,5.28333447265625,-0.00039969373028725386,0.0006495022680610418,0.0009992342675104737
1761379049481360600,5.293360595703125,-0.0005495788645930588,-0.0005495788645930588,0.0003330780891701579
1761379049491363600,5.303363525390625,-0.00003330780964461155,-0.00024980856687761843,-0.0001498851488577202
1761379049501412900,5.313412841796875,0.00008326952229253948,0.0008826569537632167,-0.00019984686514362693
1761379049511431700,5.323431640625,-0.00011657733557512984,-0.00018319295486435294,-0.00024980856687761843
1761379049521465600,5.333465576171875,0.0003164241788908839,-0.00008326952229253948,0.00024980856687761843
1761379049531491800,5.343491943359375,0.0005828866851516068,-0.000016653904822305776,-0.0009492725948803127
1761379049541518600,5.3535185546875,-0.0003164241788908839,-0.00004996171628590673,-0.0006161945057101548
1761379049551544000,5.3635439453125,0.0000666156192892231,0.00011657733557512984,-0.0008160413126461208
1761379049561571800,5.37357177734375,0.0005162710440345109,0.0005828866851516068,0.00018319295486435294
1761379049571566600,5.383566650390625,-0.0003164241788908839,-0.00008326952229253948,0.00038303982000797987
1761379049581622500,5.39362255859375,0.00003330780964461155,-0.00046630934230051935,0.0004163476114626974
1761379049591648300,5.403648193359375,-0.0007993874605745077,-0.0004996171337552369,-0.00008326952229253948
1761379049601675500,5.413675537109375,-0.00018319295486435294,-0.0003497319994494319,-0.0001332312385784462
1761379049611701800,5.42370166015625,-0.0005828866851516068,0.0003164241788908839,-0.0005495788645930588
1761379049621728800,5.433728759765625,-0.0002165007608709857,-0.0002664624771568924,0.00003330780964461155
1761379049631753700,5.443753662109375,0.0002831163874361664,-0.0006828100886195898,0.0003663859097287059
1761379049641780500,5.453780517578125,0.0004996171337552369,-0.0011491194600239396,0.00018319295486435294
1761379049651805700,5.4638056640625,-0.0005162710440345109,-0.0006828100886195898,0.0002831163874361664
1761379049661813200,5.473813232421875,0.00003330780964461155,-0.0005495788645930588,-0.00039969373028725386
1761379049671858400,5.4838583984375,0.0003164241788908839,-0.0003663859097287059,-0.00018319295486435294
1761379049681885400,5.493885498046875,0.0002664624771568924,-0.00011657733557512984,-0.0007827335502952337
1761379049691890200,5.50389013671875,0.00019984686514362693,0.0000666156192892231,-0.00008326952229253948
1761379049701937200,5.513937255859375,0.00011657733557512984,-0.0005828866851516068,-0.00044965543202124536
1761379049711964000,5.5239638671875,0.0001332312385784462,-0.00009992343257181346,-0.0006495022680610418
1761379049721990100,5.533990234375,-0.00023315467115025967,-0.00004996171628590673,-0.00008326952229253948
1761379049732015600,5.544015625,-0.00009992343257181346,-0.0002831163874361664,-0.0000666156192892231
1761379049742043400,5.55404345703125,0.0004163476114626974,0.00003330780964461155,-0.00003330780964461155
1761379049752069000,5.564069091796875,0.0001498851488577202,0.00048296325257979333,0.0006661561783403158
1761379049762094800,5.5740947265625,0.0005828866851516068,0.0005329249543137848,-0.00016653904458507895
1761379049772121300,5.584121337890625,0.0002997702977154404,0.0006328483577817678,0.00016653904458507895
1761379049782147300,5.594147216796875,0.0006661561783403158,0.0000666156192892231,-0.0001498851488577202
1761379049792173800,5.604173828125,0.00008326952229253948,-0.00048296325257979333,-0.0001498851488577202
1761379049802200800,5.614200927734375,-0.0002165007608709857,-0.00011657733557512984,-0.000016653904822305776
1761379049812226000,5.62422607421875,-0.00046630934230051935,-0.0003330780891701579,-0.00004996171628590673
1761379049822259500,5.634259521484375,-0.00048296325257979333,-0.00019984686514362693,0.0005162710440345109
1761379049832278800,5.64427880859375,0.000016653904822305776,0.0007327718194574118,0.00024980856687761843
1761379049842304800,5.6543046875,0.00008326952229253948,0.0008993108640424907,-0.00044965543202124536
1761379049852330200,5.664330322265625,0.0002165007608709857,-0.0000666156192892231,-0.0006161945057101548
1761379049862323000,5.674322998046875,0.00019984686514362693,-0.0008160413126461208,-0.0004163476114626974
1761379049872360700,5.684360595703125,0.0002664624771568924,-0.00039969373028725386,0.0003497319994494319
1761379049882410500,5.694410400390625,-0.00046630934230051935,0.00019984686514362693,-0.0000666156192892231
1761379049892448800,5.70444873046875,0.00004996171628590673,-0.00016653904458507895,-0.00019984686514362693
1761379049902462200,5.714462158203125,0.0001332312385784462,0.0005329249543137848,-0.0005828866851516068
1761379049912489500,5.724489501953125,0.00048296325257979333,0.0002664624771568924,-0.00024980856687761843
1761379049922515200,5.73451513671875,0.00023315467115025967,0.0002831163874361664,0.0007660796400159597
1761379049932524000,5.74452392578125,0.00003330780964461155,0.00044965543202124536,0.00008326952229253948
1761379049942567700,5.754567626953125,-0.00004996171628590673,0.0000666156192892231,0.0002997702977154404
1761379049952562000,5.76456201171875,0.00018319295486435294,-0.0002664624771568924,-0.0000666156192892231
1761379049962620000,5.774619873046875,-0.00018319295486435294,0.00003330780964461155,0.0001332312385784462
1761379049972647200,5.784647216796875,-0.00016653904458507895,0,0.0006328483577817678
1761379049982672600,5.794672607421875,-0.0002165007608709857,0.0002165007608709857,-0.00004996171628590673
1761379049992675600,5.804675537109375,-0.00009992343257181346,0.0005662327748723328,0.0002165007608709857
1761379050002726000,5.814725830078125,-0.00009992343257181346,-0.00038303982000797987,0.0007327718194574118
1761379050012750800,5.824750732421875,0,-0.0003330780891701579,0.0002664624771568924
1761379050022749000,5.8347490234375,0.0003164241788908839,-0.0005162710440345109,-0.0007327718194574118
1761379050032804400,5.844804443359375,0.00018319295486435294,-0.0005828866851516068,-0.00008326952229253948
1761379050042831600,5.85483154296875,0.0003330780891701579,-0.0001498851488577202,-0.0004996171337552369
1761379050052856000,5.86485595703125,-0.00048296325257979333,0.0006495022680610418,0.0002831163874361664
1761379050062876400,5.87487646484375,0.0003497319994494319,-0.00044965543202124536,-0.0003497319994494319
1761379050072908800,5.88490869140625,0.00004996171628590673,-0.00023315467115025967,-0.00008326952229253948
1761379050082935800,5.894935791015625,-0.00009992343257181346,0,-0.0002997702977154404
1761379050092951000,5.904950927734375,0.0004163476114626974,-0.00023315467115025967,-0.0006161945057101548
1761379050102987500,5.914987548828125,0.0003330780891701579,0.0001332312385784462,-0.0002165007608709857
1761379050113014000,5.925013916015625,0.0000666156192892231,0.0002165007608709857,-0.00048296325257979333
1761379050123041300,5.935041259765625,0.000016653904822305776,0.00009992343257181346,-0.00008326952229253948
1761379050133067000,5.94506689453125,0.00009992343257181346,0.00024980856687761843,0.0001332312385784462
1761379050143093000,5.955093017578125,-0.00004996171628590673,-0.0000666156192892231,0.00023315467115025967
1761379050153119200,5.965119140625,0.00011657733557512984,-0.00039969373028725386,-0.0002831163874361664
1761379050163145000,5.97514501953125,0.0001498851488577202,-0.0003663859097287059,-0.0007993874605745077
1761379050173171000,5.9851708984375,-0.0005662327748723328,-0.0005995405954308808,-0.00023315467115025967
1761379050183197700,5.99519775390625,-0.00039969373028725386,-0.0000666156192892231,0.00003330780964461155
1761379050193206300,6.005206298828125,-0.0001498851488577202,-0.0007327718194574118,0.0006661561783403158
1761379050203249400,6.01524951171875,-0.0002831163874361664,0.0002997702977154404,0.0004330015217419714
1761379050213277000,6.02527685546875,0.00019984686514362693,0.0005329249543137848,0.0003330780891701579
1761379050223266800,6.035266845703125,-0.00024980856687761843,0.0001332312385784462,0.0006994639988988638
1761379050233329200,6.0453291015625,-0.0002831163874361664,0.00019984686514362693,-0.0002664624771568924
1761379050243355000,6.05535498046875,-0.0001332312385784462,-0.00009992343257181346,-0.00048296325257979333
1761379050253380600,6.065380615234375,0.0006994639988988638,-0.0007327718194574118,0.0006828100886195898
1761379050263384600,6.075384521484375,0.0000666156192892231,-0.00044965543202124536,0.00024980856687761843
1761379050273433000,6.08543310546875,-0.0003330780891701579,-0.00039969373028725386,-0.00024980856687761843
1761379050283459800,6.0954599609375,-0.0003330780891701579,-0.0006161945057101548,-0.00004996171628590673
1761379050293463600,6.105463623046875,0.00038303982000797987,-0.0002831163874361664,0.000016653904822305776
1761379050303512800,6.115512939453125,0.0007494257297366858,-0.0003663859097287059,0.00004996171628590673
1761379050313538300,6.125538330078125,-0.0001498851488577202,-0.00011657733557512984,-0.00046630934230051935
1761379050323564800,6.135564697265625,-0.0001498851488577202,-0.0005662327748723328,0.00019984686514362693
1761379050333585400,6.14558544921875,0.0003164241788908839,-0.00039969373028725386,0.0001332312385784462
1761379050343617300,6.1556171875,0.0005329249543137848,0.00024980856687761843,0.0005329249543137848
1761379050353643500,6.1656435546875,0.00044965543202124536,0.0004996171337552369,0.0013156584464013577
1761379050363670800,6.1756708984375,-0.00011657733557512984,-0.0015987749211490154,-0.00009992343257181346
1761379050373695500,6.185695556640625,-0.00003330780964461155,0.0003497319994494319,0.00038303982000797987
1761379050383723000,6.195722900390625,-0.00023315467115025967,0.0003663859097287059,0.00011657733557512984
1761379050393730800,6.205730712890625,0.0002664624771568924,-0.0007827335502952337,0.0005495788645930588
1761379050403775000,6.21577490234375,0.0001498851488577202,0.00023315467115025967,-0.0005995405954308808
1761379050413801000,6.225801025390625,-0.00039969373028725386,0.00009992343257181346,-0.000016653904822305776
1761379050423838000,6.235837890625,-0.0004163476114626974,-0.0017320060869678855,0.0004330015217419714
1761379050433854000,6.24585400390625,-0.0002831163874361664,0.0004163476114626974,-0.0007660796400159597
1761379050443880000,6.2558798828125,0.00011657733557512984,-0.00008326952229253948,-0.00038303982000797987
1761379050453906400,6.265906494140625,0.0002664624771568924,-0.0008493491332046688,-0.00009992343257181346
1761379050463911000,6.275910888671875,0,0.00003330780964461155,-0.00003330780964461155
1761379050473958400,6.28595849609375,0.0003330780891701579,0.00016653904458507895,0.0004330015217419714
1761379050483985200,6.295985107421875,0.0006495022680610418,-0.00038303982000797987,-0.0003497319994494319
1761379050494011100,6.30601123046875,0.00024980856687761843,0.0012490428052842617,-0.0002165007608709857
1761379050504027400,6.31602734375,0.000016653904822305776,0.00016653904458507895,0.0001498851488577202
1761379050514063400,6.3260634765625,-0.0002165007608709857,-0.0011158116394653916,0.00023315467115025967
1761379050524090000,6.336090087890625,-0.00018319295486435294,0,0.00008326952229253948
1761379050534117000,6.3461171875,-0.0005329249543137848,-0.00019984686514362693,0.0004163476114626974
1761379050544163300,6.356163330078125,-0.0008660030434839427,-0.0001332312385784462,0.00046630934230051935
1761379050554148400,6.3661484375,-0.0003164241788908839,0.0002997702977154404,-0.0003663859097287059
1761379050564195000,6.376195068359375,-0.0001332312385784462,0.0001332312385784462,0.00018319295486435294
1761379050574221000,6.386220947265625,-0.0003330780891701579,-0.000016653904822305776,0.0006161945057101548
1761379050584247000,6.3962470703125,0.00023315467115025967,0.00019984686514362693,0.00004996171628590673
1761379050594273500,6.4062734375,0,0.00019984686514362693,-0.00008326952229253948
1761379050604300300,6.41630029296875,-0.0004996171337552369,0.0001332312385784462,-0.00039969373028725386
1761379050614325200,6.4263251953125,-0.0002165007608709857,0.00019984686514362693,0.00016653904458507895
1761379050624352000,6.43635205078125,0.00016653904458507895,-0.00009992343257181346,-0.0000666156192892231
1761379050634379000,6.44637890625,0.000016653904822305776,0.000016653904822305776,-0.00008326952229253948
1761379050644403700,6.45640380859375,0.0003330780891701579,-0.00039969373028725386,0.00004996171628590673
1761379050654431200,6.46643115234375,-0.00011657733557512984,-0.0008493491332046688,-0.00016653904458507895
1761379050664456700,6.476456787109375,-0.0001332312385784462,-0.00024980856687761843,-0.0001498851488577202
1761379050674460200,6.486460205078125,-0.00048296325257979333,-0.0001332312385784462,0.00004996171628590673
1761379050684509200,6.49650927734375,-0.00039969373028725386,-0.000016653904822305776,-0.00016653904458507895
1761379050694535400,6.506535400390625,-0.000016653904822305776,0.00019984686514362693,0.0003330780891701579
1761379050704518100,6.51651806640625,0.0000666156192892231,-0.0003497319994494319,-0.0005662327748723328
1761379050714573800,6.52657373046875,-0.0002165007608709857,0.00018319295486435294,0.00016653904458507895
1761379050724615000,6.536614990234375,0.00024980856687761843,0.0004330015217419714,0.0006161945057101548
1761379050734641000,6.546640869140625,-0.0004163476114626974,0.0006828100886195898,0.0005828866851516068
1761379050744624000,6.5566240234375,0.0002831163874361664,0.0000666156192892231,0.0004996171337552369
1761379050754693000,6.566693115234375,0.0002831163874361664,0.0000666156192892231,-0.0004330015217419714
1761379050764720400,6.576720458984375,0.0005828866851516068,0.0002831163874361664,0.0002997702977154404
1761379050774745000,6.5867451171875,-0.0003164241788908839,-0.0003330780891701579,-0.0002997702977154404
1761379050784772400,6.5967724609375,-0.00019984686514362693,-0.00024980856687761843,-0.00009992343257181346
1761379050794798000,6.606798095703125,-0.00004996171628590673,-0.000016653904822305776,0.00011657733557512984
1761379050804824000,6.616823974609375,-0.00004996171628590673,-0.0005828866851516068,0.0005662327748723328
1761379050814850600,6.6268505859375,-0.00023315467115025967,-0.0006328483577817678,-0.00008326952229253948
1761379050824877300,6.636877197265625,0.0008160413126461208,-0.00038303982000797987,0.0006661561783403158
1761379050834903600,6.646903564453125,0.00019984686514362693,-0.0002664624771568924,-0.00011657733557512984
1761379050844915000,6.6569150390625,-0.00008326952229253948,0.0006661561783403158,0.00009992343257181346
1761379050854955800,6.666955810546875,-0.00003330780964461155,0.00044965543202124536,0.00004996171628590673
1761379050864981800,6.676981689453125,-0.00008326952229253948,-0.000016653904822305776,-0.0005162710440345109
1761379050874985500,6.6869853515625,-0.00023315467115025967,0.00023315467115025967,-0.00008326952229253948
1761379050885034800,6.69703466796875,-0.0003330780891701579,-0.00024980856687761843,0.00044965543202124536
1761379050895060700,6.707060791015625,-0.0002664624771568924,-0.0001498851488577202,0.0006328483577817678
1761379050905066500,6.71706640625,0.0001498851488577202,-0.00024980856687761843,-0.0004996171337552369
1761379050915113500,6.727113525390625,0.0004996171337552369,0.0008826569537632167,0.00048296325257979333
1761379050925139200,6.73713916015625,0.0003330780891701579,-0.00009992343257181346,0.0010658499086275697
1761379050935166000,6.747166015625,-0.00003330780964461155,-0.00038303982000797987,-0.00044965543202124536
1761379050945191400,6.75719140625,0.00018319295486435294,-0.0004330015217419714,-0.0005995405954308808
1761379050955218400,6.767218505859375,0.00048296325257979333,-0.0001498851488577202,0.0003497319994494319
1761379050965245000,6.777244873046875,0.00044965543202124536,-0.0003164241788908839,-0.00016653904458507895
1761379050975270100,6.787270263671875,-0.00003330780964461155,-0.0008493491332046688,-0.0006994639988988638
1761379050985297400,6.79729736328125,0.0004163476114626974,-0.0001332312385784462,-0.0007660796400159597
1761379050995323000,6.807322998046875,-0.0005495788645930588,0.0005329249543137848,0.0006495022680610418
1761379051005348900,6.817348876953125,0.0003164241788908839,-0.0005828866851516068,0.00004996171628590673
1761379051015376400,6.82737646484375,-0.00018319295486435294,0.0004330015217419714,0.0000666156192892231
1761379051025401900,6.83740185546875,-0.0003663859097287059,-0.00023315467115025967,-0.00023315467115025967
1761379051035425300,6.84742529296875,-0.0006661561783403158,0.0007327718194574118,0.00003330780964461155
1761379051045454300,6.857454345703125,0.0002165007608709857,-0.00004996171628590673,-0.0005329249543137848
1761379051055480800,6.867480712890625,0.0000666156192892231,0.0002165007608709857,0
1761379051065505800,6.877505859375,0.0001498851488577202,-0.00024980856687761843,-0.0010158881777897477
1761379051075551700,6.8875517578125,-0.0004996171337552369,-0.0006994639988988638,-0.0002997702977154404
1761379051085536500,6.89753662109375,0.0003663859097287059,-0.0004996171337552369,-0.0004330015217419714
1761379051095565800,6.90756591796875,-0.00024980856687761843,0.0006828100886195898,0.00008326952229253948
1761379051105592800,6.9175927734375,-0.0005995405954308808,0.00018319295486435294,0.00016653904458507895
1761379051115638300,6.92763818359375,-0.0004330015217419714,0.00009992343257181346,-0.00018319295486435294
1761379051125664000,6.9376640625,-0.0005329249543137848,-0.00009992343257181346,-0.0004163476114626974
1761379051135690000,6.94768994140625,-0.0003164241788908839,0.0005162710440345109,0.0006828100886195898
1761379051145716000,6.957716064453125,0.0002664624771568924,-0.00039969373028725386,0.0007161179091781378
1761379051155742200,6.9677421875,-0.00009992343257181346,-0.0002165007608709857,0.00018319295486435294
1761379051165769500,6.97776953125,-0.00003330780964461155,0.00011657733557512984,0.0000666156192892231
1761379051175795000,6.987794921875,-0.0007494257297366858,0.00008326952229253948,0.0005662327748723328
1761379051185822500,6.997822509765625,-0.0000666156192892231,0.00044965543202124536,0.0005662327748723328
1761379051195848200,7.00784814453125,-0.00018319295486435294,0.0000666156192892231,0.0003497319994494319
1761379051205853000,7.01785302734375,-0.0001332312385784462,-0.0002664624771568924,-0.0003164241788908839
1761379051215900000,7.02789990234375,0.0001498851488577202,-0.00044965543202124536,0.0002997702977154404
1761379051225926700,7.0379267578125,-0.0007827335502952337,-0.00008326952229253948,-0.00024980856687761843
1761379051235937300,7.047937255859375,-0.0004996171337552369,-0.00009992343257181346,-0.0004996171337552369
1761379051245979400,7.0579794921875,0.0005162710440345109,0.00023315467115025967,-0.0008326952229253948
1761379051256008200,7.06800830078125,0.0002831163874361664,0.0002831163874361664,-0.00046630934230051935
1761379051266031900,7.078031982421875,0.00016653904458507895,0.00009992343257181346,-0.0005828866851516068
1761379051276053500,7.088053466796875,0.0006994639988988638,-0.0002831163874361664,0.00011657733557512984
1761379051286083000,7.0980830078125,-0.00023315467115025967,0.0006495022680610418,-0.0001332312385784462
1761379051296111600,7.108111572265625,-0.0000666156192892231,-0.0002664624771568924,-0.0005995405954308808
1761379051306133800,7.1181337890625,0.00008326952229253948,0.0008493491332046688,0.0000666156192892231
1761379051316162600,7.12816259765625,-0.00004996171628590673,0.00038303982000797987,0.0003330780891701579
1761379051326189300,7.138189208984375,0.00003330780964461155,-0.0009659265051595867,-0.0008826569537632167
1761379051336216000,7.148216064453125,-0.00016653904458507895,0.00023315467115025967,0.0010991577291861176
1761379051346250500,7.15825048828125,-0.00009992343257181346,0.0002831163874361664,0.0001498851488577202
1761379051356267800,7.168267822265625,-0.0006661561783403158,-0.0011491194600239396,0.00038303982000797987
1761379051366294300,7.178294189453125,-0.00046630934230051935,0.0004996171337552369,-0.0002831163874361664
1761379051376319700,7.18831982421875,-0.0007494257297366858,-0.0005995405954308808,0.0004163476114626974
1761379051386346500,7.198346435546875,-0.0007660796400159597,-0.0011657733703032136,-0.0002664624771568924
1761379051396372500,7.20837255859375,0.00008326952229253948,0.0008993108640424907,-0.0002664624771568924
1761379051406380500,7.218380615234375,-0.0002997702977154404,-0.0001332312385784462,-0.00016653904458507895
1761379051416425700,7.22842578125,0.000016653904822305776,-0.0010325420880690217,-0.0001498851488577202
1761379051426451500,7.238451416015625,-0.00009992343257181346,0.00046630934230051935,0.000016653904822305776
1761379051436446500,7.248446533203125,-0.00024980856687761843,0.0007327718194574118,0.0008826569537632167
1761379051446503700,7.258503662109375,0.0001498851488577202,-0.0008160413126461208,-0.00039969373028725386
1761379051456530400,7.268530517578125,-0.0003663859097287059,0.0006828100886195898,-0.00003330780964461155
1761379051466556700,7.278556640625,0.00019984686514362693,-0.00004996171628590673,0.00011657733557512984
1761379051476541200,7.288541259765625,-0.00004996171628590673,-0.00038303982000797987,-0.0001498851488577202
1761379051486609200,7.298609130859375,0.000016653904822305776,0.00039969373028725386,-0.00009992343257181346
1761379051496635100,7.30863525390625,-0.0002831163874361664,-0.0005495788645930588,0.00004996171628590673
1761379051506662000,7.318661865234375,-0.00009992343257181346,0.0000666156192892231,-0.00016653904458507895
1761379051516688000,7.32868798828125,0,0.0003164241788908839,-0.00019984686514362693
1761379051526713300,7.33871337890625,0.00018319295486435294,-0.0001498851488577202,0.00009992343257181346
1761379051536740900,7.348740966796875,-0.0007827335502952337,-0.00004996171628590673,0.0005995405954308808
1761379051546777600,7.358777587890625,0.00009992343257181346,0.00044965543202124536,0.00003330780964461155
1761379051556792300,7.368792236328125,-0.0005995405954308808,0.00018319295486435294,-0.0003497319994494319
1761379051566819300,7.3788193359375,0.00004996171628590673,-0.00023315467115025967,-0.00039969373028725386
1761379051576845300,7.38884521484375,-0.00003330780964461155,-0.0002165007608709857,-0.0000666156192892231
1761379051586870300,7.398870361328125,-0.00004996171628590673,-0.0008660030434839427,-0.0000666156192892231
1761379051596898000,7.40889794921875,-0.00009992343257181346,0.0003164241788908839,0.0003663859097287059
1761379051606901200,7.4189013671875,0.0006495022680610418,0.00004996171628590673,-0.00009992343257181346
1761379051616950000,7.428949951171875,-0.0001332312385784462,0.0007161179091781378,-0.00048296325257979333
1761379051626976300,7.438976318359375,-0.00044965543202124536,0.0002664624771568924,-0.00038303982000797987
1761379051636980500,7.44898046875,-0.0003164241788908839,-0.0002165007608709857,0.0006495022680610418
1761379051647028700,7.45902880859375,-0.0001498851488577202,-0.00008326952229253948,0.00003330780964461155
1761379051657054500,7.469054443359375,-0.00024980856687761843,-0.0001498851488577202,0.0003497319994494319
1761379051667081200,7.479081298828125,-0.00019984686514362693,0.0004330015217419714,-0.00009992343257181346
1761379051677108000,7.48910791015625,-0.0002831163874361664,-0.00003330780964461155,0.0001498851488577202
1761379051687133000,7.4991328125,0.00018319295486435294,-0.00046630934230051935,0.0004330015217419714
1761379051697160400,7.509160400390625,-0.0007993874605745077,0.00003330780964461155,-0.0002165007608709857
1761379051707186000,7.51918603515625,0.00011657733557512984,-0.00024980856687761843,-0.00008326952229253948
1761379051717212700,7.529212646484375,-0.000016653904822305776,0.00023315467115025967,-0.0001498851488577202
1761379051727238000,7.53923779296875,0.00019984686514362693,-0.0002831163874361664,-0.00039969373028725386
1761379051737264400,7.549264404296875,0.00018319295486435294,-0.00023315467115025967,-0.0002997702977154404
1761379051747291600,7.559291748046875,0.00044965543202124536,-0.00009992343257181346,0
1761379051757318000,7.56931787109375,0.0000666156192892231,0.0001332312385784462,0.0010491959983482957
1761379051767321300,7.5793212890625,-0.00038303982000797987,-0.00016653904458507895,0.0005495788645930588
1761379051777369300,7.589369384765625,-0.00016653904458507895,0.00009992343257181346,0.00016653904458507895
1761379051787390700,7.599390625,-0.0000666156192892231,-0.00011657733557512984,0.0002831163874361664
1761379051797422300,7.60942236328125,0.00048296325257979333,-0.0005995405954308808,0.0000666156192892231
1761379051807432400,7.619432373046875,0.0002664624771568924,-0.0001332312385784462,-0.0001498851488577202
1761379051817474300,7.629474365234375,0.0006495022680610418,0.000016653904822305776,0.0007327718194574118
1761379051827500000,7.6395,0.0003497319994494319,-0.00018319295486435294,-0.0002997702977154404
1761379051837527000,7.649527099609375,-0.00024980856687761843,-0.0005662327748723328,0.00003330780964461155
1761379051847553500,7.659553466796875,-0.00004996171628590673,-0.0007327718194574118,0.0004163476114626974
1761379051857543200,7.669543212890625,0.00009992343257181346,-0.0001498851488577202,0.00011657733557512984
1761379051867605800,7.679605712890625,0.00038303982000797987,0.0000666156192892231,0
1761379051877633000,7.689633056640625,0.00008326952229253948,0.00019984686514362693,-0.0006994639988988638
1761379051887658800,7.69965869140625,0.000016653904822305776,0,-0.0000666156192892231
1761379051897684500,7.7096845703125,0.0006495022680610418,0.0003497319994494319,-0.00019984686514362693
1761379051907710500,7.71971044921875,0.0001498851488577202,0.00044965543202124536,0.0002831163874361664
1761379051917737500,7.729737548828125,0.0002831163874361664,-0.0002831163874361664,-0.00008326952229253948
1761379051927762700,7.7397626953125,0.00004996171628590673,0.0002997702977154404,-0.00016653904458507895
1761379051937766700,7.7497666015625,0.0003164241788908839,0.0003330780891701579,0.0001498851488577202
1761379051947815400,7.7598154296875,0.00011657733557512984,0.0003164241788908839,0.0003663859097287059
1761379051957842000,7.769842041015625,-0.00018319295486435294,0.00038303982000797987,0.0007660796400159597
1761379051967845600,7.779845703125,-0.00044965543202124536,-0.0002831163874361664,-0.0005662327748723328
1761379051977894100,7.78989404296875,-0.0003497319994494319,-0.00016653904458507895,0.0005495788645930588
1761379051987921000,7.7999208984375,0.00019984686514362693,0.000016653904822305776,0.0003164241788908839
1761379051997947400,7.809947509765625,0.00003330780964461155,0.0001332312385784462,0.0003164241788908839
1761379052007951000,7.819951171875,-0.0000666156192892231,0.00023315467115025967,0.0000666156192892231
1761379052017999600,7.82999951171875,0.0001498851488577202,-0.00008326952229253948,0.0003330780891701579
1761379052028027000,7.84002685546875,0.00046630934230051935,-0.0003330780891701579,0.0001498851488577202
1761379052038052600,7.850052490234375,-0.00023315467115025967,0.00019984686514362693,0.0007660796400159597
1761379052048078800,7.860078857421875,-0.00038303982000797987,-0.0005495788645930588,0.0002997702977154404
1761379052058104000,7.87010400390625,-0.0004163476114626974,0.00016653904458507895,0.00046630934230051935
1761379052068131000,7.880131103515625,-0.0008826569537632167,-0.0001498851488577202,0.00024980856687761843
1761379052078157300,7.8901572265625,-0.0002997702977154404,0.0004163476114626974,-0.0001498851488577202
1761379052088183600,7.90018359375,0.0002831163874361664,0.0003164241788908839,-0.0002664624771568924
1761379052098209800,7.910209716796875,0.00023315467115025967,-0.00009992343257181346,0.0000666156192892231
1761379052108235300,7.9202353515625,-0.0000666156192892231,0.00038303982000797987,-0.00009992343257181346
1761379052118261800,7.93026171875,0.00023315467115025967,0.00038303982000797987,-0.00018319295486435294
1761379052128287700,7.940287841796875,-0.0004996171337552369,-0.0007161179091781378,-0.00003330780964461155
1761379052138277600,7.950277587890625,0.0003330780891701579,0.0001332312385784462,-0.0007494257297366858
1761379052148340700,7.9603408203125,0.0007161179091781378,-0.0001332312385784462,0.0001332312385784462
1761379052158367000,7.970366943359375,0.00003330780964461155,-0.0002831163874361664,0.0008660030434839427
1761379052168368400,7.980368408203125,-0.00048296325257979333,0.00018319295486435294,0.0002165007608709857
1761379052178419200,7.990419189453125,0.00009992343257181346,0.00011657733557512984,0.0007161179091781378
1761379052188446200,8.0004462890625,0.0003164241788908839,0.0003497319994494319,0.0007993874605745077
1761379052198471000,8.010470947265626,-0.00023315467115025967,0.0002664624771568924,0.00038303982000797987
1761379052208454400,8.020454345703126,-0.0002165007608709857,0.0005828866851516068,0.0006661561783403158
1761379052218524200,8.030524169921875,-0.0002997702977154404,0.0005995405954308808,0.0006828100886195898
1761379052228550100,8.040550048828125,0.00039969373028725386,0.0014155819080770016,0.0009992342675104737
1761379052238538800,8.050538818359374,0.00004996171628590673,0.0010658499086275697,0.0006994639988988638
1761379052248603600,8.060603759765625,-0.00048296325257979333,0.0007327718194574118,-0.0002165007608709857
1761379052258628600,8.070628662109375,0.00011657733557512984,0.0014155819080770016,0.0005995405954308808
1761379052268655400,8.0806552734375,-0.0003330780891701579,0.0021983154583722353,0.00019984686514362693
1761379052278681600,8.090681640625,-0.0005329249543137848,0.00003330780964461155,-0.00024980856687761843
1761379052288708400,8.100708251953124,0.0000666156192892231,0.0014155819080770016,-0.00004996171628590673
1761379052298729700,8.110729736328125,-0.0000666156192892231,0.002847817726433277,-0.0008493491332046688
1761379052308761000,8.120760986328126,0.000016653904822305776,0.0009992342675104737,0.0002997702977154404
1761379052318787300,8.130787353515625,0.0001332312385784462,0.00018319295486435294,-0.0003663859097287059
1761379052328812800,8.140812744140625,0.0006328483577817678,-0.0007494257297366858,-0.0010158881777897477
1761379052338823400,8.150823486328125,0.0007660796400159597,-0.0022649310994893312,-0.0005828866851516068
1761379052348835000,8.1608349609375,-0.00018319295486435294,-0.0007327718194574118,-0.0005495788645930588
1761379052358891800,8.170891845703125,-0.00024980856687761843,-0.0037471286486834288,-0.0009492725948803127
1761379052368884700,8.180884765625,-0.0007161179091781378,-0.005695635452866554,-0.0008160413126461208
1761379052378945500,8.190945556640624,-0.0003497319994494319,-0.00019984686514362693,0.0012157351011410356
1761379052388970500,8.200970458984376,-0.0007660796400159597,0.0015987749211490154,-0.00038303982000797987
1761379052398996700,8.210996826171876,-0.00046630934230051935,-0.004196783993393183,0.0006161945057101548
1761379052409022500,8.2210224609375,-0.0002997702977154404,-0.0008326952229253948,0.0006495022680610418
1761379052419049200,8.23104931640625,-0.0011324655497446656,-0.0004163476114626974,-0.0008660030434839427
1761379052429076200,8.241076171875,-0.0002165007608709857,-0.004080206621438265,0.00044965543202124536
1761379052439101400,8.251101318359375,-0.0006161945057101548,-0.0015321592800319195,-0.0008660030434839427
1761379052449128400,8.26112841796875,0.00019984686514362693,0.0003330780891701579,-0.0006994639988988638
1761379052459155000,8.271155029296875,0.00019984686514362693,-0.0010158881777897477,-0.0008326952229253948
1761379052469144800,8.281144775390626,0.00048296325257979333,0.00023315467115025967,-0.0010325420880690217
1761379052479206700,8.29120654296875,0.0001498851488577202,0.0013156584464013577,-0.0008326952229253948
1761379052489233200,8.301233154296876,0.0008993108640424907,0.0010325420880690217,-0.0003330780891701579
1761379052499241200,8.3112412109375,0.0002165007608709857,0.0003164241788908839,-0.0009659265051595867
1761379052509286000,8.321285888671875,0.0001332312385784462,0.00039969373028725386,-0.00003330780964461155
1761379052519289600,8.33128955078125,-0.0005495788645930588,0.00019984686514362693,0
1761379052529337300,8.34133740234375,-0.00009992343257181346,-0.0002165007608709857,0.00003330780964461155
1761379052539341300,8.35134130859375,-0.0002831163874361664,0.0010825038189068437,0.0009825803572311997
1761379052549390800,8.361390869140624,-0.00004996171628590673,0.0006495022680610418,0.0005329249543137848
1761379052559416600,8.37141650390625,0.0003497319994494319,0.00048296325257979333,-0.000016653904822305776
1761379052569443600,8.381443603515624,-0.0002165007608709857,0.0011324655497446656,-0.00024980856687761843
1761379052579469300,8.39146923828125,-0.000016653904822305776,0.0006661561783403158,-0.0002997702977154404
1761379052589494800,8.401494873046875,0.00009992343257181346,0.0006495022680610418,-0.0004163476114626974
1761379052599521800,8.411521728515625,-0.0001332312385784462,0.0007494257297366858,0.00039969373028725386
1761379052609546800,8.421546630859375,-0.00009992343257181346,0,-0.0002997702977154404
1761379052619545600,8.431545654296874,0,-0.0004996171337552369,-0.00011657733557512984
1761379052629600300,8.441600341796875,0.0007494257297366858,-0.00004996171628590673,-0.00003330780964461155
1761379052639604000,8.45160400390625,0.0002664624771568924,-0.0004163476114626974,-0.0006495022680610418
1761379052649652700,8.46165283203125,0.0004996171337552369,-0.00008326952229253948,0.00009992343257181346
1761379052659680500,8.471680419921874,0.0003663859097287059,0.0006994639988988638,-0.0004996171337552369
1761379052669694700,8.48169482421875,0.0001498851488577202,0.0007494257297366858,-0.0005495788645930588
1761379052679732000,8.49173193359375,0.0007494257297366858,0.0005828866851516068,0.00004996171628590673
1761379052689758200,8.50175830078125,0.00038303982000797987,0.0003164241788908839,-0.0006161945057101548
1761379052699776800,8.51177685546875,0.0004996171337552369,0.0003164241788908839,-0.00018319295486435294
1761379052709811000,8.52181103515625,-0.0006161945057101548,0.0001498851488577202,-0.00004996171628590673
1761379052719836000,8.5318359375,0.00003330780964461155,-0.0002997702977154404,-0.00009992343257181346
1761379052729863000,8.54186279296875,-0.00019984686514362693,0.0005329249543137848,0.00023315467115025967
1761379052739889000,8.551888916015624,-0.0006828100886195898,0.0002165007608709857,-0.00003330780964461155
1761379052749892600,8.561892578125,-0.0002165007608709857,0.0005329249543137848,0.0001498851488577202
1761379052759942000,8.57194189453125,0.00008326952229253948,0.0006661561783403158,-0.0007327718194574118
1761379052769967900,8.5819677734375,0.00003330780964461155,-0.0002831163874361664,-0.00008326952229253948
1761379052779993600,8.59199365234375,0.00023315467115025967,0.00023315467115025967,0.00039969373028725386
1761379052790019800,8.602019775390625,0.00016653904458507895,-0.0002831163874361664,0.00009992343257181346
1761379052800046600,8.612046630859375,0.0004163476114626974,0.00048296325257979333,0.00018319295486435294
1761379052810072600,8.622072509765625,0.0002664624771568924,0.0002664624771568924,-0.0005828866851516068
1761379052820099300,8.632099365234374,-0.00016653904458507895,0.0001332312385784462,0.0003663859097287059
1761379052830125600,8.64212548828125,0.0008326952229253948,0.0003164241788908839,0.0006661561783403158
1761379052840151800,8.65215185546875,0.0006161945057101548,0.0007827335502952337,0.0000666156192892231
1761379052850178000,8.662177978515626,0.0006328483577817678,-0.0005495788645930588,0.00016653904458507895
1761379052860204000,8.6722041015625,0.0009492725948803127,0.0013656201772391796,-0.00044965543202124536
1761379052870214400,8.68221435546875,0.0010658499086275697,0.002398162381723523,-0.0003497319994494319
1761379052880256500,8.692256591796875,0.00039969373028725386,0.0006495022680610418,0.00019984686514362693
1761379052890282800,8.70228271484375,0.0001498851488577202,0.00609532929956913,0.0026979325339198112
1761379052900286500,8.712286376953125,-0.0011324655497446656,0.06599942594766617,0.02909437194466591
1761379052910335000,8.7223349609375,-0.0009159647743217647,0.032458461821079254,0.0020151224453002214
1761379052920362500,8.732362548828124,-0.0007993874605745077,-0.00662825396284461,0.015238323248922825
1761379052930387500,8.742387451171876,-0.0015321592800319195,0.01778637059032917,-0.003280819160863757
1761379052940414000,8.7524140625,-0.0008493491332046688,-0.003147588111460209,0.0027312403544783592
1761379052950440400,8.7624404296875,0.00009992343257181346,-0.016021056100726128,0.0011990811908617616
1761379052960466400,8.772466552734375,-0.00024980856687761843,0.016104325652122498,-0.0026646247133612633
1761379052970492200,8.7824921875,0.0016820443561300635,-0.0003330780891701579,-0.0045132082886993885
1761379052980519200,8.792519287109375,0.0017153521766886115,-0.013556278310716152,-0.01227392815053463
1761379052990545000,8.802544921875,0.0008493491332046688,-0.01269027590751648,-0.012323889881372452
1761379053000549400,8.81254931640625,0.0005495788645930588,-0.03603905066847801,-0.012740237638354301
1761379053010597400,8.822597412109374,-0.0011158116394653916,-0.039020098745822906,-0.00481297867372632
1761379053020623000,8.832623046875,-0.0008160413126461208,-0.003613897366449237,0.0016820443561300635
1761379053030627300,8.84262744140625,-0.0007161179091781378,0.009609303437173367,-0.003314126981422305
