time,seconds_elapsed,z,y,x
1761378690187460600,0.094460693359375,0.00028133392333984375,0.000017940998077392578,8.456408977508545e-7
1761378690207533000,0.114532958984375,-0.08796119689941406,0.020435452461242676,-0.0009368648752570152
1761378690227584500,0.13458447265625,-0.07407283782958984,0.020938754081726074,-0.007954227738082409
1761378690247619300,0.154619384765625,-0.028461456298828125,0.0059220194816589355,-0.004252432845532894
1761378690267687000,0.17468701171875,-0.0448150634765625,-0.00464862585067749,-0.0009051468223333359
1761378690287718700,0.19471875,-0.07750797271728516,-0.0004246234893798828,-0.001909017562866211
1761378690307791600,0.21479150390625,-0.0427398681640625,-0.0019562840461730957,0.003970225341618061
1761378690327843300,0.23484326171875,-0.03675270080566406,-0.000561058521270752,0.006934542208909988
1761378690347892200,0.254892333984375,-0.054078102111816406,0.012239515781402588,-0.001131492666900158
1761378690367943400,0.274943359375,-0.051227569580078125,0.015078067779541016,-0.006760955788195133
1761378690387995000,0.294994873046875,-0.03810691833496094,0.00445103645324707,-0.007551365997642279
1761378690408050200,0.31505029296875,-0.03451061248779297,0.010261297225952148,0.0004383521154522896
1761378690428092400,0.335092529296875,-0.06645393371582031,0.006064474582672119,-0.0036757634952664375
1761378690448128300,0.355128173828125,-0.05509376525878906,0.0008030533790588379,0.003510025329887867
1761378690468200000,0.375199951171875,-0.05991363525390625,0.008817732334136963,0.002711608074605465
1761378690488251000,0.3952509765625,-0.045060157775878906,0.007512450218200684,-0.0025326162576675415
1761378690508301800,0.4153017578125,-0.036952972412109375,0.013296663761138916,-0.011068571358919144
1761378690528354800,0.435354736328125,-0.045540809631347656,0.012642323970794678,-0.003515954129397869
1761378690548406000,0.455406005859375,-0.055255889892578125,0.007152140140533447,-0.000003010965883731842
1761378690568457700,0.475457763671875,-0.048071861267089844,0.0027136802673339844,-0.001421600580215454
1761378690588509400,0.495509521484375,-0.046065330505371094,-0.000969231128692627,0.0009499238803982735
1761378690608553200,0.51555322265625,-0.053414344787597656,-0.004769802093505859,0.003338240087032318
1761378690628611600,0.535611572265625,-0.052687644958496094,0.0009656548500061035,-0.0029735304415225983
1761378690648664300,0.555664306640625,-0.032988548278808594,0.0012777447700500488,-0.0014756852760910988
1761378690668715000,0.575715087890625,-0.03146553039550781,0.0034946799278259277,-0.00009861122816801071
1761378690688767200,0.595767333984375,-0.050136566162109375,0.007347702980041504,-0.0034164655953645706
1761378690708817700,0.615817626953125,-0.04256439208984375,0.0023763179779052734,0.002480635419487953
1761378690728872700,0.635872802734375,-0.041751861572265625,0.0070688724517822266,0.0009055919945240021
1761378690748919300,0.655919189453125,-0.05238151550292969,0.008998692035675049,0.007065093144774437
1761378690768970200,0.67597021484375,-0.04391002655029297,0.008440077304840088,-0.007859024219214916
1761378690789022500,0.6960224609375,-0.03882884979248047,0.007174372673034668,-0.0020285528153181076
1761378690809055200,0.71605517578125,-0.06312084197998047,0.012287497520446777,0.005466705188155174
1761378690829106000,0.73610595703125,-0.06397533416748047,0.013275682926177979,-0.00048520322889089584
1761378690849180200,0.75618017578125,-0.033919334411621094,0.010726511478424072,-0.0018028337508440018
1761378690869226500,0.7762265625,-0.03400230407714844,0.011622488498687744,-0.003967488184571266
1761378690889277700,0.796277587890625,-0.06235313415527344,0.0072064995765686035,-0.000007654540240764618
1761378690909330000,0.816329833984375,-0.057521820068359375,0.0024136900901794434,-0.0011507244780659676
1761378690929380000,0.836380126953125,-0.03573322296142578,0.0010091066360473633,-0.006512748543173075
1761378690949432300,0.856432373046875,-0.052173614501953125,0.00015372037887573242,0.0005771340802311897
1761378690969482800,0.876482666015625,-0.05926799774169922,0.011737465858459473,-0.0016334298998117447
1761378690989522700,0.896522705078125,-0.04441261291503906,0.004036247730255127,0.006921108812093735
1761378691009587000,0.9165869140625,-0.042649269104003906,0.010145306587219238,0.0012190528213977814
1761378691029636400,0.93663623046875,-0.052158355712890625,0.0048258304595947266,0.0022499198094010353
1761378691049674200,0.95667431640625,-0.03877544403076172,0.012946069240570068,-0.0036136917769908905
1761378691069740800,0.97674072265625,-0.04194450378417969,-0.0028551220893859863,0.0027489587664604187
1761378691089794600,0.996794677734375,-0.060688018798828125,0.00765836238861084,-0.0069403802044689655
1761378691109819600,1.016819580078125,-0.04781341552734375,0.012571632862091064,-0.0014139041304588318
1761378691129893000,1.03689306640625,-0.04166221618652344,0.008354604244232178,0.003828085958957672
1761378691149944000,1.056944091796875,-0.05953216552734375,0.019194364547729492,0.0016837306320667267
1761378691169995000,1.0769951171875,-0.05413532257080078,0.02036416530609131,-0.006359401158988476
1761378691190052900,1.097052978515625,-0.0393829345703125,0.015026450157165527,-0.004590037278831005
1761378691210098000,1.117097900390625,-0.04419994354248047,0.007942020893096924,0.0028529316186904907
1761378691230166500,1.13716650390625,-0.06148719787597656,0.006562411785125732,0.0013995356857776642
1761378691250200300,1.157200439453125,-0.05427265167236328,-0.006354033946990967,0.0040115248411893845
1761378691270251300,1.177251220703125,-0.043903350830078125,-0.003554701805114746,-0.0004825005307793617
1761378691290302700,1.197302734375,-0.048473358154296875,0.00601351261138916,0.002008110284805298
1761378691310349300,1.217349365234375,-0.046474456787109375,0.007473170757293701,0.0007207430899143219
1761378691330406000,1.237406005859375,-0.037197113037109375,0.007801234722137451,0.002312934026122093
1761378691350457900,1.257457763671875,-0.040096282958984375,0.004590749740600586,-0.0002473229542374611
1761378691370509000,1.277509033203125,-0.044846534729003906,-0.0024735331535339355,0.0002513416111469269
1761378691390559200,1.297559326171875,-0.05321216583251953,0.005559027194976807,-0.002993757836520672
1761378691410610200,1.317610107421875,-0.05059814453125,0.004292130470275879,-0.0018950030207633972
1761378691430663000,1.337662841796875,-0.04854869842529297,0.011661946773529053,0.0025245007127523422
1761378691450713900,1.3577138671875,-0.04954719543457031,0.011864066123962402,0.008534359745681286
1761378691470767400,1.377767333984375,-0.042769432067871094,0.017548203468322754,0.0016880948096513748
1761378691490817000,1.397817138671875,-0.04693126678466797,0.0187532901763916,0.0015286440029740334
1761378691510851800,1.417851806640625,-0.046301841735839844,0.009465157985687256,-0.0032974611967802048
1761378691530922800,1.4379228515625,-0.051242828369140625,0.008173763751983643,-0.005021580494940281
1761378691550973700,1.4579736328125,-0.056092262268066406,0.004148960113525391,0.0021817414090037346
1761378691571020500,1.4780205078125,-0.054718017578125,-0.0010608434677124023,0.00006482191383838654
1761378691591076600,1.49807666015625,-0.04622364044189453,0.00046956539154052734,-0.0027024587616324425
1761378691611101700,1.518101806640625,-0.042679786682128906,0.005031585693359375,-0.005287556909024715
1761378691631176200,1.53817626953125,-0.047104835510253906,0.0023319125175476074,-0.004274601116776466
1761378691651226000,1.55822607421875,-0.04428863525390625,0.006220340728759766,0.00026556476950645447
1761378691671260200,1.57826025390625,-0.04377460479736328,0.014191627502441406,-0.00402148999273777
1761378691691347200,1.59834716796875,-0.0462493896484375,0.007783770561218262,0.0012979106977581978
1761378691711380500,1.61838037109375,-0.05109691619873047,0.001052260398864746,-0.00019920151680707932
1761378691731431400,1.638431396484375,-0.052016258239746094,0.007519841194152832,0.0008723810315132141
1761378691751482600,1.658482666015625,-0.053315162658691406,0.006141602993011475,0.00039637088775634766
1761378691771533000,1.678532958984375,-0.05840873718261719,0.010689735412597656,0.0014949003234505653
1761378691791585300,1.698585205078125,-0.04344367980957031,0.010545969009399414,0.0007065907120704651
1761378691811637200,1.71863720703125,-0.03818798065185547,0.003977298736572266,-0.0004476485773921013
1761378691831688200,1.738688232421875,-0.05682945251464844,0.005094408988952637,0.0038893958553671837
1761378691851741000,1.758740966796875,-0.048740386962890625,-0.002097487449645996,-0.0028571924194693565
1761378691871769300,1.778769287109375,-0.039928436279296875,0.00033468008041381836,-0.0009111044928431511
1761378691891844900,1.798844970703125,-0.05195426940917969,0.0014312267303466797,-0.0016205431893467903
1761378691911893500,1.8188935546875,-0.0494842529296875,0.0062010884284973145,-0.0004861084744334221
1761378691931943200,1.838943115234375,-0.044722557067871094,0.003072082996368408,-0.0008506067097187042
1761378691951995100,1.8589951171875,-0.048262596130371094,0.00853818655014038,0.0019540293142199516
1761378691972050400,1.879050537109375,-0.050144195556640625,0.008341431617736816,0.00015903636813163757
1761378691992096800,1.8990966796875,-0.04305076599121094,0.003944575786590576,-0.0061934879049658775
1761378692012166400,1.91916650390625,-0.04798412322998047,-0.0022141337394714355,-0.0005522528663277626
1761378692032199400,1.939199462890625,-0.041380882263183594,0.0030957460403442383,0.0036117443814873695
1761378692052251600,1.959251708984375,-0.05482292175292969,0.004461467266082764,-0.0039510782808065414
1761378692072287200,1.979287353515625,-0.037566184997558594,0.002152860164642334,0.002551100216805935
1761378692092353800,1.999353759765625,-0.05213356018066406,-0.001175999641418457,-0.005109969526529312
1761378692112406000,2.019406005859375,-0.05204486846923828,0.006376683712005615,-0.003670620732009411
1761378692132450300,2.0394501953125,-0.044437408447265625,0.009666919708251953,-0.0030166395008563995
1761378692152507400,2.05950732421875,-0.035920143127441406,0.007946372032165527,0.0005797268822789192
1761378692172559000,2.07955908203125,-0.04296398162841797,0.01241159439086914,0.003103025257587433
1761378692192611000,2.099611083984375,-0.05993461608886719,0.01362144947052002,0.0030186204239726067
1761378692212662000,2.119662109375,-0.04928302764892578,0.008545875549316406,-0.0003431355580687523
1761378692232743000,2.139742919921875,-0.04168224334716797,-0.004805386066436768,-0.005436515435576439
1761378692252765700,2.159765625,-0.05076122283935547,-0.006407618522644043,0.003492509014904499
1761378692272816600,2.179816650390625,-0.056189537048339844,0.003330528736114502,-0.004087485373020172
1761378692292870000,2.199869873046875,-0.04285621643066406,0.006134390830993652,-0.00522370170801878
1761378692312916000,2.219916015625,-0.038916587829589844,0.0037736892700195312,-0.0035465648397803307
1761378692332946400,2.239946533203125,-0.04932880401611328,0.006348013877868652,-0.0010616304352879524
1761378692353019100,2.26001904296875,-0.046962738037109375,0.0004742145538330078,-0.00025855470448732376
1761378692373053200,2.28005322265625,-0.04240703582763672,0.005946993827819824,-0.0028682835400104523
1761378692393100000,2.30010009765625,-0.04396247863769531,-0.0037803053855895996,-0.0005446495488286018
1761378692413174500,2.320174560546875,-0.054757118225097656,0.007023751735687256,-0.0041777631267905235
1761378692433225700,2.340225830078125,-0.06018257141113281,0.007248401641845703,0.00016525108367204666
1761378692453276000,2.36027587890625,-0.04140281677246094,0.009580552577972412,0.003865695558488369
1761378692473328400,2.380328369140625,-0.05279254913330078,0.00618433952331543,0.0009266631677746773
1761378692493377800,2.400377685546875,-0.04717445373535156,0.012587785720825195,0.001956372521817684
1761378692513429000,2.420428955078125,-0.04699897766113281,0.01659339666366577,0.0015971912071108818
1761378692533480400,2.44048046875,-0.0529632568359375,0.006357550621032715,0.001050792634487152
1761378692553531400,2.460531494140625,-0.05527305603027344,0.0006245970726013184,-0.007903470657765865
1761378692573561600,2.4805615234375,-0.046337127685546875,-0.005047142505645752,0.0017285458743572235
1761378692593634000,2.500634033203125,-0.055446624755859375,-0.0027617812156677246,-0.002707197330892086
1761378692613685500,2.520685546875,-0.04707622528076172,0.002016007900238037,-0.00644295196980238
1761378692633736700,2.54073681640625,-0.047949790954589844,0.008610427379608154,-0.0038561252877116203
1761378692653788700,2.56078857421875,-0.03932762145996094,0.005098283290863037,-0.00455793272703886
1761378692673841400,2.58084130859375,-0.04412841796875,0.008027136325836182,-0.001755930483341217
1761378692693890300,2.600890380859375,-0.048603057861328125,0.004647731781005859,0.0011753533035516739
1761378692713941800,2.620941650390625,-0.05362415313720703,0.0023163557052612305,0.0018447395414113998
1761378692733986800,2.64098681640625,-0.051453590393066406,0.005103349685668945,-0.005719481036067009
1761378692754048500,2.661048583984375,-0.046540260314941406,0.007779598236083984,-0.0031926026567816734
1761378692774093000,2.681093017578125,-0.04513072967529297,0.011248469352722168,-0.0005855131894350052
1761378692794154800,2.70115478515625,-0.05510902404785156,0.010452091693878174,0.000760374590754509
1761378692814198000,2.721197998046875,-0.05184650421142578,0.0079728364944458,0.001262051984667778
1761378692834249200,2.741249267578125,-0.045162200927734375,0.008115172386169434,0.006994446739554405
1761378692854282800,2.76128271484375,-0.051788330078125,0.0042705535888671875,0.0026725446805357933
1761378692874352000,2.78135205078125,-0.048010826110839844,0.010532259941101074,0.00000867154449224472
1761378692894403000,2.801403076171875,-0.0472869873046875,0.0022156834602355957,0.004906446672976017
1761378692914454300,2.821454345703125,-0.048073768615722656,0.0068795084953308105,-0.001217847689986229
1761378692934505700,2.841505615234375,-0.04486274719238281,0.00484997034072876,-0.0030880682170391083
1761378692954534700,2.86153466796875,-0.05081367492675781,0.005288243293762207,-0.000521496869623661
1761378692974587400,2.88158740234375,-0.05187225341796875,-0.0009142756462097168,-0.0007754554972052574
1761378692994659300,2.901659423828125,-0.04554271697998047,0.005462586879730225,-0.0015199314802885056
1761378693014710800,2.921710693359375,-0.03979969024658203,0.015609145164489746,0.0006958004087209702
1761378693034763300,2.94176318359375,-0.044063568115234375,0.008356451988220215,-0.0006928201764822006
1761378693054805800,2.9618056640625,-0.05092048645019531,0.0063637495040893555,-0.0023104557767510414
1761378693074864600,2.98186474609375,-0.04258537292480469,0.013320624828338623,-0.0010850699618458748
1761378693094915800,3.001915771484375,-0.0535430908203125,0.008585155010223389,-0.0007498394697904587
1761378693114966800,3.021966796875,-0.054474830627441406,0.0034914016723632812,-0.001993633806705475
1761378693135018200,3.042018310546875,-0.05011177062988281,0.003907322883605957,-0.007805244065821171
1761378693155072800,3.06207275390625,-0.044368743896484375,0.011756598949432373,-0.0017308127135038376
1761378693175100700,3.0821005859375,-0.04463958740234375,0.01124650239944458,0.005326846614480019
1761378693195172000,3.102172119140625,-0.05296039581298828,0.01297295093536377,0.006990443915128708
1761378693215223300,3.122223388671875,-0.04366493225097656,0.006965339183807373,0.0029793381690979004
1761378693235274500,3.1422744140625,-0.04914283752441406,0.007836878299713135,0.0035228878259658813
1761378693255326500,3.162326416015625,-0.051009178161621094,0.00164872407913208,-0.0033897561952471733
1761378693275378400,3.18237841796875,-0.04920196533203125,-0.001355886459350586,-0.004565068520605564
1761378693295430400,3.202430419921875,-0.054851531982421875,-0.0014123320579528809,-0.0003178669139742851
1761378693315481900,3.22248193359375,-0.04774665832519531,0.0009077191352844238,-0.003147810697555542
1761378693335511600,3.242511474609375,-0.14560508728027344,0.002052009105682373,0.013324186205863953
1761378693355585500,3.26258544921875,0.009207725524902344,0.007239401340484619,-0.0074302200227975845
1761378693375635700,3.2826357421875,0.03311729431152344,0.0056920647621154785,-0.005857186391949654
1761378693395687200,3.302687255859375,-0.04899120330810547,0.006035327911376953,0.003829347901046276
1761378693415715600,3.322715576171875,-0.04343700408935547,0.0036340951919555664,0.004796409979462624
1761378693435790300,3.342790283203125,-0.09808063507080078,0.01056748628616333,-0.006020097993314266
1761378693455842300,3.36284228515625,-0.07675647735595703,-0.003912687301635742,0.006097912788391113
1761378693475893200,3.382893310546875,0.007615089416503906,0.00960230827331543,-0.01028296910226345
1761378693495943400,3.402943359375,-0.09522056579589844,0.009299099445343018,0.006393681280314922
1761378693515995400,3.422995361328125,-0.06112194061279297,0.017966151237487793,0.0119263781234622
1761378693536031500,3.443031494140625,-0.0015316009521484375,0.006800532341003418,-0.0006656292825937271
1761378693556095700,3.463095703125,-0.06353950500488281,0.008221209049224854,-0.0028437981382012367
1761378693576151800,3.48315185546875,-0.05614280700683594,0.003747403621673584,-0.0022733788937330246
1761378693596201200,3.503201171875,-0.040238380432128906,0.0010214447975158691,-0.005690837278962135
1761378693616270600,3.5232705078125,-0.057503700256347656,0.0041525959968566895,0.006178710609674454
1761378693636302000,3.543302001953125,-0.051604270935058594,-0.003966271877288818,0.005102214403450489
1761378693656353000,3.56335302734375,-0.03739643096923828,-0.0038532018661499023,0.00643646065145731
1761378693676403500,3.583403564453125,-0.05226421356201172,0.0024462342262268066,0.000009084120392799377
1761378693696454700,3.60345458984375,-0.047512054443359375,0.00708162784576416,-0.0018201656639575958
1761378693716507100,3.623507080078125,-0.045912742614746094,0.0071527957916259766,0.00024290382862091064
1761378693736524300,3.643524169921875,-0.05569744110107422,0.008395791053771973,-0.0014383289963006973
1761378693756610000,3.663610107421875,-0.04960346221923828,0.007180213928222656,-0.0005072671920061111
1761378693776660500,3.683660400390625,-0.043178558349609375,0.007544755935668945,-0.0012716157361865044
1761378693796712000,3.7037119140625,-0.05317401885986328,0.013308882713317871,0.0019089896231889725
1761378693816763600,3.723763671875,-0.05919837951660156,0.00042444467544555664,0.0008946452289819717
1761378693836814000,3.74381396484375,-0.04625511169433594,0.0049912333488464355,0.004477453418076038
1761378693856865800,3.76386572265625,-0.04781818389892578,0.004447519779205322,0.004507121630012989
1761378693876918500,3.78391845703125,-0.046652793884277344,0.001227259635925293,-0.0032295435667037964
1761378693896975600,3.8039755859375,-0.05758476257324219,0.002708911895751953,0.0018730107694864273
1761378693917019600,3.82401953125,-0.05142498016357422,0.0023709535598754883,0.0055632442235946655
1761378693937048800,3.844048828125,-0.04207420349121094,0.0035463571548461914,-0.0007308479398488998
1761378693957122300,3.864122314453125,-0.05366230010986328,0.009558260440826416,-0.0017637014389038086
1761378693977175600,3.884175537109375,-0.04384803771972656,0.005344688892364502,0.004194051027297974
1761378693997209300,3.904209228515625,-0.04270458221435547,-0.0022180676460266113,0.003240996040403843
1761378694017284600,3.92428466796875,-0.057056427001953125,-0.008973538875579834,0.002153271809220314
1761378694037327400,3.944327392578125,-0.04223918914794922,0.009175896644592285,0.0032223034650087357
1761378694057378800,3.96437890625,-0.04282855987548828,-0.007078945636749268,0.0071206968277692795
1761378694077429500,3.984429443359375,-0.03977203369140625,0.00411224365234375,0.001733335666358471
1761378694097475000,4.00447509765625,-0.06297779083251953,0.0034179091453552246,0.0028627924621105194
1761378694117513000,4.024512939453125,-0.04331207275390625,0.011076807975769043,0.004586829803884029
1761378694137583400,4.044583251953125,-0.04384422302246094,-0.0009365081787109375,0.006653101183474064
1761378694157634600,4.064634521484375,-0.04221153259277344,0.004659533500671387,-0.0029361210763454437
1761378694177685800,4.084685791015625,-0.05083751678466797,0.007693052291870117,-0.00008733104914426804
1761378694197737200,4.1047373046875,-0.05378150939941406,0.007442057132720947,0.0032566655427217484
1761378694217788200,4.1247880859375,-0.0556182861328125,0.003870546817779541,0.00614144466817379
1761378694237839400,4.14483935546875,-0.047303199768066406,-0.005334079265594482,0.0017411001026630402
1761378694257892900,4.164892822265625,-0.048091888427734375,-0.0034493207931518555,0.006805277429521084
1761378694277947000,4.18494677734375,-0.0475006103515625,-0.0026218295097351074,-0.002092876471579075
1761378694297973500,4.204973388671875,-0.04376220703125,-0.0007764101028442383,0.004519312642514706
1761378694318045700,4.225045654296875,-0.05245685577392578,0.002660512924194336,0.006048963405191898
1761378694338097200,4.24509716796875,-0.038353919982910156,0.003258824348449707,0.0026211002841591835
1761378694358150700,4.265150634765625,-0.05018806457519531,0.001507401466369629,0.001396477222442627
1761378694378201000,4.285201171875,-0.052514076232910156,0.012033998966217041,0.008765214122831821
1761378694398271200,4.305271240234375,-0.07311153411865234,0.0023466944694519043,-0.0031834328547120094
1761378694418300700,4.32530078125,-0.03672313690185547,0.004402518272399902,0.006897768937051296
1761378694438352600,4.3453525390625,-0.05453681945800781,0.0033457279205322266,0.009181910194456577
1761378694458403300,4.3654033203125,-0.046905517578125,0.010529935359954834,0.003088713623583317
1761378694478455300,4.385455322265625,-0.042571067810058594,0.009464442729949951,0.007040947675704956
1761378694498501000,4.405501220703125,-0.037659645080566406,0.010012626647949219,0.007186553440988064
1761378694518558000,4.425557861328125,-0.058887481689453125,0.012591361999511719,0.0048775440081954
1761378694538609200,4.445609130859375,-0.042229652404785156,0.003217160701751709,0.0028953775763511658
1761378694558659300,4.465659423828125,-0.044918060302734375,0.0015904903411865234,0.0033097900450229645
1761378694578711000,4.4857109375,-0.0467376708984375,-0.0017321109771728516,-0.003271227702498436
1761378694598763000,4.505762939453125,-0.054039955139160156,-0.005865752696990967,0.0007679751142859459
1761378694618792200,4.525792236328125,-0.048987388610839844,-0.00361478328704834,0.0007885647937655449
1761378694638866000,4.545865966796875,-0.03775787353515625,-0.00013703107833862305,0.006469751708209515
1761378694658915800,4.565915771484375,-0.045635223388671875,0.007376670837402344,0.00016807019710540771
1761378694678966300,4.58596630859375,-0.04836273193359375,0.006951510906219482,0.003794614225625992
1761378694699019000,4.60601904296875,-0.05302906036376953,0.00040400028228759766,0.006961350329220295
1761378694719071200,4.6260712890625,-0.047224998474121094,0.001819312572479248,0.00020267069339752197
1761378694739121200,4.64612109375,-0.04519939422607422,-0.0013575553894042969,0.0016755824908614159
1761378694759174100,4.666174072265625,-0.052684783935546875,0.003551483154296875,0.006979929283261299
1761378694779201300,4.686201171875,-0.05301475524902344,0.014128625392913818,0.008399955928325653
1761378694799264300,4.70626416015625,-0.051860809326171875,0.010700821876525879,0.001107548363506794
1761378694819326200,4.726326171875,-0.05115509033203125,0.00961768627166748,0.00031179748475551605
1761378694839376600,4.746376708984375,-0.04363727569580078,-0.000901639461517334,-0.000675286166369915
1761378694859430400,4.766430419921875,-0.03448486328125,0.00429224967956543,0.0034530945122241974
1761378694879480000,4.78647998046875,-0.04754447937011719,-0.005681633949279785,0.005288159474730492
1761378694899531500,4.806531494140625,-0.052779197692871094,0.0022777915000915527,0.003648589365184307
1761378694919581700,4.826581787109375,-0.03888893127441406,0.00032275915145874023,0.000600161962211132
1761378694939634400,4.846634521484375,-0.04207801818847656,0.004038691520690918,0.0018384549766778946
1761378694959685400,4.866685302734375,-0.052112579345703125,0.004265904426574707,0.004814495332539082
1761378694979736600,4.886736572265625,-0.04382801055908203,0.0012218952178955078,-0.0014959461987018585
1761378694999765800,4.906765869140625,-0.041861534118652344,0.0003501772880554199,0.0006609000265598297
1761378695019839700,4.92683984375,-0.04636096954345703,-0.001802980899810791,-0.002479318529367447
1761378695039893500,4.9468935546875,-0.044013023376464844,0.0009750723838806152,-0.0018043480813503265
1761378695059945500,4.966945556640625,-0.04964447021484375,0.005363285541534424,-0.00012809503823518753
1761378695079995600,4.98699560546875,-0.04466056823730469,-0.005231499671936035,0.004526615142822266
1761378695100042000,5.0070419921875,-0.04290962219238281,-0.0002931356430053711,-0.0031514791771769524
1761378695120093200,5.02709326171875,-0.045699119567871094,0.0038275718688964844,-0.0016769422218203545
1761378695140150800,5.04715087890625,-0.04360008239746094,0.011202335357666016,-0.0056146252900362015
1761378695160175400,5.06717529296875,-0.04267597198486328,0.009925246238708496,0.0024326201528310776
1761378695180258800,5.0872587890625,-0.05121803283691406,0.014845550060272217,0.0059108491986989975
1761378695200313600,5.107313720703125,-0.05162239074707031,0.01570993661880493,-0.0013454072177410126
1761378695220350500,5.1273505859375,-0.04537391662597656,-0.004065215587615967,-0.001080167479813099
1761378695240403000,5.14740283203125,-0.04306602478027344,-0.00895380973815918,0.0003437139093875885
1761378695260452400,5.167452392578125,-0.04254341125488281,-0.0027893781661987305,0.0012413142248988152
1761378695280503600,5.187503662109375,-0.044096946716308594,0.0014475584030151367,0.0014573577791452408
1761378695300555000,5.207554931640625,-0.041924476623535156,0.0006575584411621094,0.0031046802178025246
1761378695320606200,5.227606201171875,-0.04408073425292969,0.005342543125152588,0.003193547949194908
1761378695340657400,5.247657470703125,-0.04036426544189453,0.008693814277648926,0.0066277869045734406
1761378695360668700,5.267668701171875,-0.03925323486328125,-0.002543509006500244,0.0019420236349105835
1761378695380741400,5.287741455078125,-0.05274772644042969,-0.0017747282981872559,0.005114027298986912
1761378695400811800,5.307811767578125,-0.06704902648925781,0.009576380252838135,-0.005149294622242451
1761378695420862700,5.32786279296875,-0.037848472595214844,0.0012366175651550293,0.005083371885120869
1761378695440913700,5.34791357421875,-0.04083442687988281,0.011196434497833252,-0.0004098769277334213
1761378695460966700,5.367966552734375,-0.04941558837890625,0.006228089332580566,0.003625805489718914
1761378695481015800,5.388015869140625,-0.04731273651123047,0.005587518215179443,-0.00023240596055984497
1761378695501068500,5.408068603515625,-0.044597625732421875,0.007034242153167725,-0.001220271922647953
1761378695521119000,5.428118896484375,-0.04359912872314453,0.004483580589294434,-0.0014744428917765617
1761378695541172700,5.4481728515625,-0.03702735900878906,0.0011975765228271484,-0.0009757773950695992
1761378695561210000,5.468210205078125,-0.043295860290527344,-0.004223763942718506,0.0008958196267485619
1761378695581272600,5.4882724609375,-0.05583763122558594,-0.005225419998168945,0.007393848150968552
1761378695601323800,5.50832373046875,-0.04937553405761719,-0.0076097846031188965,-0.001228412613272667
1761378695621354200,5.528354248046875,-0.04265117645263672,0.0000209808349609375,0.0058499472215771675
1761378695641426200,5.54842626953125,-0.043295860290527344,0.0036947131156921387,-0.0032752491533756256
1761378695661477600,5.5684775390625,-0.047992706298828125,0.0037245750427246094,-0.005099205765873194
1761378695681528800,5.58852880859375,-0.04531288146972656,0.002051234245300293,0.005211265757679939
1761378695701580300,5.608580322265625,-0.04864788055419922,0.0016754865646362305,0.0028200047090649605
1761378695721631500,5.628631591796875,-0.051552772521972656,-0.002414882183074951,0.006707238964736462
1761378695741662200,5.648662109375,-0.043768882751464844,0.004024684429168701,0.002226928249001503
1761378695761725200,5.66872509765625,-0.04783344268798828,0.010530591011047363,0.004201723262667656
1761378695781785300,5.688785400390625,-0.043537139892578125,0.005596578121185303,0.003927882760763168
1761378695801836800,5.7088369140625,-0.048338890075683594,0.0037193894386291504,0.007070163264870644
1761378695821889500,5.7288896484375,-0.05760669708251953,0.007520198822021484,0.002844543196260929
1761378695841939000,5.74893896484375,-0.04551506042480469,0.002640664577484131,0.004646727815270424
1761378695861991000,5.768990966796875,-0.04231452941894531,-0.0016620159149169922,0.003179740160703659
1761378695882041600,5.78904150390625,-0.04145240783691406,-0.0008413791656494141,0.0010384423658251762
1761378695902092800,5.8090927734375,-0.041398048400878906,-0.005652368068695068,-0.00153266079723835
1761378695922144000,5.82914404296875,-0.04456520080566406,0.0011391639709472656,0.006002028472721577
1761378695942197800,5.84919775390625,-0.05018901824951172,0.007451474666595459,0.008020373061299324
1761378695962247200,5.8692470703125,-0.05000019073486328,-0.004131019115447998,0.009658738039433956
1761378695982297900,5.8892978515625,-0.04979705810546875,-0.002605617046356201,0.0060101402923464775
1761378696002349000,5.90934912109375,-0.048915863037109375,0.006511270999908447,0.002581017091870308
1761378696022400500,5.929400390625,-0.04556751251220703,-0.002660036087036133,0.0037161726504564285
1761378696042451200,5.949451171875,-0.044559478759765625,0.004677832126617432,-0.001297110691666603
1761378696062482000,5.96948193359375,-0.05583000183105469,0.002648472785949707,0.0016307998448610306
1761378696082554400,5.989554443359375,-0.05605602264404297,0.0019300580024719238,0.000793960876762867
1761378696102605300,6.009605224609375,-0.04817485809326172,-0.000491023063659668,0.0028378330171108246
1761378696122656800,6.02965673828125,-0.03800010681152344,0.0019754767417907715,0.0005322294309735298
1761378696142708000,6.0497080078125,-0.04941844940185547,0.007545411586761475,0.0032884515821933746
1761378696162759000,6.069759033203125,-0.03687477111816406,0.008377432823181152,0.005105476826429367
1761378696182810600,6.089810546875,-0.048140525817871094,0.013192415237426758,0.007152128964662552
1761378696202861800,6.10986181640625,-0.045673370361328125,0.014101803302764893,0.0030987942591309547
1761378696222915000,6.1299150390625,-0.056640625,0.005614042282104492,-0.005018522497266531
1761378696242943500,6.149943603515625,-0.0491180419921875,-0.0018486976623535156,0.000879921019077301
1761378696263015700,6.170015625,-0.05232715606689453,-0.009457588195800781,0.002202325500547886
1761378696283066600,6.190066650390625,-0.050345420837402344,-0.009027063846588135,0.004242954775691032
1761378696303117800,6.210117919921875,-0.04693412780761719,-0.0012222528457641602,0.006371865049004555
1761378696323171300,6.23017138671875,-0.04185199737548828,0.005447506904602051,0.0013963747769594193
1761378696343204900,6.250204833984375,-0.040101051330566406,0.0039035677909851074,-0.0003969678655266762
1761378696363272400,6.2702724609375,-0.046113014221191406,0.0126686692237854,0.0033827675506472588
1761378696383302400,6.290302490234375,-0.047847747802734375,0.009895086288452148,0.004119927994906902
1761378696403374600,6.31037451171875,-0.04969978332519531,0.006026625633239746,0.007823273539543152
1761378696423428900,6.330428955078125,-0.05440521240234375,0.0008423328399658203,-0.002062409184873104
1761378696443477000,6.35047705078125,-0.05255603790283203,-0.005022108554840088,0.001631537452340126
1761378696463528200,6.370528076171875,-0.052048683166503906,0.006467282772064209,-0.00019324012100696564
1761378696483579400,6.390579345703125,-0.04409217834472656,0.00996696949005127,-0.0019854512065649033
1761378696503630800,6.410630859375,-0.0389556884765625,0.020466089248657227,0.002689257264137268
1761378696523682000,6.43068212890625,-0.04720020294189453,0.01064753532409668,0.009557469747960567
1761378696543711500,6.45071142578125,-0.050126075744628906,0.004898190498352051,0.005476280115544796
1761378696563784700,6.47078466796875,-0.054671287536621094,0.0005261898040771484,0.00770215317606926
1761378696583835600,6.490835693359375,-0.05272102355957031,-0.0028781890869140625,0.0065592313185334206
1761378696603887900,6.510887939453125,-0.04878711700439453,-0.009160399436950684,0.0005917660892009735
1761378696623939000,6.53093896484375,-0.04314708709716797,-0.010387957096099854,0.0007285047322511673
1761378696643991800,6.55099169921875,-0.035439491271972656,-0.000750124454498291,0.0033615073189139366
1761378696664043800,6.571043701171875,-0.04570770263671875,0.0027440786361694336,0.0017700381577014923
1761378696684094000,6.591093994140625,-0.04509162902832031,0.008339285850524902,0.003311166539788246
1761378696704145700,6.611145751953125,-0.04065895080566406,0.0043939948081970215,0.005869502201676369
1761378696724197000,6.631197021484375,-0.04818534851074219,0.0008326172828674316,0.00929802656173706
1761378696744209700,6.651209716796875,-0.05327129364013672,0.0007245540618896484,0.008288365788757801
1761378696764276000,6.67127587890625,-0.05609321594238281,-0.0035985708236694336,0.004774274304509163
1761378696784350200,6.69135009765625,-0.04271888732910156,-0.0028567910194396973,0.0017515411600470543
1761378696804403000,6.71140283203125,-0.05141735076904297,0.0004608631134033203,0.0010072113946080208
1761378696824452900,6.731452880859375,-0.049480438232421875,0.0021489858627319336,0.00648143794387579
1761378696844504600,6.751504638671875,-0.04631614685058594,0.003208458423614502,0.0016775354743003845
1761378696864556000,6.77155615234375,-0.04167461395263672,0.0014323592185974121,0.0008457088842988014
1761378696884606700,6.791606689453125,-0.04900932312011719,0.0070296525955200195,0.0005189552903175354
1761378696904658700,6.81165869140625,-0.04837226867675781,0.006735682487487793,0.0009089596569538116
1761378696924708900,6.831708984375,-0.04936981201171875,0.002605736255645752,0.0025374405086040497
1761378696944738000,6.851738037109375,-0.04387474060058594,-0.0004830360412597656,0.0006534568965435028
1761378696964812000,6.87181201171875,-0.043491363525390625,-0.003394484519958496,-0.004384114407002926
1761378696984863500,6.891863525390625,-0.04409599304199219,-0.0034633874893188477,0.0023123035207390785
1761378697004915200,6.911915283203125,-0.05016326904296875,-0.0035032033920288086,-0.0034696953371167183
1761378697024966100,6.931966064453125,-0.049948692321777344,-0.000043392181396484375,0.001689688302576542
1761378697045017600,6.952017578125,-0.05954742431640625,-0.002236664295196533,-0.003976111300289631
1761378697065068300,6.972068359375,-0.038001060485839844,-0.0032576322555541992,-0.0018949378281831741
1761378697085119700,6.99211962890625,-0.048786163330078125,-0.0023311972618103027,0.003594069741666317
1761378697105149200,7.012149169921875,-0.049411773681640625,0.01293569803237915,-0.0027311015874147415
1761378697125198800,7.03219873046875,-0.04131031036376953,0.011008262634277344,-0.0031575728207826614
1761378697145250600,7.05225048828125,-0.04630565643310547,0.009619057178497314,0.0006937086582183838
1761378697165324800,7.07232470703125,-0.053124427795410156,0.007305264472961426,0.0019177552312612534
1761378697185375700,7.092375732421875,-0.04761505126953125,0.00742948055267334,-0.006180684547871351
1761378697205427700,7.112427734375,-0.049896240234375,-0.00513613224029541,0.0024641482159495354
1761378697225478100,7.13247802734375,-0.05314826965332031,-0.006096601486206055,0.003638450987637043
1761378697245528800,7.15252880859375,-0.050681114196777344,-0.0046762824058532715,-0.005878384690731764
1761378697265581800,7.172581787109375,-0.03621101379394531,-0.00041615962982177734,-0.003916273824870586
1761378697285632000,7.192632080078125,-0.047654151916503906,-0.0032645463943481445,-0.001533767208456993
1761378697305684200,7.212684326171875,-0.05224323272705078,0.0016661882400512695,0.0013200454413890839
1761378697325734400,7.232734375,-0.03384113311767578,0.00044274330139160156,-0.0025863153859972954
1761378697345785900,7.252785888671875,-0.03159523010253906,0.0004875063896179199,-0.0018299967050552368
1761378697365837800,7.272837890625,-0.050055503845214844,0.00025981664657592773,0.006440485827624798
1761378697385888800,7.292888671875,-0.060715675354003906,0.002741694450378418,-0.002665669657289982
1761378697405939200,7.312939208984375,-0.043183326721191406,-0.002837538719177246,0.006073894910514355
1761378697425968000,7.332968017578125,-0.05175018310546875,0.007348120212554932,0.0005076173692941666
1761378697446042600,7.353042724609375,-0.049793243408203125,0.004810512065887451,0.0024421578273177147
1761378697466093600,7.373093505859375,-0.04657268524169922,0.00891023874282837,0.00234811007976532
1761378697486145000,7.39314501953125,-0.03993701934814453,0.014111697673797607,0.0016517462208867073
1761378697506195700,7.41319580078125,-0.053252220153808594,0.002498805522918701,-0.0016714595258235931
1761378697526223400,7.433223388671875,-0.04799365997314453,0.006869971752166748,0.0002149716019630432
1761378697546299000,7.453298828125,-0.04835319519042969,0.0008388161659240723,-0.0014784662052989006
1761378697566349600,7.473349609375,-0.083404541015625,-0.021311521530151367,0.02788495644927025
1761378697586378800,7.493378662109375,0.10380268096923828,-0.006860673427581787,-0.036350131034851074
1761378697606452500,7.513452392578125,-0.08890533447265625,0.0016213655471801758,0.007383773103356361
1761378697626468900,7.53346875,-0.07433032989501953,0.01094973087310791,0.013405400328338146
1761378697646555100,7.55355517578125,0.01203155517578125,0.013199090957641602,-0.025710253044962883
1761378697666606800,7.57360693359375,-0.18039321899414062,-0.010176122188568115,0.02665497176349163
