time,seconds_elapsed,z,y,x
1761380185717793800,0.085793701171875,-0.05712289363145828,0.02338208258152008,-0.12923429906368256
1761380185727830500,0.09583056640625,-0.06574961543083191,0.018485834822058678,-0.14104191958904266
1761380185737873200,0.105873046875,-0.08570099622011185,0.0022649310994893312,-0.15816213190555573
1761380185747902500,0.11590234375,-0.1074010357260704,-0.02751225046813488,-0.16850420832633972
1761380185757928400,0.125928466796875,-0.11910872906446457,-0.08918166160583496,-0.17200152575969696
1761380185767954200,0.1359541015625,-0.13975957036018372,-0.15554746985435486,-0.18385910987854004
1761380185777979600,0.145979736328125,-0.14212442934513092,-0.2290911078453064,-0.18495826423168182
1761380185788004000,0.156004150390625,-0.12938418984413147,-0.27119219303131104,-0.16115984320640564
1761380185798029600,0.166029541015625,-0.12099061906337738,-0.26704537868499756,-0.0950438380241394
1761380185808056600,0.176056640625,-0.12535394728183746,-0.2090398073196411,-0.004146822262555361
1761380185818080500,0.18608056640625,-0.12970061600208282,-0.12400497496128082,0.07342706620693207
1761380185828108000,0.19610791015625,-0.12223966419696808,-0.052160028368234634,0.09789165109395981
1761380185838133800,0.2061337890625,-0.09924061596393585,-0.014821975491940975,0.06863074004650116
1761380185848159500,0.216159423828125,-0.07149521261453629,0.007194486912339926,0.015538093633949757
1761380185858179000,0.226178955078125,-0.05285949259996414,0.03427373617887497,-0.04223430156707764
1761380185868210700,0.236210693359375,-0.04671420156955719,0.0621357187628746,-0.0927455946803093
1761380185878236400,0.246236328125,-0.046031393110752106,0.07249444723129272,-0.12915103137493134
1761380185888265000,0.256264892578125,-0.04558173567056656,0.06391768902540207,-0.14367324113845825
1761380185898286600,0.26628662109375,-0.04797989875078201,0.055790580809116364,-0.13556279242038727
1761380185908316000,0.27631591796875,-0.05957101657986641,0.0639343410730362,-0.10340409725904465
1761380185918344000,0.286343994140625,-0.07897281646728516,0.08541787415742874,-0.05469142273068428
1761380185928365800,0.29636572265625,-0.08836562186479568,0.11304670572280884,-0.00576225109398365
1761380185938380500,0.306380615234375,-0.08177067339420319,0.12402162700891495,0.024897588416934013
1761380185948416500,0.31641650390625,-0.06308498978614807,0.09542687237262726,0.03465677425265312
1761380185958438000,0.32643798828125,-0.040185872465372086,0.0337408110499382,0.03612231835722923
1761380185968467000,0.336467041015625,-0.024231432005763054,-0.02604670636355877,0.042683959007263184
1761380185978494000,0.346493896484375,-0.018685681745409966,-0.06037040427327156,0.05465811491012573
1761380185988508700,0.3565087890625,-0.005645673722028732,-0.06728177517652512,0.07126206159591675
1761380185998549200,0.36654931640625,0.0012823506258428097,-0.06798124313354492,0.0803883969783783
1761380186008564700,0.376564697265625,0.00046630934230051935,-0.055590733885765076,0.07885623723268509
1761380186018588700,0.386588623046875,0.002881125546991825,-0.038303982466459274,0.07579191774129868
1761380186028625200,0.396625244140625,0.005545750260353088,-0.03197549656033516,0.07264433056116104
1761380186038641700,0.4066416015625,0.008276990614831448,-0.04250076413154602,0.06634915620088577
1761380186048669200,0.416669189453125,0.01325650792568922,-0.06981316953897476,0.05639012157917023
1761380186058698500,0.426698486328125,0.01908537559211254,-0.10133901238441467,0.0544249601662159
1761380186068713200,0.436713134765625,0.021700037643313408,-0.13243184983730316,0.07204478979110718
1761380186078750000,0.44675,0.015937786549329758,-0.1381441354751587,0.11126473546028137
1761380186088775400,0.456775390625,0.005828866735100746,-0.11984150111675262,0.16340811550617218
1761380186098791400,0.46679150390625,-0.006694869603961706,-0.10941615700721741,0.19988016784191132
1761380186108826600,0.47682666015625,-0.01269027590751648,-0.12735241651535034,0.20692476630210876
1761380186118847200,0.48684716796875,-0.00979249645024538,-0.15851186215877533,0.1861240416765213
1761380186128878300,0.49687841796875,-0.0037804364692419767,-0.1844586431980133,0.1510675698518753
1761380186138894000,0.50689404296875,-0.0017153521766886115,-0.19102029502391815,0.11760987341403961
1761380186148929500,0.516929443359375,-0.008759954012930393,-0.17141863703727722,0.09544353187084198
1761380186158955000,0.526955078125,-0.021366959437727928,-0.1452386975288391,0.0861506462097168
1761380186168983000,0.536983154296875,-0.03127603232860565,-0.14159150421619415,0.08623392134904861
1761380186179006000,0.547005859375,-0.0358891636133194,-0.15824539959430695,0.09922396391630173
1761380186189022000,0.55702197265625,-0.03931986913084984,-0.1689039021730423,0.12631987035274506
1761380186199047400,0.56704736328125,-0.04839624837040901,-0.15381546318531036,0.1589781790971756
1761380186209075500,0.577075439453125,-0.06531661748886108,-0.13109953701496124,0.1854911893606186
1761380186219105800,0.587105712890625,-0.07820674031972885,-0.10520271956920624,0.19490064680576324
1761380186229134800,0.597134765625,-0.08570099622011185,-0.07868970185518265,0.1875729262828827
1761380186239154700,0.60715478515625,-0.08804919570684433,-0.058055512607097626,0.17310068011283875
1761380186249186300,0.617186279296875,-0.08828234672546387,-0.04086868092417717,0.16610604524612427
1761380186259211500,0.62721142578125,-0.0914965495467186,-0.028461523354053497,0.16100995242595673
1761380186269237500,0.637237548828125,-0.10623525828123093,-0.03164241835474968,0.14289049804210663
1761380186279265500,0.647265625,-0.11629422008991241,-0.02901110239326954,0.10860010981559753
1761380186289290000,0.6572900390625,-0.12180665880441666,-0.0329747311770916,0.07227794826030731
1761380186299305200,0.66730517578125,-0.15311600267887115,-0.03768778592348099,0.02479766495525837
1761380186309343700,0.67734375,-0.18753962218761444,-0.038437213748693466,-0.025746935978531837
1761380186319367200,0.6873671875,-0.21593452990055084,-0.019984684884548187,-0.07184494286775589
1761380186329393200,0.69739306640625,-0.2290911078453064,0.025030819699168205,-0.09745865315198898
1761380186339406300,0.70740625,-0.22342878580093384,0.08313629031181335,-0.09547683596611023
1761380186349441800,0.71744189453125,-0.21869908273220062,0.06903043389320374,-0.07973889261484146
1761380186359467000,0.727467041015625,-0.20102928578853607,0.10613533854484558,-0.030193530023097992
1761380186369465600,0.737465576171875,-0.1718183308839798,0.15691308677196503,0.03510643169283867
1761380186379519000,0.74751904296875,-0.1554975062608719,0.156963050365448,0.0815708264708519
1761380186389548800,0.757548828125,-0.14796994626522064,0.11824272572994232,0.10666826367378235
1761380186399575300,0.7675751953125,-0.14956872165203094,0.07933920621871948,0.1206575408577919
1761380186409587500,0.77758740234375,-0.15559743344783783,0.049745213240385056,0.12355531752109528
1761380186419624400,0.78762451171875,-0.16372454166412354,0.02687940187752247,0.11078177392482758
1761380186429643800,0.797643798828125,-0.17116883397102356,0.004246745724231005,0.0847683772444725
1761380186439674000,0.807674072265625,-0.17724750936031342,-0.01598774828016758,0.05064452439546585
1761380186449698800,0.81769873046875,-0.1861906498670578,-0.04416615515947342,0.02141692116856575
1761380186459724500,0.827724609375,-0.19733211398124695,-0.08749961853027344,0.0010658499086275697
1761380186469750800,0.837750732421875,-0.2034107893705368,-0.1275355964899063,-0.007810681592673063
1761380186479784200,0.8477841796875,-0.2056923806667328,-0.1455717831850052,-0.0001498851488577202
1761380186489801700,0.8578017578125,-0.20835700631141663,-0.12918433547019958,0.024697741493582726
1761380186499831600,0.86783154296875,-0.2076408863067627,-0.08799923211336136,0.05565734952688217
1761380186509853700,0.877853759765625,-0.19866442680358887,-0.04361657798290253,0.07707427442073822
1761380186519879200,0.887879150390625,-0.1841755360364914,-0.012157350778579712,0.0716450959444046
1761380186529904000,0.897904052734375,-0.16747166216373444,0.00003330780964461155,0.0469307042658329
1761380186539919400,0.90791943359375,-0.15671324729919434,0.008443529717624187,0.017136868089437485
1761380186549955800,0.917955810546875,-0.15248315036296844,0.0313093401491642,-0.002914433367550373
1761380186559977000,0.92797705078125,-0.15200018882751465,0.06383441388607025,-0.011924196034669876
1761380186569997000,0.9379970703125,-0.15018491446971893,0.078789621591568,-0.017253445461392403
1761380186580032500,0.948032470703125,-0.1467542052268982,0.06801454722881317,-0.02291577309370041
1761380186590058800,0.958058837890625,-0.1381441354751587,0.042900457978248596,-0.024814318865537643
1761380186600093000,0.968093017578125,-0.12164012342691422,0.01417247299104929,-0.012290582060813904
1761380186610110200,0.978110107421875,-0.10645175725221634,-0.022682618349790573,0.01292342972010374
1761380186620136200,0.98813623046875,-0.09782503545284271,-0.06153617799282074,0.03966960310935974
1761380186630142500,0.998142578125,-0.08871535211801529,-0.100872702896595,0.048612747341394424
1761380186640187100,1.008187255859375,-0.07261102646589279,-0.15249980986118317,0.029294218868017197
1761380186650204200,1.0182041015625,-0.0592879019677639,-0.22078081965446472,-0.009476072154939175
1761380186660238300,1.02823828125,-0.063801109790802,-0.24761025607585907,-0.05987078696489334
1761380186670266000,1.03826611328125,-0.07499253004789352,-0.24479573965072632,-0.127602219581604
1761380186680290800,1.048290771484375,-0.07216136902570724,-0.2522900104522705,-0.20835700631141663
1761380186690304800,1.0583046875,-0.053708843886852264,-0.24601148068904877,-0.2740066945552826
1761380186700312600,1.0683125,-0.02956068143248558,-0.20692476630210876,-0.29187634587287903
1761380186710366200,1.0783662109375,-0.0016154287150129676,-0.15478138625621796,-0.2542385160923004
1761380186720383500,1.088383544921875,0.02299904264509678,-0.10856680572032928,-0.18046171963214874
1761380186730417200,1.098417236328125,0.043100304901599884,-0.07729077339172363,-0.09660930186510086
1761380186740435200,1.108435302734375,0.05715620145201683,-0.06165275722742081,-0.023948315531015396
1761380186750447400,1.118447265625,0.06554976850748062,-0.06433403491973877,0.021267035976052284
1761380186760495900,1.128495849609375,0.07404325902462006,-0.09014758467674255,0.04333345964550972
1761380186770511000,1.138510986328125,0.08386906236410141,-0.12237289547920227,0.05580723658204079
1761380186780551700,1.1485517578125,0.08611734211444855,-0.14410623908042908,0.06496687978506088
1761380186790578200,1.158578125,0.07432637363672256,-0.14645443856716156,0.0647670328617096
1761380186800575200,1.1685751953125,0.06280187517404556,-0.1453719288110733,0.05537423491477966
1761380186810627300,1.17862744140625,0.04236753284931183,-0.11959169059991837,0.0313093401491642
1761380186820654000,1.188654052734375,0.01928522251546383,-0.09374482929706573,-0.003064318560063839
1761380186830663700,1.19866357421875,0.0010825038189068437,-0.08085470646619797,-0.03134264796972275
1761380186840700700,1.20870068359375,-0.026862747967243195,-0.03767113387584686,-0.034839969128370285
1761380186850725400,1.218725341796875,-0.07472606748342514,0.04792993888258934,-0.00782733503729105
1761380186860751600,1.228751708984375,-0.11402928829193115,0.09366156160831451,0.04768012836575508
1761380186870777000,1.238777099609375,-0.1654232293367386,0.09312863647937775,0.1082337275147438
1761380186880784400,1.248784423828125,-0.20963935554027557,0.037054937332868576,0.18194390833377838
1761380186890828300,1.258828369140625,-0.24323028326034546,-0.03953637182712555,0.24899253249168396
1761380186900839000,1.2688388671875,-0.2618493437767029,-0.12485432624816895,0.3000534176826477
1761380186910880000,1.2788798828125,-0.2570696771144867,-0.18710662424564362,0.32513418793678284
1761380186920888800,1.288888916015625,-0.2086900770664215,-0.21616768836975098,0.3227693438529968
1761380186930931500,1.298931396484375,-0.12528732419013977,-0.20927296578884125,0.297322154045105
1761380186940946400,1.308946533203125,-0.022865811362862587,-0.1734837293624878,0.25820213556289673
1761380186950982400,1.318982421875,0.08078809082508087,-0.11219735443592072,0.21553483605384827
1761380186961008000,1.329008056640625,0.17270098626613617,-0.027245787903666496,0.17997874319553375
1761380186971026400,1.3390263671875,0.24651110172271729,0.05535757914185524,0.16295845806598663
1761380186981054000,1.349053955078125,0.2993372976779938,0.12180665880441666,0.16457389295101166
1761380186991085600,1.35908544921875,0.3467176556587219,0.16409093141555786,0.1802119016647339
1761380187001102300,1.369102294921875,0.40468987822532654,0.15576396882534027,0.20137901604175568
1761380187011125800,1.379125732421875,0.4476402997970581,0.1260034441947937,0.20357733964920044
1761380187021162000,1.389161865234375,0.4793660044670105,0.08798258006572723,0.1757819652557373
1761380187031187700,1.399187744140625,0.45996418595314026,-0.04223430156707764,0.09597645699977875
1761380187041213200,1.409213134765625,0.428255170583725,-0.1775805801153183,-0.019102029502391815
1761380187051239400,1.419239501953125,0.4263233244419098,-0.2004963606595993,-0.11829268932342529
1761380187061267200,1.42926708984375,0.43075326085090637,-0.10666826367378235,-0.17095233500003815
1761380187071272200,1.439272216796875,0.4151651859283447,0.04148487746715546,-0.17275094985961914
1761380187081318400,1.449318359375,0.3880693018436432,0.19435106217861176,-0.12050765752792358
1761380187091342000,1.459342041015625,0.3578757643699646,0.308846652507782,-0.02659628540277481
1761380187101357800,1.46935791015625,0.3205210566520691,0.341055303812027,0.07930589467287064
1761380187111393300,1.479393310546875,0.27577200531959534,0.2750392258167267,0.1547480821609497
1761380187121419800,1.489419677734375,0.23780110478401184,0.12110719829797745,0.17986217141151428
1761380187131433700,1.499433837890625,0.2043101042509079,-0.046114660799503326,0.15754593908786774
1761380187141470700,1.509470703125,0.16032713651657104,-0.17225134372711182,0.10595214366912842
1761380187151496000,1.519495849609375,0.10147224366664886,-0.25092437863349915,0.03900344669818878
1761380187161522000,1.52952197265625,0.046647585928440094,-0.2642808258533478,-0.020351070910692215
1761380187171551000,1.539551025390625,0.015021822415292263,-0.19713227450847626,-0.058305319398641586
1761380187181565700,1.549565673828125,0.015638016164302826,-0.06221899017691612,-0.06558308005332947
1761380187191590100,1.559590087890625,0.048029862344264984,0.1017720103263855,-0.0370049774646759
1761380187201628400,1.56962841796875,0.09759188443422318,0.24621133506298065,0.01945176161825657
1761380187211655200,1.5796552734375,0.1555141657590866,0.3353763222694397,0.0880325436592102
1761380187221666600,1.58966650390625,0.21650075912475586,0.3636546730995178,0.14139164984226227
1761380187231701200,1.599701171875,0.27245789766311646,0.3424542546272278,0.15872836112976074
1761380187241727200,1.609727294921875,0.30738112330436707,0.2945742607116699,0.13244850933551788
1761380187251741200,1.6197412109375,0.3092130422592163,0.24392974376678467,0.07336045056581497
1761380187261776600,1.629776611328125,0.28343281149864197,0.19588322937488556,0.0004163476114626974
1761380187271803400,1.639803466796875,0.23383747041225433,0.15681317448616028,-0.07221133261919022
1761380187281818000,1.649818115234375,0.15811216831207275,0.09992343187332153,-0.1477367877960205
1761380187291855000,1.659855224609375,0.08098793774843216,0.022765887901186943,-0.2133365273475647
1761380187301880800,1.669880859375,0.023648545145988464,-0.03727144002914429,-0.2604004442691803
1761380187311895000,1.67989501953125,-0.003364088712260127,-0.0709456354379654,-0.29404133558273315
1761380187321932300,1.689932373046875,-0.00592879019677639,-0.08723315596580505,-0.3199048638343811
1761380187331957800,1.699957763671875,0.01573793962597847,-0.0934450626373291,-0.342537522315979
1761380187341983000,1.70998291015625,0.05580723658204079,-0.08808249980211258,-0.36285528540611267
1761380187352008700,1.7200087890625,0.10208843648433685,-0.06298507004976273,-0.37962576746940613
1761380187362034700,1.73003466796875,0.15677985548973083,-0.025946782901883125,-0.3805250823497772
1761380187372060400,1.740060302734375,0.20922300219535828,0.03908671438694,-0.3516805171966553
1761380187382075400,1.750075439453125,0.2503248453140259,0.11431240290403366,-0.2942911386489868
1761380187392111600,1.760111572265625,0.27412328124046326,0.1755821257829666,-0.22852487862110138
1761380187402137300,1.770137451171875,0.2816508412361145,0.1954335719347,-0.17536561191082
1761380187412162800,1.780162841796875,0.2764381766319275,0.1684209406375885,-0.1440562754869461
1761380187422169300,1.79016943359375,0.2601173520088196,0.11637748777866364,-0.13276493549346924
1761380187432204000,1.8002041015625,0.23322127759456635,0.06293510645627975,-0.133297860622406
1761380187442240300,1.810240234375,0.20302775502204895,0.013856048695743084,-0.14737039804458618
1761380187452272600,1.820272705078125,0.1793958693742752,-0.01900210604071617,-0.16184264421463013
1761380187462292700,1.830292724609375,0.16209246218204498,-0.030160222202539444,-0.17193491756916046
1761380187472319200,1.8403193359375,0.14575497806072235,-0.032125383615493774,-0.1802119016647339
1761380187482339000,1.850339111328125,0.13369755446910858,-0.031875573098659515,-0.19088706374168396
1761380187492368600,1.86036865234375,0.1307997703552246,-0.019684916362166405,-0.20239490270614624
1761380187502395000,1.870394775390625,0.13221535086631775,0.009426110424101353,-0.21608442068099976
1761380187512417300,1.880417236328125,0.14012596011161804,0.026612939313054085,-0.21793299913406372
1761380187522445300,1.8904453125,0.14062556624412537,0.047147203236818314,-0.20344410836696625
1761380187532460000,1.9004599609375,0.13414719700813293,0.055457502603530884,-0.17413322627544403
1761380187542496500,1.91049658203125,0.1215568482875824,0.05076110363006592,-0.13393069803714752
1761380187552520400,1.9205205078125,0.10470309853553772,0.04446592554450035,-0.09282886236906052
1761380187562541000,1.930541015625,0.08666691929101944,0.02797855995595455,-0.054508231580257416
1761380187572578800,1.940578857421875,0.063801109790802,0.004096860531717539,-0.021133804693818092
1761380187582581200,1.950581298828125,0.036638591438531876,-0.011741003021597862,0.010541921481490135
1761380187592629500,1.96062939453125,0.01325650792568922,-0.015155053697526455,0.03480666130781174
1761380187602658000,1.970657958984375,-0.0017986217280849814,-0.01300669927150011,0.051410604268312454
1761380187612675800,1.98067578125,-0.00601205974817276,-0.006994639988988638,0.06549980491399765
1761380187622699800,1.99069970703125,-0.0015155053697526455,0.004346669185906649,0.08363591134548187
1761380187632727000,2.00072705078125,0.008310298435389996,0.021466882899403572,0.10843357443809509
1761380187642742500,2.010742431640625,0.016720520332455635,0.027528904378414154,0.13208211958408356
1761380187652760800,2.0207607421875,0.02246611751616001,0.01811944879591465,0.14360661804676056
1761380187662804500,2.030804443359375,0.02324885129928589,-0.00039969373028725386,0.14209111034870148
1761380187672830200,2.040830322265625,0.017386676743626595,-0.01820271834731102,0.1321154236793518
1761380187682845400,2.050845458984375,0.00857676099985838,-0.027745405212044716,0.11301340162754059
1761380187692873000,2.060873046875,0.0005995405954308808,-0.026829440146684647,0.09424445033073425
1761380187702897200,2.070897216796875,-0.00807714369148016,-0.021700037643313408,0.08213705569505692
1761380187712932600,2.0809326171875,-0.019518377259373665,-0.015155053697526455,0.07659130543470383
1761380187722958000,2.0909580078125,-0.02889452502131462,0.0045798239298164845,0.0769243836402893
1761380187732977200,2.10097705078125,-0.0321420356631279,0.04145156964659691,0.08195386826992035
1761380187743009500,2.111009521484375,-0.02612997591495514,0.0782400444149971,0.09044735878705978
1761380187753035500,2.121035400390625,-0.010725114494562149,0.0992739275097847,0.09749195724725723
1761380187763062300,2.131062255859375,0.009675919078290462,0.10780072957277298,0.10285451263189316
1761380187773077200,2.1410771484375,0.03144257143139839,0.11547817289829254,0.10213840007781982
1761380187783112200,2.1511123046875,0.04618127644062042,0.10983250290155411,0.08635049313306808
1761380187793137700,2.1611376953125,0.049778521060943604,0.09006431698799133,0.05122740939259529
1761380187803164000,2.171163818359375,0.039802830666303635,0.052543070167303085,0.002448124112561345
1761380187813189400,2.181189453125,0.022699272260069847,0.0072111408226192,-0.04726378247141838
1761380187823214800,2.19121484375,0.005895482376217842,-0.017336715012788773,-0.07597511261701584
1761380187833229600,2.2012294921875,-0.003064318560063839,0.0003663859097287059,-0.07730742543935776
1761380187843270000,2.211269775390625,0.005695635452866554,0.05247645452618599,-0.06195252761244774
1761380187853293000,2.22129296875,0.038470521569252014,0.09757522493600845,-0.040052641183137894
1761380187863307000,2.23130712890625,0.0914299339056015,0.1191253811120987,-0.014888591133058071
1761380187873345800,2.241345703125,0.1497352570295334,0.12067419290542603,0.009126340039074421
1761380187883369200,2.251369140625,0.199513778090477,0.10167209059000015,0.024231432005763054
1761380187893383700,2.2613837890625,0.23308804631233215,0.058222051709890366,0.02659628540277481
1761380187903421000,2.2714208984375,0.24792668223381042,-0.008343606255948544,0.01673717424273491
1761380187913446000,2.28144580078125,0.24869276583194733,-0.0791393592953682,0.010292112827301025
1761380187923472000,2.291471923828125,0.2347867488861084,-0.12895119190216064,0.025530437007546425
1761380187933498000,2.301498046875,0.21378616988658905,-0.14054229855537415,0.07419314235448837
1761380187943523600,2.311523681640625,0.20044639706611633,-0.12630321085453033,0.1477367877960205
1761380187953553000,2.321552978515625,0.20162881910800934,-0.11894218623638153,0.2359691709280014
1761380187963570200,2.331570068359375,0.21225401759147644,-0.10305435955524445,0.3181062340736389
1761380187973589000,2.341589111328125,0.22121381759643555,-0.0667821615934372,0.3753790259361267
1761380187983629800,2.3516298828125,0.22282925248146057,-0.031542494893074036,0.3910503387451172
1761380187993652500,2.361652587890625,0.22019793093204498,-0.02254938706755638,0.3692503869533539
1761380188003690500,2.3716904296875,0.21446898579597473,-0.023232197389006615,0.33167916536331177
1761380188013704700,2.38170458984375,0.2141692191362381,-0.01715352199971676,0.301169216632843
1761380188023711000,2.3917109375,0.21018894016742706,-0.015488131903111935,0.28967800736427307
1761380188033754000,2.401754150390625,0.19203618168830872,-0.014905245043337345,0.28444868326187134
1761380188043779800,2.41177978515625,0.1677214801311493,-0.009842458181083202,0.2746562063694
1761380188053805600,2.4218056640625,0.14200784265995026,0.007194486912339926,0.2526230812072754
1761380188063820000,2.431820068359375,0.11741002649068832,0.0333910807967186,0.21963170170783997
1761380188073856800,2.441856689453125,0.09063055366277695,0.062485452741384506,0.17819678783416748
1761380188083882200,2.45188232421875,0.062968410551548,0.08083805441856384,0.1285015344619751
1761380188093896700,2.461896728515625,0.04378311708569527,0.08308633416891098,0.08070482313632965
1761380188103934000,2.471933837890625,0.0345735065639019,0.07667458057403564,0.04288380593061447
1761380188113959400,2.48195947265625,0.033840734511613846,0.058055512607097626,0.010941615328192711
1761380188123985400,2.4919853515625,0.03883690759539604,0.030076952651143074,-0.02204976975917816
1761380188134003500,2.50200341796875,0.04659762606024742,-0.0016154287150129676,-0.06863074004650116
1761380188144036000,2.5120361328125,0.05882159247994423,-0.03310796245932579,-0.12250612676143646
1761380188154062300,2.522062255859375,0.07207810133695602,-0.043899692595005035,-0.1747327744960785
1761380188164071000,2.53207080078125,0.08670023083686829,-0.022532733157277107,-0.21983154118061066
1761380188174113500,2.542113525390625,0.10417017340660095,0.009076378308236599,-0.25335586071014404
1761380188184139500,2.552139404296875,0.1290511041879654,0.041135143488645554,-0.2649969458580017
1761380188194154200,2.562154296875,0.1659894734621048,0.06851416081190109,-0.2426973581314087
1761380188204190500,2.5721904296875,0.2061253786087036,0.08999770134687424,-0.19719888269901276
1761380188214216200,2.58221630859375,0.24198123812675476,0.07785700261592865,-0.14462250471115112
1761380188224246500,2.59224658203125,0.2733405530452728,0.02867802418768406,-0.09659264981746674
1761380188234269700,2.602269775390625,0.3027513325214386,-0.024198124185204506,-0.04871267080307007
1761380188244293600,2.612293701171875,0.322602778673172,-0.05280953273177147,-0.0038803599309176207
1761380188254319000,2.622319091796875,0.33069658279418945,-0.0415848009288311,0.027812020853161812
1761380188264335000,2.632335205078125,0.3331613540649414,0.0005662327748723328,0.046814125031232834
1761380188274359600,2.642359619140625,0.33839067816734314,0.0605369433760643,0.06070348247885704
1761380188284394800,2.652394775390625,0.355427622795105,0.12222300469875336,0.07351033389568329
1761380188294421800,2.662421875,0.38402238488197327,0.14455589652061462,0.08488495647907257
1761380188304446200,2.6724462890625,0.41991156339645386,0.1314159631729126,0.09774176776409149
1761380188314471700,2.6824716796875,0.4523533582687378,0.11151454597711563,0.10806718468666077
1761380188324497700,2.69249755859375,0.4770843982696533,0.0918462872505188,0.11188093572854996
1761380188334523100,2.702523193359375,0.4983347952365875,0.0687972828745842,0.10217170417308807
1761380188344542000,2.7125419921875,0.5196351408958435,0.057589203119277954,0.08318625390529633
1761380188354579200,2.7225791015625,0.5378711819648743,0.06523334234952927,0.05649004504084587
1761380188364569000,2.732569091796875,0.5512775778770447,0.07599176466464996,0.028911178931593895
1761380188374623200,2.742623291015625,0.5592880845069885,0.08808249980211258,0.003197549842298031
1761380188384657700,2.75265771484375,0.5647172331809998,0.1018386259675026,-0.013206546194851398
1761380188394666800,2.762666748046875,0.5698133707046509,0.10916634649038315,-0.012507082894444466
1761380188404694300,2.7726943359375,0.5821871757507324,0.11069850623607635,0.00791060458868742
1761380188414728700,2.782728759765625,0.6083505153656006,0.11432905495166779,0.04141826182603836
1761380188424739800,2.79273974609375,0.6432403922080994,0.1005229726433754,0.07437633723020554
1761380188434780400,2.802780517578125,0.6728843450546265,0.06711523979902267,0.09391137212514877
1761380188444804900,2.812804931640625,0.6927691102027893,0.030459992587566376,0.09777507185935974
1761380188454831000,2.8228310546875,0.7075911164283752,-0.006977986078709364,0.09181297570466995
1761380188464849700,2.832849609375,0.7203146815299988,-0.03698832169175148,0.07550880312919617
1761380188474883300,2.84288330078125,0.7354863882064819,-0.05842189863324165,0.04989510029554367
1761380188484908800,2.85290869140625,0.7516406774520874,-0.06573296338319778,0.015887824818491936
1761380188494916400,2.862916259765625,0.7712922692298889,-0.05347568914294243,-0.012223966419696808
1761380188504960800,2.872960693359375,0.7874465584754944,-0.0115245021879673,-0.024947550147771835
1761380188514986000,2.882986083984375,0.7987379431724548,0.04388304054737091,-0.028628062456846237
1761380188525012000,2.893011962890625,0.80909663438797,0.08856546878814697,-0.03269161656498909
1761380188535034400,2.903034423828125,0.835376501083374,0.1148952916264534,-0.030793070793151855
1761380188545052000,2.913052001953125,0.8686510324478149,0.09109685570001602,-0.012973391450941563
1761380188555088600,2.923088623046875,0.8788598775863647,-0.008426875807344913,0.01612097956240177
1761380188565114400,2.9331142578125,0.8435536026954651,-0.21633422374725342,0.04073544964194298
1761380188575129900,2.9431298828125,0.7692438364028931,-0.4753357470035553,0.04588150605559349
1761380188585165800,2.953165771484375,0.691520094871521,-0.6977986097335815,0.050494641065597534
1761380188595191600,2.963191650390625,0.6331148743629456,-0.8164576888084412,0.08123774826526642
1761380188605217000,2.973217041015625,0.5871334075927734,-0.8271994590759277,0.1487027108669281
1761380188615231700,2.983231689453125,0.5519936680793762,-0.7579525113105774,0.24479573965072632
1761380188625271300,2.993271240234375,0.5397030711174011,-0.6316826343536377,0.34811657667160034
1761380188635294000,3.0032939453125,0.5730442404747009,-0.5063619613647461,0.43380090594291687
1761380188645323300,3.0133232421875,0.667505145072937,-0.41656410694122314,0.478200227022171
1761380188655330600,3.02333056640625,0.7987545728683472,-0.2646305561065674,0.4856278598308563
1761380188665362200,3.033362060546875,0.9498721361160278,-0.09506049007177353,0.4574328064918518
1761380188675396400,3.043396240234375,1.0824038982391357,0.03627220541238785,0.3826734125614166
1761380188685411000,3.0534111328125,1.1904877424240112,0.13341443240642548,0.27399003505706787
1761380188695437300,3.063437255859375,1.2684279680252075,0.2248610258102417,0.17016960680484772
1761380188705475300,3.073475341796875,1.300719976425171,0.30798065662384033,0.09409455955028534
1761380188715500000,3.0835,1.2849153280258179,0.3707159161567688,0.05059456452727318
1761380188725526000,3.093526123046875,1.2393003702163696,0.3987111449241638,0.02538055181503296
1761380188735553800,3.1035537109375,1.1750162839889526,0.39761197566986084,-0.00004996171628590673
1761380188745569800,3.11356982421875,1.097725510597229,0.3819572925567627,-0.02842821553349495
1761380188755588400,3.12358837890625,1.0166375637054443,0.37747740745544434,-0.05629019811749458
1761380188765634000,3.133634033203125,0.9411121606826782,0.40332427620887756,-0.0794224739074707
1761380188775650300,3.143650390625,0.8762785196304321,0.46009743213653564,-0.09729211032390594
1761380188785667800,3.153667724609375,0.8268330693244934,0.5266464352607727,-0.11133135110139847
1761380188795704600,3.16370458984375,0.7950907349586487,0.586084246635437,-0.13149923086166382
1761380188805730000,3.17372998046875,0.7775042057037354,0.6228727102279663,-0.16047702729701996
1761380188815736800,3.18373681640625,0.7685443758964539,0.628951370716095,-0.19130340218544006
1761380188825781000,3.193781005859375,0.7645640969276428,0.6142293214797974,-0.21168778836727142
1761380188835808000,3.20380810546875,0.7649304866790771,0.590330958366394,-0.2090398073196411
1761380188845801200,3.21380126953125,0.7590183615684509,0.5592880845069885,-0.1831263303756714
1761380188855860500,3.223860595703125,0.7438799738883972,0.518702507019043,-0.14742036163806915
1761380188865886000,3.233885986328125,0.7231292128562927,0.46760833263397217,-0.11794295161962509
1761380188875911000,3.243910888671875,0.7074412107467651,0.41443243622779846,-0.10350401699542999
1761380188885914400,3.253914306640625,0.7048099040985107,0.3620891869068146,-0.11387939751148224
1761380188895939800,3.26393994140625,0.7122042179107666,0.3090798258781433,-0.15160049498081207
1761380188905965600,3.273965576171875,0.723895251750946,0.25565409660339355,-0.21113820374011993
1761380188916003600,3.284003662109375,0.7327218651771545,0.21919868886470795,-0.27285757660865784
1761380188926017500,3.294017578125,0.730690062046051,0.2186158150434494,-0.3146422207355499
1761380188936043500,3.30404345703125,0.7173503041267395,0.25523775815963745,-0.32318568229675293
1761380188946068000,3.31406787109375,0.6980817317962646,0.3126603960990906,-0.2982381284236908
1761380188956083000,3.3240830078125,0.6772810220718384,0.36733517050743103,-0.2578524053096771
1761380188966118100,3.3341181640625,0.6504848599433899,0.39671266078948975,-0.2205476611852646
1761380188976152800,3.34415283203125,0.616943895816803,0.40747109055519104,-0.18923832476139069
1761380188986178600,3.354178466796875,0.5818374752998352,0.40011006593704224,-0.16006067395210266
1761380188996197600,3.36419775390625,0.5522934198379517,0.3886854946613312,-0.13881029188632965
1761380189006244400,3.374244384765625,0.529960572719574,0.36818453669548035,-0.12167342752218246
1761380189016260000,3.384260009765625,0.5140560865402222,0.33251187205314636,-0.11109820008277893
1761380189026296300,3.39429638671875,0.5028812885284424,0.28120118379592896,-0.09805819392204285
1761380189036302300,3.40430224609375,0.489857941865921,0.23626895248889923,-0.07690773159265518
1761380189046354400,3.4143544921875,0.4726877808570862,0.20364394783973694,-0.049745213240385056
1761380189056373800,3.424373779296875,0.4488227367401123,0.17659801244735718,-0.0316590741276741
1761380189066399200,3.434399169921875,0.42532408237457275,0.15729613602161407,-0.025780243799090385
1761380189076422700,3.444422607421875,0.3997436761856079,0.14930225908756256,-0.027145864441990852
1761380189086450200,3.4544501953125,0.37344714999198914,0.1451720893383026,-0.03444027528166771
1761380189096476700,3.4644765625,0.34576836228370667,0.12998372316360474,-0.044149503111839294
1761380189106510600,3.474510498046875,0.31570807099342346,0.10984915494918823,-0.05482465401291847
1761380189116526600,3.484526611328125,0.28433212637901306,0.09252909570932388,-0.06138629466295242
1761380189126552600,3.494552490234375,0.250124990940094,0.07361026108264923,-0.06589949876070023
1761380189136578800,3.504578857421875,0.2101389765739441,0.04796324670314789,-0.06416749209165573
1761380189146602200,3.514602294921875,0.16538992524147034,0.020800726488232613,-0.06008728966116905
1761380189156629500,3.52462939453125,0.1136462464928627,0.0009825803572311997,-0.054125189781188965
1761380189166654000,3.534654052734375,0.059054747223854065,-0.002398162381723523,-0.048163093626499176
1761380189176674300,3.54467431640625,0.011074846610426903,0.005162710323929787,-0.042484112083911896
1761380189186695700,3.55469580078125,-0.026829440146684647,-0.00567898154258728,-0.039553023874759674
1761380189196721200,3.56472119140625,-0.04773009195923805,-0.044948890805244446,-0.031375955790281296
1761380189206757600,3.574757568359375,-0.053958650678396225,-0.06693204492330551,-0.006578292232006788
1761380189216780000,3.584780029296875,-0.059004783630371094,-0.04053560271859169,0.03294142335653305
1761380189226809300,3.594809326171875,-0.06486696004867554,-0.0045132082886993885,0.06198583543300629
1761380189236834800,3.604834716796875,-0.06181929633021355,-0.007277756463736296,0.06313495337963104
1761380189246849800,3.614849853515625,-0.047663476318120956,-0.024830972775816917,0.04676416516304016
1761380189256886300,3.62488623046875,-0.033207885921001434,-0.013223200105130672,0.035339586436748505
1761380189266912000,3.634912109375,-0.02809513732790947,0.023898353800177574,0.03454019874334335
1761380189276948000,3.644947998046875,-0.028877871111035347,0.06691539287567139,0.043766461312770844
1761380189286963500,3.65496337890625,-0.03347434848546982,0.0926123633980751,0.058005549013614655
1761380189297000000,3.665,-0.042317572981119156,0.09109685570001602,0.07474272698163986
1761380189307003100,3.675003173828125,-0.04704727977514267,0.05818874388933182,0.09644276648759842
1761380189317040400,3.685040283203125,-0.05447492375969887,0.031375955790281296,0.12000803649425507
1761380189327066600,3.695066650390625,-0.06691539287567139,-0.00003330780964461155,0.13403062522411346
1761380189337092000,3.705092041015625,-0.08550114929676056,-0.03812078759074211,0.11944180727005005
1761380189347105800,3.715105712890625,-0.10530263930559158,-0.07349368184804916,0.06121975556015968
1761380189357143300,3.725143310546875,-0.10936619341373444,-0.06381776183843613,-0.016937021166086197
1761380189367153700,3.735153564453125,-0.09474406391382217,-0.006644907873123884,-0.09043070673942566
1761380189377183700,3.745183837890625,-0.07112883031368256,0.06686542928218842,-0.13604575395584106
1761380189387220200,3.75522021484375,-0.04285049811005592,0.13459685444831848,-0.1343970149755478
1761380189397245700,3.76524560546875,-0.012223966419696808,0.18788935244083405,-0.08145424723625183
1761380189407271400,3.775271484375,0.017303407192230225,0.21310336887836456,0.00008326952229253948
1761380189417283300,3.785283447265625,0.03920329362154007,0.22517745196819305,0.07707427442073822
1761380189427323100,3.7953232421875,0.054791346192359924,0.23265504837036133,0.11992476880550385
1761380189437338400,3.80533837890625,0.0720614492893219,0.2186158150434494,0.12388839572668076
1761380189447363300,3.81536328125,0.08723315596580505,0.16538992524147034,0.11026550084352493
1761380189457399300,3.8253994140625,0.08421880006790161,0.1037871316075325,0.11139796674251556
1761380189467425500,3.835425537109375,0.06673219799995422,0.03265830874443054,0.14145827293395996
1761380189477440300,3.845440185546875,0.03184226527810097,-0.030193530023097992,0.1892549693584442
1761380189487476500,3.8554765625,-0.014455589465796947,-0.1008060872554779,0.22309571504592896
1761380189497502700,3.865502685546875,-0.057172853499650955,-0.18808920681476593,0.23685184121131897
1761380189507516200,3.87551611328125,-0.09321190416812897,-0.255820631980896,0.23586925864219666
1761380189517553400,3.885553466796875,-0.13011695444583893,-0.2826334238052368,0.2291743904352188
1761380189527579400,3.895579345703125,-0.16533996164798737,-0.28438207507133484,0.2186158150434494
1761380189537605000,3.905605224609375,-0.18830570578575134,-0.2710256576538086,0.20609207451343536
1761380189547608800,3.91560888671875,-0.19185298681259155,-0.22084742784500122,0.1975153088569641
1761380189557656300,3.92565625,-0.17608173191547394,-0.13408058881759644,0.19711561501026154
1761380189567682000,3.93568212890625,-0.14915236830711365,-0.03548946976661682,0.20439337193965912
1761380189577707800,3.945707763671875,-0.120724156498909,0.04912902042269707,0.21435241401195526
1761380189587728400,3.955728271484375,-0.10180532187223434,0.10483632981777191,0.2243114411830902
1761380189597759200,3.96575927734375,-0.08963131904602051,0.1377277970314026,0.23462021350860596
1761380189607798000,3.975798095703125,-0.08142094314098358,0.15646342933177948,0.24489566683769226
1761380189617810200,3.98581005859375,-0.08063820749521255,0.1612597554922104,0.24927565455436707
1761380189627836400,3.99583642578125,-0.08953139185905457,0.1378110647201538,0.23643548786640167
1761380189637860900,4.00586083984375,-0.10515275597572327,0.07810681313276291,0.20307771861553192
1761380189647888000,4.015887939453125,-0.1262865662574768,-0.0015155053697526455,0.1554308980703354
1761380189657908000,4.025907958984375,-0.1456383913755417,-0.06891385465860367,0.11637748777866364
1761380189667938000,4.03593798828125,-0.16056029498577118,-0.08248679339885712,0.1034374013543129
1761380189677942000,4.04594189453125,-0.17303407192230225,-0.046281199902296066,0.11221401393413544
1761380189687979000,4.05597900390625,-0.17803023755550385,0.005146056413650513,0.1240549385547638
1761380189697992000,4.065991943359375,-0.16747166216373444,0.039602987468242645,0.10685145109891891
1761380189708030000,4.076030029296875,-0.13506317138671875,0.027945252135396004,0.030343415215611458
1761380189718066700,4.086066650390625,-0.08168740570545197,-0.03427373617887497,-0.09109685570001602
1761380189728092700,4.0960927734375,-0.011341309174895287,-0.09904076904058456,-0.2129201740026474
1761380189738125800,4.106125732421875,0.057755742222070694,-0.11994142085313797,-0.29820480942726135
1761380189748143900,4.116143798828125,0.1131632849574089,-0.08177067339420319,-0.3253839910030365
1761380189758169000,4.126169189453125,0.15318261086940765,0.006844754796475172,-0.2883790135383606
1761380189768195000,4.136195068359375,0.18580761551856995,0.12185662239789963,-0.1970156878232956
1761380189778205400,4.146205322265625,0.22136370837688446,0.20510949194431305,-0.0633181482553482
1761380189788247000,4.1562470703125,0.25627028942108154,0.2385338842868805,0.08631718903779984
1761380189798260700,4.1662607421875,0.28384914994239807,0.21946515142917633,0.22316232323646545
1761380189808286500,4.176286376953125,0.3069814145565033,0.15348239243030548,0.3247511386871338
1761380189818323500,4.186323486328125,0.32555052638053894,0.05177699029445648,0.38104134798049927
1761380189828338000,4.196337890625,0.3457184135913849,-0.06701531261205673,0.4062553644180298
1761380189838375000,4.206375,0.35159724950790405,-0.1437065452337265,0.4181462526321411
1761380189848392700,4.216392822265625,0.3387071192264557,-0.15966098010540009,0.4236253798007965
1761380189858426400,4.22642626953125,0.3229025602340698,-0.12463782727718353,0.41809627413749695
1761380189868452400,4.236452392578125,0.29770520329475403,-0.0469307042658329,0.38095808029174805
1761380189878466000,4.246466064453125,0.26426416635513306,0.012357197701931,0.31216078996658325
1761380189888502800,4.256502685546875,0.23530301451683044,0.04921228811144829,0.2281251847743988
1761380189898529300,4.266529296875,0.20607541501522064,0.07007963210344315,0.1415581852197647
1761380189908553500,4.276553466796875,0.18227699398994446,0.07021286338567734,0.06861408799886703
1761380189918574800,4.286574951171875,0.1573794037103653,0.07304402440786362,0.01953503116965294
1761380189928605400,4.29660546875,0.11872568726539612,0.0688638985157013,0.007877296768128872
1761380189938631400,4.30663134765625,0.07639145851135254,0.06238552927970886,0.04270061105489731
1761380189948657400,4.316657470703125,0.04186791554093361,0.07998870313167572,0.1289844959974289
1761380189958683100,4.32668310546875,0.025280628353357315,0.11897549778223038,0.24994181096553802
1761380189968695000,4.336695068359375,0.04050229489803314,0.12010796368122101,0.37837672233581543
1761380189978734000,4.346734130859375,0.08250344544649124,0.032092075794935226,0.46127986907958984
1761380189988759600,4.356759521484375,0.12973392009735107,-0.1430736929178238,0.4568499028682709
1761380189998785800,4.366785888671875,0.16097664833068848,-0.29367494583129883,0.38080817461013794
1761380190008809500,4.3768095703125,0.14871937036514282,-0.3342605233192444,0.28021860122680664
1761380190018836500,4.38683642578125,0.12119046598672867,-0.2647304832935333,0.19358499348163605
1761380190028862200,4.3968623046875,0.1013556644320488,-0.14510546624660492,0.14025919139385223
1761380190038888400,4.406888427734375,0.11687710136175156,0.011324655264616013,0.12467113137245178
1761380190048913700,4.41691357421875,0.1664058119058609,0.16187594830989838,0.1370449811220169
1761380190058930700,4.4269306640625,0.22272932529449463,0.2813177704811096,0.1536988914012909
1761380190068961000,4.4369609375,0.2759552001953125,0.37539565563201904,0.15324923396110535
1761380190078990600,4.446990478515625,0.32366862893104553,0.4348667562007904,0.12050765752792358
1761380190089007000,4.457007080078125,0.35999080538749695,0.45053809881210327,0.05389203503727913
1761380190099042000,4.4670419921875,0.3916165828704834,0.439163476228714,-0.035006508231163025
1761380190109059000,4.47705908203125,0.3863372802734375,0.39020100235939026,-0.1078173816204071
1761380190119092700,4.4870927734375,0.3479999899864197,0.26912710070610046,-0.17171841859817505
1761380190129118700,4.49711865234375,0.28563112020492554,0.1219732016324997,-0.22677622735500336
1761380190139144700,4.507144775390625,0.21836599707603455,-0.009759188629686832,-0.24283058941364288
1761380190149170000,4.517169921875,0.18347607553005219,-0.09449425339698792,-0.1888219714164734
1761380190159196000,4.52719580078125,0.1697365939617157,-0.11552813649177551,-0.10475306212902069
1761380190169221600,4.5372216796875,0.1691870242357254,-0.09720884263515472,-0.01765313930809498
1761380190179243500,4.547243408203125,0.1832096129655838,-0.054125189781188965,0.0601205974817276
1761380190189273000,4.557273193359375,0.2041102647781372,0.005978751927614212,0.11904211342334747
1761380190199286800,4.567286865234375,0.22765888273715973,0.04426607862114906,0.14846956729888916
1761380190209312800,4.577312744140625,0.26051703095436096,0.0691470131278038,0.1550312042236328
1761380190219350000,4.58735009765625,0.3419879376888275,0.06591615825891495,0.1528661996126175
1761380190229376000,4.5973759765625,0.4016921818256378,0.02316558174788952,0.11456221342086792
1761380190239389700,4.6073896484375,0.4092364013195038,-0.01392266433686018,0.05240983888506889
1761380190249427000,4.617427001953125,0.3866870105266571,-0.043566614389419556,-0.036655243486166
1761380190259452700,4.62745263671875,0.32953080534935,-0.05890486016869545,-0.16902047395706177
1761380190269467400,4.63746728515625,0.2921428084373474,-0.029194295406341553,-0.28681355714797974
1761380190279504000,4.64750390625,0.2995704412460327,0.0927455946803093,-0.35284629464149475
1761380190289529600,4.657529541015625,0.32611677050590515,0.30203521251678467,-0.37845999002456665
1761380190299554800,4.667554931640625,0.35431182384490967,0.5263633131980896,-0.3977452218532562
1761380190309563600,4.677563720703125,0.39719563722610474,0.6788464784622192,-0.40339088439941406
1761380190319606800,4.687606689453125,0.4595645070075989,0.71197110414505,-0.37457963824272156
1761380190329622500,4.69762255859375,0.525763750076294,0.6394932866096497,-0.3039337694644928
1761380190339647000,4.70764697265625,0.5753924250602722,0.5065785050392151,-0.19606642425060272
1761380190349683200,4.71768310546875,0.6045200824737549,0.3442029058933258,-0.07590849697589874
1761380190359697000,4.72769677734375,0.6327151656150818,0.19426779448986053,0.03282484784722328
1761380190369734700,4.737734619140625,0.6172436475753784,0.08138763159513474,0.09264567494392395
1761380190379753500,4.74775341796875,0.5801054835319519,0.024331355467438698,0.0968424528837204
1761380190389786600,4.75778662109375,0.5388870239257812,-0.008943147026002407,0.03993606194853783
1761380190399812000,4.76781201171875,0.4880593419075012,-0.03235853835940361,-0.07525899261236191
1761380190409848000,4.77784814453125,0.45536771416664124,-0.05327584221959114,-0.21385279297828674
1761380190419862800,4.78786279296875,0.4405623972415924,-0.06288514286279678,-0.34888264536857605
1761380190429888500,4.797888427734375,0.43205225467681885,-0.05211006850004196,-0.4594978988170624
1761380190439894300,4.807894287109375,0.42482444643974304,-0.003330780891701579,-0.5388537645339966
1761380190449940200,4.817940185546875,0.40928637981414795,0.07707427442073822,-0.5960432291030884
1761380190459965700,4.827965576171875,0.4081538915634155,0.12577028572559357,-0.617560088634491
1761380190469980400,4.83798046875,0.4332180321216583,0.1579456329345703,-0.5791728496551514
1761380190480018000,4.848017822265625,0.47641825675964355,0.23238858580589294,-0.46086350083351135
1761380190490042600,4.858042724609375,0.5272626280784607,0.3346269130706787,-0.2808181345462799
1761380190500068600,4.868068603515625,0.5612532496452332,0.4075210392475128,-0.08493491262197495
1761380190510093000,4.878093017578125,0.5592714548110962,0.4368818998336792,0.0839356780052185
1761380190520119600,4.88811962890625,0.5352231860160828,0.43691518902778625,0.2087567001581192
1761380190530145800,4.898145751953125,0.5088101029396057,0.4105853736400604,0.28438207507133484
1761380190540160500,4.908160400390625,0.48601090908050537,0.3714820146560669,0.31742343306541443
1761380190550196500,4.918196533203125,0.4650436341762543,0.3479500412940979,0.3187057673931122
1761380190560235300,4.9282353515625,0.4436933398246765,0.3532792925834656,0.3011358976364136
1761380190570231000,4.93823095703125,0.41907885670661926,0.3876029849052429,0.27635490894317627
1761380190580263000,4.948262939453125,0.390350878238678,0.38740313053131104,0.23392075300216675
1761380190590299600,4.958299560546875,0.34438610076904297,0.34921571612358093,0.15929460525512695
1761380190600326700,4.96832666015625,0.30488303303718567,0.2923926115036011,0.07930589467287064
1761380190610351600,4.9783515625,0.27404001355171204,0.24767687916755676,0.009775842539966106
1761380190620376600,4.98837646484375,0.24406297504901886,0.21003904938697815,-0.043433383107185364
1761380190630402300,4.99840234375,0.20983919501304626,0.17659801244735718,-0.08500152826309204
1761380190640429000,5.008428955078125,0.17106890678405762,0.1562802493572235,-0.11326320469379425
1761380190650453500,5.01845361328125,0.13164912164211273,0.14630454778671265,-0.12185662239789963
1761380190660479000,5.02847900390625,0.09023085981607437,0.14750362932682037,-0.11511179059743881
1761380190670497300,5.038497314453125,0.04906240478157997,0.1527329683303833,-0.09657599776983261
1761380190680531200,5.04853125,0.017170175909996033,0.1370449811220169,-0.07007963210344315
1761380190690557200,5.05855712890625,-0.005995405837893486,0.10953272879123688,-0.04330015182495117
1761380190700570400,5.0685703125,-0.016603942960500717,0.06964662671089172,-0.016304172575473785
1761380190710599400,5.078599365234375,-0.023865045979619026,0.03385739028453827,0.01169104129076004
1761380190720632800,5.0886328125,-0.041767992079257965,0.011957503855228424,0.03352431207895279
1761380190730658000,5.098657958984375,-0.0667155459523201,0.0003497319994494319,0.04688074067234993
1761380190740662000,5.108662109375,-0.09770845621824265,0.004313361365348101,0.05357561260461807
1761380190750710000,5.1187099609375,-0.12568701803684235,0.01900210604071617,0.06323487311601639
1761380190760736000,5.128736083984375,-0.15011829137802124,0.03355761989951134,0.08306967467069626
1761380190770753300,5.138753173828125,-0.17090237140655518,0.04733039811253548,0.11604440957307816
1761380190780786700,5.14878662109375,-0.1861906498670578,0.035089775919914246,0.16369123756885529
1761380190790812400,5.1588125,-0.18211044371128082,-0.0044465926475822926,0.22945749759674072
1761380190800826600,5.16882666015625,-0.15096764266490936,-0.05211006850004196,0.30779746174812317
1761380190810864400,5.178864501953125,-0.10585221648216248,-0.07489261031150818,0.3824402689933777
1761380190820879400,5.18887939453125,-0.07134532928466797,-0.05142725631594658,0.43406736850738525
1761380190830915600,5.19891552734375,-0.06007063388824463,-0.0026146629825234413,0.444992333650589
1761380190840954600,5.20895458984375,-0.0642840713262558,0.06265199184417725,0.41643089056015015
1761380190850966500,5.218966552734375,-0.0803217813372612,0.11679383367300034,0.3498319387435913
1761380190860992000,5.228991943359375,-0.09999004751443863,0.11964165419340134,0.26369792222976685
1761380190871015700,5.239015625,-0.1359957903623581,0.10933288186788559,0.16437403857707977
1761380190881043500,5.24904345703125,-0.17031948268413544,0.12265601009130478,0.0707457885146141
1761380190891069000,5.25906884765625,-0.1848083883523941,0.16170941293239594,-0.00489624822512269
1761380190901087200,5.269087158203125,-0.1825101375579834,0.22429479658603668,-0.060137249529361725
1761380190911112000,5.27911181640625,-0.17295080423355103,0.29237595200538635,-0.10268797725439072
1761380190921136400,5.289136474609375,-0.16693873703479767,0.3439863920211792,-0.1388436108827591
1761380190931171300,5.29917138671875,-0.1525164544582367,0.37819352746009827,-0.15361562371253967
1761380190941175000,5.309175048828125,-0.1323152780532837,0.3690338730812073,-0.1335643231868744
1761380190951223300,5.319223388671875,-0.11942514777183533,0.3321121633052826,-0.08336944878101349
1761380190961248800,5.329248779296875,-0.11129804700613022,0.27182504534721375,-0.012423813343048096
1761380190971267800,5.339267822265625,-0.10165543854236603,0.17708097398281097,0.06894716620445251
1761380190981300200,5.34930029296875,-0.08360259979963303,0.0678979679942131,0.15454824268817902
1761380190991326000,5.359325927734375,-0.06153617799282074,-0.026146629825234413,0.24949215352535248
1761380191001339400,5.36933935546875,-0.039503064006567,-0.08856546878814697,0.3466843366622925
1761380191011377400,5.37937744140625,-0.018319295719265938,-0.11845922470092773,0.430003821849823
1761380191021403100,5.389403076171875,0.004396630916744471,-0.11179766058921814,0.4861774444580078
1761380191031428000,5.399427978515625,0.026662901043891907,-0.08749961853027344,0.5062620639801025
1761380191041467600,5.409467529296875,0.043233536183834076,-0.07174502313137054,0.49202296137809753
1761380191051480000,5.41947998046875,0.0493621751666069,-0.07084570825099945,0.44828981161117554
1761380191061505000,5.429505126953125,0.045148737728595734,-0.07972224056720734,0.38247358798980713
1761380191071514600,5.4395146484375,0.03299138695001602,-0.09547683596611023,0.312177449464798
1761380191081557500,5.4495576171875,0.018718989565968513,-0.1058022603392601,0.2562536299228668
1761380191091582700,5.459582763671875,0.002448124112561345,-0.09459418058395386,0.22133038938045502
1761380191101608400,5.4696083984375,-0.016004402190446854,-0.0568564310669899,0.20540925860404968
1761380191111643100,5.47964306640625,-0.026113322004675865,0.0026313168928027153,0.20086275041103363
1761380191121659100,5.4896591796875,-0.030626531690359116,0.06876397132873535,0.20011332631111145
1761380191131673900,5.499673828125,-0.03274157643318176,0.12295577675104141,0.19017094373703003
1761380191141711400,5.50971142578125,-0.03299138695001602,0.15746267139911652,0.16773812472820282
1761380191151735800,5.51973583984375,-0.03031010739505291,0.1765480488538742,0.13318127393722534
1761380191161762000,5.529761962890625,-0.026662901043891907,0.18199387192726135,0.08764950186014175
1761380191171764700,5.5397646484375,-0.027112556621432304,0.16322492063045502,0.037254784256219864
1761380191181812000,5.54981201171875,-0.035972435027360916,0.12253943085670471,-0.01417247299104929
1761380191191827200,5.5598271484375,-0.05129402503371239,0.07444295287132263,-0.06191921979188919
1761380191201851100,5.56985107421875,-0.06848085671663284,0.045315276831388474,-0.11306335777044296
1761380191211891000,5.579890869140625,-0.08213705569505692,0.04371650144457817,-0.17061924934387207
1761380191221906000,5.589906005859375,-0.09128005057573318,0.0633847638964653,-0.2313893586397171
1761380191231941600,5.599941650390625,-0.10082273930311203,0.08320290595293045,-0.29062730073928833
1761380191241967900,5.6099677734375,-0.10888323187828064,0.09499387443065643,-0.33757466077804565
1761380191251993000,5.6199931640625,-0.11349636316299438,0.10608537495136261,-0.36262211203575134
1761380191262018000,5.63001806640625,-0.11429575085639954,0.12145692855119705,-0.36213916540145874
1761380191272043800,5.640043701171875,-0.11043204367160797,0.12288916110992432,-0.3340107202529907
1761380191282066700,5.650066650390625,-0.10127239674329758,0.1020551323890686,-0.27780377864837646
1761380191292095700,5.660095703125,-0.08878196775913239,0.05718950927257538,-0.19911408424377441
1761380191302120200,5.6701201171875,-0.07274425774812698,-0.0010825038189068437,-0.11466213315725327
1761380191312147000,5.68014697265625,-0.05219333618879318,-0.05505780875682831,-0.03407388925552368
1761380191322163700,5.690163818359375,-0.033041346818208694,-0.09632618725299835,0.03314127027988434
1761380191332198000,5.700197998046875,-0.02742898091673851,-0.12345539778470993,0.08385241031646729
1761380191342224400,5.710224365234375,-0.040768757462501526,-0.13299807906150818,0.115245021879673
1761380191352249600,5.72024951171875,-0.06614930927753448,-0.12077412009239197,0.12340543419122696
1761380191362275000,5.730275146484375,-0.08908173441886902,-0.0893481969833374,0.11283020675182343
1761380191372288800,5.740288818359375,-0.09985681623220444,-0.04701397195458412,0.08003866672515869
1761380191382326000,5.750325927734375,-0.09877430647611618,-0.010675152763724327,0.031875573098659515
1761380191392352500,5.7603525390625,-0.09239586442708969,0.013489662669599056,-0.020734110847115517
1761380191402390300,5.770390380859375,-0.08187059313058853,0.030326761305332184,-0.06958001106977463
1761380191412403700,5.78040380859375,-0.0715784803032875,0.05670654773712158,-0.11407924443483353
1761380191422429000,5.790428955078125,-0.07264433056116104,0.07117878645658493,-0.15951110422611237
1761380191432443600,5.800443603515625,-0.09106355160474777,0.042650651186704636,-0.2166006863117218
1761380191442480600,5.810480712890625,-0.12147358059883118,-0.03210872784256935,-0.2751224935054779
1761380191452505900,5.820505859375,-0.1481531411409378,-0.10168874263763428,-0.3105286955833435
1761380191462531600,5.830531494140625,-0.1720348298549652,-0.10463648289442062,-0.3178897500038147
1761380191472547800,5.8405478515625,-0.18732312321662903,-0.0757419615983963,-0.3019352853298187
1761380191482583000,5.8505830078125,-0.19676588475704193,-0.024181470274925232,-0.26100000739097595
1761380191492609000,5.860609130859375,-0.20009666681289673,0.04320022836327553,-0.20254479348659515
1761380191502624800,5.870624755859375,-0.18261006474494934,0.07739069312810898,-0.14653770625591278
1761380191512660000,5.880659912109375,-0.139742910861969,0.06991308927536011,-0.1049695611000061
1761380191522667300,5.890667236328125,-0.07604172825813293,0.028361599892377853,-0.06781470030546188
1761380191532711700,5.900711669921875,-0.012490428984165192,-0.04270061105489731,-0.027295749634504318
1761380191542730200,5.910730224609375,0.03593912720680237,-0.12463782727718353,0.013872702606022358
1761380191552762600,5.9207626953125,0.07472606748342514,-0.1720348298549652,0.047946590930223465
1761380191562788000,5.9307880859375,0.11760987341403961,-0.17211811244487762,0.0699797049164772
1761380191572804400,5.940804443359375,0.15677985548973083,-0.1244046688079834,0.08183728903532028
1761380191582829300,5.950829345703125,0.18609073758125305,-0.06033709645271301,0.08701664954423904
1761380191592865000,5.960864990234375,0.21595118939876556,0.012423813343048096,0.0848349928855896
1761380191602890500,5.970890380859375,0.25695309042930603,0.07695769518613815,0.0849016085267067
1761380191612916700,5.980916748046875,0.2734404504299164,0.10631852596998215,0.07229460030794144
1761380191622942700,5.990942626953125,0.23363763093948364,0.06356795132160187,0.029494065791368484
1761380191632956700,6.000956787109375,0.17000305652618408,-0.02036772482097149,-0.04183460772037506
1761380191642993700,6.01099365234375,0.13006699085235596,-0.08443529903888702,-0.09952373802661896
1761380191653019400,6.021019287109375,0.09499387443065643,-0.14372320473194122,-0.12976722419261932
1761380191663044600,6.031044677734375,0.036005742847919464,-0.18437537550926208,-0.08313629031181335
1761380191673055700,6.0410556640625,0.00584552064538002,-0.1440562754869461,0.033924005925655365
1761380191683096800,6.051096923828125,0.037088245153427124,-0.028028521686792374,0.19203618168830872
1761380191693110500,6.061110595703125,0.11312997341156006,0.06475038081407547,0.3378910720348358
1761380191703121000,6.071120849609375,0.18234360218048096,0.10028981417417526,0.42427489161491394
1761380191713173500,6.081173583984375,0.21380282938480377,0.07377679646015167,0.4246412515640259
1761380191723199200,6.09119921875,0.211038276553154,-0.008510145358741283,0.3465677499771118
1761380191733224400,6.101224365234375,0.19176971912384033,-0.10430340468883514,0.2255604863166809
1761380191743239700,6.11123974609375,0.17058594524860382,-0.1583453267812729,0.1059354916214943
1761380191753275400,6.121275390625,0.15546420216560364,-0.13394735753536224,0.025497129186987877
1761380191763301400,6.13130126953125,0.14685413241386414,-0.008460183627903461,0.00696133216843009
1761380191773317600,6.141317626953125,0.12631987035274506,0.13594582676887512,0.0399194099009037
1761380191783353000,6.15135302734375,0.10841692239046097,0.23358766734600067,0.07575861364603043
1761380191793378800,6.16137890625,0.15824539959430695,0.32325229048728943,0.12951742112636566
1761380191803393000,6.17139306640625,0.273173987865448,0.4062053859233856,0.20241156220436096
1761380191813429800,6.1814296875,0.3915999233722687,0.47633498907089233,0.26871076226234436
1761380191823456000,6.1914560546875,0.48987460136413574,0.5004664659500122,0.3037172555923462
1761380191833465000,6.201465087890625,0.5508944988250732,0.43594926595687866,0.2912434935569763
1761380191843506700,6.211506591796875,0.5816709399223328,0.3060321509838104,0.23969964683055878
1761380191853532400,6.221532470703125,0.5956435799598694,0.17426645755767822,0.17256775498390198
1761380191863558000,6.231557861328125,0.5993906855583191,0.09531030058860779,0.10022319853305817
1761380191873572600,6.241572509765625,0.5907306671142578,0.06436733901500702,0.029610643163323402
1761380191883609300,6.251609375,0.5628353953361511,0.05407522991299629,-0.023698506876826286
1761380191893634800,6.261634765625,0.5270461440086365,0.04986179247498512,-0.054041922092437744
1761380191903660500,6.27166064453125,0.5053960680961609,0.05504115670919418,-0.06333480030298233
1761380191913686500,6.2816865234375,0.5114080905914307,0.07642477005720139,-0.061519525945186615
1761380191923712500,6.29171240234375,0.5425009727478027,0.10843357443809509,-0.06506680697202682
1761380191933730000,6.30172998046875,0.584368884563446,0.12045769393444061,-0.08859877288341522
1761380191943763700,6.311763671875,0.6226728558540344,0.09607637673616409,-0.12820175290107727
1761380191953789200,6.3217890625,0.6471707224845886,0.05693969875574112,-0.16663897037506104
1761380191963790000,6.3317900390625,0.6579124927520752,0.04023583233356476,-0.19303540885448456
1761380191973840400,6.34184033203125,0.657213032245636,0.06158614158630371,-0.19596649706363678
1761380191983866400,6.351866455078125,0.6457384824752808,0.105735644698143,-0.1869567334651947
1761380191993884400,6.361884521484375,0.626136839389801,0.1489858329296112,-0.1813277155160904
1761380192003917600,6.37191748046875,0.6026215553283691,0.19766519963741302,-0.17638149857521057
1761380192013942800,6.38194287109375,0.5732107758522034,0.25258976221084595,-0.1562635898590088
1761380192023968500,6.391968505859375,0.5426841378211975,0.28696343302726746,-0.1181594580411911
1761380192033996000,6.40199609375,0.5220166444778442,0.285797655582428,-0.07520903646945953
1761380192044020200,6.412020263671875,0.5182362198829651,0.2443627417087555,-0.03523966297507286
1761380192054045700,6.422045654296875,0.526529848575592,0.17942917346954346,-0.005912136286497116
1761380192064071000,6.43207080078125,0.5349733829498291,0.12365524470806122,0.008976454846560955
1761380192074086100,6.442086181640625,0.5341573357582092,0.09700899571180344,0.006445060949772596
1761380192084097300,6.45209716796875,0.5254306793212891,0.1021217480301857,-0.012057427316904068
1761380192094148600,6.462148681640625,0.5095428824424744,0.12653636932373047,-0.046147968620061874
1761380192104153000,6.472153076171875,0.4920729398727417,0.15171706676483154,-0.08596745878458023
1761380192114199800,6.48219970703125,0.4731873869895935,0.16895386576652527,-0.1189921498298645
1761380192124225300,6.492225341796875,0.4534858167171478,0.16052699089050293,-0.13839395344257355
1761380192134239700,6.50223974609375,0.4337509572505951,0.11985815316438675,-0.14354000985622406
1761380192144276700,6.51227685546875,0.41288360953330994,0.07027947902679443,-0.13409724831581116
1761380192154302500,6.522302490234375,0.38582101464271545,0.029160987585783005,-0.11354632675647736
1761380192164324600,6.53232470703125,0.35484474897384644,-0.0022982389200478792,-0.09009762853384018
1761380192174332200,6.542332275390625,0.31825610995292664,-0.018352603539824486,-0.06996305286884308
1761380192184374500,6.55237451171875,0.2801353335380554,-0.019102029502391815,-0.05167706683278084
1761380192194382800,6.5623828125,0.2426973581314087,0.00016653904458507895,-0.031092841178178787
1761380192204410400,6.572410400390625,0.20707465708255768,0.04649770259857178,-0.003697166917845607
1761380192214429400,6.582429443359375,0.1777304708957672,0.08793261647224426,0.02125038206577301
1761380192224448000,6.592447998046875,0.16837097704410553,0.10688476264476776,0.037754401564598083
1761380192234473200,6.60247314453125,0.179878830909729,0.11043204367160797,0.03745463117957115
1761380192244499500,6.61249951171875,0.19281890988349915,0.1067015677690506,0.01720348373055458
1761380192254535400,6.622535400390625,0.19406795501708984,0.0942777544260025,-0.027295749634504318
1761380192264569600,6.632569580078125,0.18087805807590485,0.0790727436542511,-0.08884858340024948
1761380192274595600,6.642595703125,0.16170941293239594,0.08451856672763824,-0.14235757291316986
1761380192284636000,6.652635986328125,0.1357293277978897,0.10963265597820282,-0.17331719398498535
1761380192294658800,6.662658935546875,0.10490294545888901,0.11919199675321579,-0.17331719398498535
1761380192304676000,6.672676025390625,0.07475937902927399,0.10924961417913437,-0.13536293804645538
1761380192314712800,6.682712890625,0.055590733885765076,0.08806584775447845,-0.07557541877031326
1761380192324738600,6.692738525390625,0.04145156964659691,0.03768778592348099,-0.021133804693818092
1761380192334765600,6.702765625,0.03280819207429886,0.0022815850097686052,0.05672319978475571
1761380192344770600,6.7127705078125,0.0341571569442749,-0.08286982774734497,0.11168108880519867
1761380192354815500,6.7228154296875,0.07902278006076813,-0.2509077191352844,0.06911370158195496
1761380192364847900,6.732847900390625,0.1475869119167328,-0.3212871253490448,-0.05640677735209465
1761380192374867000,6.742866943359375,0.181061252951622,-0.28847894072532654,-0.23237194120883942
1761380192384892700,6.752892578125,0.10631852596998215,-0.20196190476417542,-0.3623889684677124
1761380192394911000,6.762910888671875,-0.03134264796972275,-0.07450956851243973,-0.41449904441833496
