time,seconds_elapsed,z,y,x
1761379624079534300,0.112534423828125,-0.02233288623392582,-0.04394965618848801,-0.0716450959444046
1761379624089560000,0.12256005859375,-0.016587289050221443,-0.05051129311323166,-0.03355761989951134
1761379624109637000,0.14263720703125,0.003647205187007785,-0.023765122517943382,0.019268568605184555
1761379624119655200,0.1526552734375,0.03507312387228012,0.007444295566529036,0.007660796400159597
1761379624129682200,0.16268212890625,0.07169505953788757,0.021700037643313408,-0.030293453484773636
1761379624139707600,0.172707763671875,0.09256239980459213,0.029577335342764854,-0.07992208749055862
1761379624149733600,0.182733642578125,0.08137097954750061,0.05520769581198692,-0.11028216034173965
1761379624159759600,0.192759521484375,0.027362365275621414,0.09497722238302231,-0.10193855315446854
1761379624169783000,0.202782958984375,-0.042983729392290115,0.1314825713634491,-0.054175153374671936
1761379624179811600,0.2128115234375,-0.09419448673725128,0.1568298190832138,0.006328484043478966
1761379624189837300,0.22283740234375,-0.1098991185426712,0.14059226214885712,0.04346669092774391
1761379624199863800,0.23286376953125,-0.09675918519496918,0.0728941410779953,0.048163093626499176
1761379624209878000,0.2428779296875,-0.07112883031368256,0.004779670853167772,0.035506125539541245
1761379624219915300,0.252915283203125,-0.05544085055589676,-0.02108384296298027,0.013439700938761234
1761379624229930500,0.262930419921875,-0.051993489265441895,-0.04416615515947342,-0.012357197701931
1761379624239978200,0.272978271484375,-0.042101070284843445,-0.07724080979824066,-0.026995979249477386
1761379624249993000,0.282992919921875,-0.01698698289692402,-0.0930287092924118,-0.015421516261994839
1761379624260018700,0.293018798828125,0.005795558914542198,-0.09119678288698196,0.013689509592950344
1761379624270045700,0.303045654296875,-0.003230857430025935,-0.07387672364711761,0.040602218359708786
1761379624280071000,0.31307080078125,-0.03299138695001602,-0.0465143546462059,0.06037040427327156
1761379624290096600,0.3230966796875,-0.06360126286745071,-0.007061255630105734,0.06481699645519257
1761379624300123000,0.333122802734375,-0.08779938519001007,0.025147397071123123,0.050577908754348755
1761379624310161700,0.34316162109375,-0.10002335160970688,0.042350880801677704,0.02133365161716938
1761379624320175000,0.353175048828125,-0.09730876237154007,0.0424174964427948,-0.010641844943165779
1761379624330189800,0.36318994140625,-0.08676684647798538,0.02809513732790947,-0.041185107082128525
1761379624340224500,0.373224609375,-0.07679115235805511,-0.005812212824821472,-0.061186447739601135
1761379624350251800,0.383251708984375,-0.0695633590221405,-0.02050095610320568,-0.061103176325559616
1761379624360278800,0.39327880859375,-0.05682312324643135,-0.01620424911379814,-0.04393300041556358
1761379624370294800,0.403294677734375,-0.04278388246893883,-0.01811944879591465,-0.027062594890594482
1761379624380332000,0.41333203125,-0.03510643169283867,-0.036089010536670685,-0.023765122517943382
1761379624390356000,0.42335595703125,-0.03652201220393181,-0.05610700696706772,-0.03710490092635155
1761379624400382700,0.4333828125,-0.04696401208639145,-0.06111983209848404,-0.061852604150772095
1761379624410408200,0.443408203125,-0.06067017465829849,-0.05702297016978264,-0.0921960175037384
1761379624420434200,0.45343408203125,-0.07637480646371841,-0.04634781554341316,-0.12691940367221832
1761379624430460400,0.46346044921875,-0.09256239980459213,-0.03878694400191307,-0.15796229243278503
1761379624440469500,0.473469482421875,-0.11066519469022751,-0.02413150854408741,-0.17200152575969696
1761379624450512600,0.4835126953125,-0.12612001597881317,-0.010641844943165779,-0.15639682114124298
1761379624460542200,0.493542236328125,-0.1318989247083664,0.004779670853167772,-0.11206412315368652
1761379624470556200,0.50355615234375,-0.13084973394870758,0.01252373680472374,-0.05570731312036514
1761379624480596700,0.5135966796875,-0.12230627983808517,-0.005479134619235992,-0.003613897366449237
1761379624490636800,0.52363671875,-0.1091330349445343,-0.045864854007959366,0.035639356821775436
1761379624500624100,0.5336240234375,-0.0943443700671196,-0.08165409415960312,0.051826950162649155
1761379624510668000,0.54366796875,-0.08110451698303223,-0.10825037956237793,0.050794411450624466
1761379624520693800,0.55369384765625,-0.06618262082338333,-0.13181565701961517,0.04723047465085983
1761379624530708200,0.563708251953125,-0.046447739005088806,-0.13444697856903076,0.0580388568341732
1761379624540745000,0.573744873046875,-0.02792859822511673,-0.1258702129125595,0.08919831365346909
1761379624550771700,0.583771728515625,-0.008027181960642338,-0.08873200416564941,0.14750362932682037
1761379624560796700,0.593796630859375,0.01595444045960903,-0.0676148533821106,0.2094395011663437
1761379624570813400,0.6038134765625,0.03878694400191307,-0.06436733901500702,0.23308804631233215
1761379624580828000,0.613827880859375,0.06321822106838226,-0.08953139185905457,0.18297645449638367
1761379624590854100,0.623854248046875,0.08991443365812302,-0.14317362010478973,0.02939414232969284
1761379624600879900,0.6338798828125,0.14971859753131866,-0.18412557244300842,-0.17819678783416748
1761379624610901200,0.6439013671875,0.2531726658344269,-0.12460451573133469,-0.3709990382194519
1761379624620932600,0.6539326171875,0.3896014392375946,0.02651301585137844,-0.5209507942199707
1761379624630958600,0.66395849609375,0.5791395306587219,0.260283887386322,-0.5764582753181458
1761379624640978000,0.67397802734375,0.7771044969558716,0.5809881091117859,-0.4765015244483948
1761379624650998500,0.68399853515625,0.9112017750740051,0.8861209750175476,-0.2647804319858551
1761379624661043500,0.69404345703125,0.9632951617240906,1.0428675413131714,-0.005245979875326157
1761379624671068400,0.704068359375,0.931835949420929,1.011907935142517,0.23588590323925018
1761379624681091000,0.714091064453125,0.8378912806510925,0.8371251821517944,0.398894339799881
1761379624691134500,0.724134521484375,0.7241284251213074,0.5908305644989014,0.4775507152080536
1761379624701149400,0.7341494140625,0.6071680784225464,0.35985758900642395,0.5075443983078003
1761379624711186400,0.7441865234375,0.4707725942134857,0.16437403857707977,0.4847618639469147
1761379624721205800,0.754205810546875,0.29514050483703613,-0.08210375159978867,0.32388514280319214
1761379624731242000,0.764241943359375,0.14865274727344513,-0.42678961157798767,0.03264165297150612
1761379624741266000,0.774265869140625,0.09402794390916824,-0.7462115287780762,-0.25821879506111145
1761379624751293700,0.784293701171875,0.075325608253479,-0.8191056251525879,-0.4339674413204193
1761379624761319200,0.794319091796875,0.030909648165106773,-0.7954238057136536,-0.4946209788322449
1761379624771334400,0.80433447265625,-0.03715486079454422,-0.719032347202301,-0.4741533100605011
1761379624781368300,0.814368408203125,-0.0778903141617775,-0.6161445379257202,-0.4061054587364197
1761379624791394300,0.824394287109375,-0.06125306338071823,-0.5093763470649719,-0.28801262378692627
1761379624801401000,0.834401123046875,-0.024497894570231438,-0.4252907633781433,-0.11529498547315598
1761379624811428900,0.844428955078125,-0.05843855068087578,-0.41484877467155457,0.06083671376109123
1761379624821455000,0.854455078125,-0.22677622735500336,-0.5353730916976929,0.13233192265033722
1761379624831477500,0.8644775390625,-0.5080440044403076,-0.7768047451972961,0.05424176901578903
1761379624841502500,0.87450244140625,-0.819388747215271,-1.050661563873291,-0.11089835315942764
1761379624851532300,0.8845322265625,-1.0864673852920532,-1.2541389465332031,-0.26876071095466614
1761379624861580000,0.894580078125,-1.2706429958343506,-1.4115350246429443,-0.3710489869117737
1761379624871595300,0.90459521484375,-1.368301510810852,-1.5634852647781372,-0.39088380336761475
1761379624881636400,0.91463623046875,-1.3587920665740967,-1.6617932319641113,-0.30703139305114746
1761379624891653600,0.924653564453125,-1.2691441774368286,-1.6385444402694702,-0.21408595144748688
1761379624901667300,0.934667236328125,-1.1510180234909058,-1.5938286781311035,-0.274139940738678
1761379624911684000,0.94468408203125,-0.9907907843589783,-1.547131061553955,-0.4802653193473816
1761379624921711000,0.954711181640625,-0.75518798828125,-1.3201383352279663,-0.6485363841056824
1761379624931736300,0.964736328125,-0.45731621980667114,-0.9077876806259155,-0.6752991676330566
1761379624941767000,0.974766845703125,-0.154115229845047,-0.4631950557231903,-0.5778738260269165
1761379624951788000,0.9847880859375,0.08879861980676651,-0.14119181036949158,-0.4143657982349396
1761379624961815000,0.99481494140625,0.2520235478878021,0.0777570828795433,-0.21526837348937988
1761379624971831300,1.004831298828125,0.3379576802253723,0.1923026442527771,-0.03139261156320572
1761379624981873200,1.014873046875,0.32869812846183777,0.25593721866607666,0.059221286326646805
1761379624991899100,1.024899169921875,0.23628559708595276,0.3015022873878479,0.0005995405954308808
1761379625001923300,1.03492333984375,0.11511179059743881,0.27500593662261963,-0.1999301314353943
1761379625011965200,1.044965087890625,0.022516079246997833,0.19823142886161804,-0.47918280959129333
1761379625021991200,1.0549912109375,-0.03472338989377022,0.1479366421699524,-0.767595112323761
1761379625032018700,1.065018798828125,-0.06133633106946945,0.16109322011470795,-1.0018322467803955
1761379625042043000,1.07504296875,-0.06981316953897476,0.2404823899269104,-1.1280854940414429
1761379625052053000,1.085052978515625,-0.0863671526312828,0.3986778259277344,-1.1369454860687256
1761379625062094800,1.0950947265625,-0.1337141990661621,0.5973256230354309,-1.0528931617736816
1761379625072120600,1.10512060546875,-0.21884895861148834,0.7897948026657104,-0.9136665463447571
1761379625082138600,1.115138671875,-0.34125515818595886,0.9880595207214355,-0.7735405564308167
1761379625092162000,1.125162109375,-0.49017438292503357,1.1556310653686523,-0.6849917769432068
1761379625102176800,1.1351767578125,-0.630466878414154,1.2314397096633911,-0.6624757051467896
1761379625112204000,1.1452041015625,-0.7504582405090332,1.1985316276550293,-0.7030279636383057
1761379625122229000,1.15522900390625,-0.8274326324462891,1.0971592664718628,-0.7640644907951355
1761379625132255500,1.16525537109375,-0.8343106508255005,0.9599144458770752,-0.7893617749214172
1761379625142275300,1.175275390625,-0.7641644477844238,0.7867971062660217,-0.7328051328659058
1761379625152295700,1.185295654296875,-0.6333146691322327,0.5751093029975891,-0.5799555778503418
1761379625162322000,1.195322021484375,-0.47460296750068665,0.31694045662879944,-0.3359425663948059
1761379625172347600,1.20534765625,-0.3113114535808563,0.025230666622519493,-0.016270864754915237
1761379625182374700,1.215374755859375,-0.16375784575939178,-0.2623489499092102,0.3436366617679596
1761379625192399000,1.225399169921875,-0.03537289425730705,-0.5246978998184204,0.6945511102676392
1761379625202425600,1.235425537109375,0.07925593107938766,-0.7581689953804016,0.9978020787239075
1761379625212455200,1.245455078125,0.17671458423137665,-0.9479902386665344,1.2328386306762695
1761379625222473700,1.2554736328125,0.2507745027542114,-1.0783402919769287,1.3955472707748413
1761379625232499700,1.265499755859375,0.2894115447998047,-1.1236722469329834,1.4990012645721436
1761379625242532600,1.27553271484375,0.28466519713401794,-1.091613531112671,1.5461485385894775
1761379625252559000,1.28555908203125,0.25348907709121704,-0.9936052560806274,1.5335081815719604
1761379625262581500,1.29558154296875,0.20967265963554382,-0.8543619513511658,1.4685413837432861
1761379625272616400,1.305616455078125,0.1597442477941513,-0.6977652907371521,1.3589752912521362
1761379625282651100,1.315651123046875,0.10037308186292648,-0.5471473932266235,1.2066086530685425
1761379625292670700,1.325670654296875,0.036555320024490356,-0.4252907633781433,1.0228328704833984
1761379625302707200,1.335707275390625,-0.017186829820275307,-0.34242093563079834,0.8444195985794067
1761379625312742700,1.34574267578125,-0.05350899696350098,-0.27285757660865784,0.7067417502403259
1761379625322769700,1.355769775390625,-0.08210375159978867,-0.18687346577644348,0.621890127658844
1761379625332785000,1.365784912109375,-0.13171572983264923,-0.06576626747846603,0.5944111943244934
1761379625342821000,1.375821044921875,-0.2120208591222763,0.11712691187858582,0.6105487942695618
1761379625352846800,1.385846923828125,-0.3269161581993103,0.28183403611183167,0.6006230711936951
1761379625362862000,1.395862060546875,-0.4409621059894562,0.34147167205810547,0.523298978805542
1761379625372888300,1.405888427734375,-0.5072446465492249,0.2413150817155838,0.3643874228000641
1761379625382924800,1.4159248046875,-0.4706726670265198,-0.1480032503604889,0.16555646061897278
1761379625392951000,1.425950927734375,-0.27350708842277527,-0.7235954999923706,0.02926091104745865
1761379625402976800,1.435976806640625,0.12087403982877731,-1.2362194061279297,0.09103024005889893
1761379625413002500,1.44600244140625,0.7331881523132324,-1.2674787044525146,0.4010593295097351
1761379625423028200,1.4560283203125,1.3650872707366943,-0.8371251821517944,0.8293644785881042
1761379625433054500,1.466054443359375,1.549928903579712,-0.3543284833431244,1.0615532398223877
1761379625443080700,1.476080810546875,0.8545784950256348,-0.41318339109420776,0.747027575969696
1761379625453106400,1.4861064453125,-0.7566534876823425,-1.1787134408950806,-0.33660873770713806
1761379625463132000,1.4961318359375,-2.6473546028137207,-2.442361831665039,-2.106052875518799
1761379625473141000,1.50614111328125,-3.9727556705474854,-3.5157058238983154,-3.9911916255950928
1761379625483173600,1.516173583984375,-4.102705955505371,-3.159545421600342,-5.144024848937988
1761379625493206800,1.526206787109375,-3.197716236114502,-1.592962622642517,-5.174851417541504
1761379625503238700,1.53623876953125,-1.7543889284133911,0.3223363161087036,-4.345003604888916
1761379625513263000,1.54626318359375,-0.2606002986431122,1.8352769613265991,-3.1651577949523926
1761379625523288800,1.556288818359375,0.9084538817405701,2.497802495956421,-2.1976826190948486
1761379625533317600,1.566317626953125,1.657663106918335,2.3211379051208496,-1.754538893699646
1761379625543341000,1.576341064453125,1.9304873943328857,1.6884561777114868,-1.8402398824691772
1761379625553366000,1.586365966796875,1.711172103881836,0.8938151001930237,-2.22721004486084
1761379625563417000,1.5964169921875,1.1423579454421997,0.2198648452758789,-2.5750932693481445
1761379625573418200,1.606418212890625,0.45183709263801575,-0.23946650326251984,-2.6246719360351562
1761379625583444500,1.616444580078125,-0.17198488116264343,-0.5337243676185608,-2.3205883502960205
1761379625593471500,1.626471435546875,-0.6469542384147644,-0.6823437809944153,-1.706242561340332
1761379625603496200,1.63649609375,-0.9324687719345093,-0.6732507348060608,-0.9183962345123291
1761379625613522400,1.6465224609375,-1.043333888053894,-0.5385206937789917,-0.14159150421619415
1761379625623549200,1.656549072265625,-1.0110918283462524,-0.3496653735637665,0.480048805475235
1761379625633552400,1.666552490234375,-0.8498154282569885,-0.15018491446971893,0.8839725852012634
1761379625643600100,1.67660009765625,-0.582853376865387,0.048612747341394424,1.0692139863967896
1761379625653626600,1.686626708984375,-0.2660461366176605,0.21988150477409363,1.073777198791504
1761379625663652900,1.69665283203125,0.017103560268878937,0.2660128176212311,0.939180314540863
1761379625673677600,1.706677490234375,0.21809953451156616,0.15131737291812897,0.7335379123687744
1761379625683704300,1.716704345703125,0.3376079499721527,0.010825037956237793,0.5467143654823303
1761379625693733400,1.7267333984375,0.35840868949890137,0.0007827335502952337,0.41767993569374084
1761379625703759400,1.73675927734375,0.2887953519821167,0.1665390431880951,0.3338441848754883
1761379625713783300,1.746783203125,0.18937155604362488,0.4481732249259949,0.27765390276908875
1761379625723811600,1.7568115234375,0.09835796058177948,0.7300905585289001,0.23042342066764832
1761379625733816000,1.766816162109375,0.016970328986644745,0.8804919719696045,0.15508116781711578
1761379625743859700,1.776859619140625,-0.041101835668087006,0.8767114877700806,0.06863074004650116
1761379625753886000,1.786885986328125,-0.061186447739601135,0.8155084252357483,0.014222434721887112
1761379625763912400,1.796912353515625,-0.07430972158908844,0.7972723841667175,0.028195060789585114
1761379625773937000,1.80693701171875,-0.08680015057325363,0.8399397134780884,0.13008365035057068
1761379625783964000,1.8169638671875,-0.080804742872715,0.9077044129371643,0.3159412145614624
1761379625793988900,1.82698876953125,-0.03995271772146225,0.9755524396896362,0.5543085932731628
1761379625804016600,1.8370166015625,0.03840390592813492,1.050311803817749,0.7738569974899292
1761379625814046200,1.847046142578125,0.16317495703697205,1.130317211151123,0.9314695596694946
1761379625824072200,1.857072265625,0.3001366853713989,1.179695963859558,1.0026816129684448
1761379625834072000,1.867072021484375,0.40580570697784424,1.0996739864349365,1.0123242139816284
1761379625844097500,1.87709765625,0.4402293264865875,0.8825404047966003,1.022599697113037
1761379625854139100,1.88713916015625,0.39631298184394836,0.6982815861701965,1.1063189506530762
1761379625864171500,1.897171630859375,0.34944888949394226,0.7163843512535095,1.2891454696655273
1761379625874197200,1.907197265625,0.42705607414245605,0.9104189872741699,1.5181366205215454
1761379625884215000,1.917215087890625,0.7618162035942078,1.2059425115585327,1.7941251993179321
1761379625894256600,1.927256591796875,1.4195455312728882,1.60846745967865,2.0230164527893066
1761379625904275000,1.93727490234375,2.2292916774749756,1.7958238124847412,2.064034938812256
1761379625914297300,1.94729736328125,2.7101731300354004,1.5171207189559937,1.9170809984207153
1761379625924325600,1.95732568359375,2.4885430335998535,0.7039105892181396,1.561603307723999
1761379625934353400,1.967353515625,1.5430009365081787,-0.6835595369338989,1.1296343803405762
1761379625944377900,1.9773779296875,0.3019852638244629,-2.046898126602173,1.1706029176712036
1761379625954403600,1.987403564453125,-0.5387871265411377,-2.4039745330810547,1.9339179992675781
1761379625964430800,1.997430908203125,-0.7444795370101929,-2.0940120220184326,2.8318300247192383
1761379625974456000,2.0074560546875,-0.5506280660629272,-1.6983319520950317,3.1371960639953613
1761379625984481800,2.017481689453125,-0.20192860066890717,-0.9671089053153992,2.623905897140503
1761379625994508000,2.027508056640625,0.16379114985466003,-0.036971669644117355,1.5593883991241455
1761379626004534000,2.037533935546875,0.427638977766037,0.9344173073768616,0.4438765347003937
1761379626014543600,2.047543701171875,0.6677383184432983,1.8677687644958496,-0.23948314785957336
1761379626024585200,2.057585205078125,0.8970292806625366,2.429488182067871,-0.419578492641449
1761379626034612700,2.06761279296875,0.9846621155738831,2.383690118789673,-0.369183748960495
1761379626044634400,2.07763427734375,0.8186227083206177,1.5011329650878906,-0.3308797776699066
1761379626054664000,2.087663818359375,0.6356795430183411,0.2430470883846283,-0.17842993140220642
1761379626064689700,2.097689697265625,0.5154716372489929,-0.7434802651405334,0.04399961605668068
1761379626074716700,2.107716552734375,0.3388403356075287,-1.3907508850097656,0.14438936114311218
1761379626084738800,2.11773876953125,0.03330780938267708,-1.6740005016326904,0.053625572472810745
1761379626094767900,2.127767822265625,-0.37103235721588135,-1.6946847438812256,-0.2143024504184723
1761379626104797000,2.137796875,-0.774656355381012,-1.6029382944107056,-0.5867503881454468
1761379626114801000,2.14780078125,-1.0469809770584106,-1.3937486410140991,-0.9463914632797241
1761379626124845000,2.157844970703125,-1.0426843166351318,-0.774256706237793,-1.2422813177108765
1761379626134870500,2.16787060546875,-0.7909106016159058,0.22890792787075043,-1.5042972564697266
1761379626144898000,2.17789794921875,-0.5575061440467834,1.2062090635299683,-1.7732079029083252
1761379626154923800,2.187923828125,-0.5516605973243713,1.8193058967590332,-2.0413856506347656
1761379626164948700,2.19794873046875,-0.6948342323303223,1.9523539543151855,-2.2285921573638916
1761379626174975200,2.207975341796875,-0.7992209196090698,1.7064590454101562,-2.265380620956421
1761379626185000200,2.218000244140625,-0.78901207447052,1.2426477670669556,-2.1623597145080566
1761379626195031000,2.228031005859375,-0.7263600826263428,0.7911937236785889,-1.9742704629898071
1761379626205060900,2.238060791015625,-0.6533160209655762,0.4736703634262085,-1.7332384586334229
1761379626225083100,2.258083251953125,-0.4834628701210022,0.01210738904774189,-1.1599444150924683
1761379626235138800,2.268138916015625,-0.31689050793647766,-0.08789931237697601,-0.7974056005477905
1761379626245157400,2.278157470703125,-0.09327851980924606,-0.06946343928575516,-0.39115026593208313
1761379626255183400,2.288183349609375,0.14420616626739502,-0.010874999687075615,0.03310796245932579
1761379626265208600,2.29820849609375,0.36443740129470825,0.034173812717199326,0.45142075419425964
1761379626275234300,2.308234375,0.5340241193771362,0.052626337856054306,0.851231038570404
1761379626285260300,2.31826025390625,0.6311829686164856,0.05522434785962105,1.225244402885437
1761379626295286000,2.3282861328125,0.6508678793907166,0.0769909992814064,1.5711793899536133
1761379626305312500,2.3383125,0.5948441624641418,0.10270462930202484,1.8729147911071777
1761379626315339300,2.34833935546875,0.4857611060142517,0.11507847905158997,2.1222238540649414
1761379626325361700,2.358361572265625,0.3565434515476227,0.12533728778362274,2.2911276817321777
1761379626335390200,2.36839013671875,0.23163916170597076,0.1471872180700302,2.3596251010894775
1761379626345417000,2.3784169921875,0.14235757291316986,0.2053592950105667,2.3340446949005127
1761379626355442700,2.388442626953125,0.12763552367687225,0.31021228432655334,2.251274824142456
1761379626365446100,2.398446044921875,0.1818273365497589,0.45233669877052307,2.1365795135498047
1761379626375471900,2.408471923828125,0.25357234477996826,0.5286449193954468,2.0097765922546387
1761379626385497900,2.418497802734375,0.28459858894348145,0.47330397367477417,1.890617847442627
1761379626395526000,2.42852587890625,0.24251416325569153,0.30356737971305847,1.7983719110488892
1761379626405552600,2.438552734375,0.12095730751752853,0.06305168569087982,1.7346208095550537
1761379626415576000,2.448576171875,-0.05389203503727913,-0.18475842475891113,1.6861412525177002
1761379626425597000,2.458596923828125,-0.24074885249137878,-0.3709157705307007,1.6538159847259521
1761379626435616000,2.468615966796875,-0.40858688950538635,-0.4706893265247345,1.6400765180587769
1761379626445660000,2.478659912109375,-0.543267011642456,-0.5048298239707947,1.6129640340805054
1761379626455685600,2.488685546875,-0.6218234896659851,-0.5195185542106628,1.5698469877243042
1761379626465719300,2.49871923828125,-0.6468210220336914,-0.49024099111557007,1.5366557836532593
1761379626475752400,2.50875244140625,-0.6202414035797119,-0.354678213596344,1.5305770635604858
1761379626485778400,2.5187783203125,-0.5280287265777588,-0.14730378985404968,1.5723117589950562
1761379626495805000,2.528804931640625,-0.43336790800094604,-0.03134264796972275,1.617060899734497
1761379626505819600,2.538819580078125,-0.44574177265167236,-0.16588954627513885,1.5258806943893433
1761379626515856000,2.54885595703125,-0.6043035984039307,-0.6336144804954529,1.199730634689331
1761379626525882600,2.558882568359375,-0.8716487288475037,-1.5729446411132812,0.6221232414245605
1761379626535907800,2.568907958984375,-1.1419082880020142,-2.9873440265655518,-0.13792763650417328
1761379626545923000,2.578923095703125,-1.316890835762024,-4.394132614135742,-0.8872201442718506
1761379626555960300,2.588960205078125,-1.4326021671295166,-4.73570442199707,-1.371848702430725
1761379626565986300,2.598986328125,-1.5337746143341064,-3.3960142135620117,-1.440779209136963
1761379626576012000,2.609011962890625,-1.6422415971755981,-1.0753926038742065,-1.3553780317306519
1761379626586037500,2.61903759765625,-1.707391619682312,1.0268298387527466,-1.5278958082199097
1761379626596063500,2.6290634765625,-1.5752928256988525,2.2667295932769775,-2.055924654006958
1761379626606076400,2.639076416015625,-1.2055095434188843,2.5207016468048096,-2.8387913703918457
1761379626616116000,2.649115966796875,-0.7720417380332947,1.8721320629119873,-3.725778341293335
1761379626626131000,2.659130859375,-0.3078807294368744,0.8895849585533142,-4.414566993713379
1761379626636167700,2.669167724609375,0.2865637540817261,0.12497090548276901,-4.67168664932251
1761379626646194200,2.679194091796875,0.9019255042076111,-0.49092379212379456,-4.51259183883667
1761379626656221000,2.689220947265625,1.341605305671692,-0.8954471349716187,-3.995121955871582
1761379626666248700,2.699248779296875,1.4914238452911377,-0.9175302386283875,-3.2560882568359375
1761379626676273200,2.709273193359375,1.395397424697876,-0.633897602558136,-2.453519821166992
1761379626686299600,2.719299560546875,1.1945679187774658,-0.16643913090229034,-1.753822684288025
1761379626696325000,2.7293251953125,1.010025978088379,0.348849356174469,-1.2205480337142944
1761379626706349300,2.739349365234375,0.8397398591041565,0.6753324866294861,-0.855411171913147
1761379626716360400,2.7493603515625,0.6259703040122986,0.7717752456665039,-0.6294509768486023
1761379626726401300,2.7594013671875,0.39413130283355713,0.6598610281944275,-0.4609467685222626
1761379626736427000,2.769427001953125,0.21143797039985657,0.41544830799102783,-0.2949239909648895
1761379626746431700,2.779431640625,0.13374750316143036,0.12012461572885513,-0.09519372135400772
1761379626756479200,2.789479248046875,0.15289950370788574,-0.16380780935287476,0.14142495393753052
1761379626766505200,2.799505126953125,0.21197089552879333,-0.39804497361183167,0.4088367223739624
1761379626776548000,2.809548095703125,0.26787805557250977,-0.5309597849845886,0.6982648968696594
1761379626786562000,2.81956201171875,0.31201091408729553,-0.5409021973609924,1.0084272623062134
1761379626796571000,2.82957080078125,0.344286173582077,-0.467291921377182,1.3200883865356445
1761379626806604300,2.839604248046875,0.35867515206336975,-0.38430550694465637,1.5885993242263794
1761379626816635000,2.849634765625,0.3267829120159149,-0.3225195109844208,1.7475608587265015
1761379626826660000,2.85966015625,0.2456950545310974,-0.2563702166080475,1.7616333961486816
1761379626836686000,2.86968603515625,0.1497352570295334,-0.22412824630737305,1.6055363416671753
1761379626846701800,2.879701904296875,0.08871535211801529,-0.2976718842983246,1.269227385520935
1761379626856738600,2.889738525390625,0.10202182084321976,-0.49355512857437134,0.7851983308792114
1761379626866764500,2.8997646484375,0.2113880068063736,-0.7785866856575012,0.2401992678642273
1761379626876782300,2.9097822265625,0.4210606813430786,-0.9512377381324768,-0.2236785888671875
1761379626886816300,2.919816162109375,0.6942346692085266,-0.8583589196205139,-0.5233989357948303
1761379626896831500,2.92983154296875,0.968191385269165,-0.5246479511260986,-0.6522668600082397
1761379626906867700,2.93986767578125,1.1497355699539185,-0.0897645503282547,-0.6480200886726379
1761379626916883000,2.949883056640625,1.1886391639709473,0.32077085971832275,-0.5782402157783508
1761379626926920400,2.95992041015625,1.1076844930648804,0.6453554630279541,-0.49995023012161255
1761379626936945700,2.969945556640625,0.9436435699462891,0.8265665769577026,-0.4444260895252228
1761379626946972200,2.97997216796875,0.700579822063446,0.8706661462783813,-0.41781315207481384
1761379626956997600,2.98999755859375,0.4118010997772217,0.782483696937561,-0.3900844156742096
1761379626967023900,3.00002392578125,0.16865409910678864,0.6541820168495178,-0.3283816874027252
1761379626977048600,3.010048583984375,0.056473392993211746,0.5245980024337769,-0.2044599950313568
1761379626987075000,3.020074951171875,0.09512710571289062,0.4906739890575409,-0.005046132951974869
1761379626997101600,3.0301015625,0.2829664945602417,0.6495855450630188,0.23978291451931
1761379627007114000,3.040114013671875,0.5446659326553345,1.0126739740371704,0.425923615694046
1761379627017153500,3.050153564453125,0.7709758877754211,1.4104691743850708,0.4806150496006012
1761379627027179000,3.060178955078125,0.8981117606163025,1.6405595541000366,0.481048047542572
1761379627037205200,3.070205322265625,0.9717886447906494,1.606002688407898,0.6099326014518738
1761379627047222300,3.08022216796875,1.1015725135803223,1.3912838697433472,1.0139896869659424
1761379627057258000,3.090258056640625,1.3045669794082642,1.0111584663391113,1.6603610515594482
1761379627067284000,3.100283935546875,1.4816312789916992,0.5031477808952332,2.3170411586761475
1761379627077299700,3.1102998046875,1.5156385898590088,-0.07767381519079208,2.6825110912323
1761379627087337500,3.12033740234375,1.3543121814727783,-0.8095963001251221,2.568498373031616
1761379627097361200,3.130361083984375,0.9171638488769531,-1.8065656423568726,1.9459089040756226
1761379627107386600,3.14038671875,0.2442295104265213,-2.912468194961548,0.9726546406745911
1761379627117421600,3.150421630859375,-0.4724379777908325,-3.8464858531951904,0.07810681313276291
1761379627127438800,3.16043896484375,-1.0501952171325684,-4.337026596069336,-0.280485063791275
1761379627137465600,3.170465576171875,-1.1962000131607056,-4.004548072814941,0.2465277463197708
1761379627147490600,3.180490478515625,-0.7561205625534058,-2.8400237560272217,1.4813815355300903
1761379627157511200,3.19051123046875,0.1402425318956375,-1.1600277423858643,2.783250570297241
1761379627167545600,3.200545654296875,1.2779040336608887,0.4238252341747284,3.596660614013672
1761379627177552400,3.210552490234375,2.4161152839660645,1.5172207355499268,3.7128047943115234
1761379627187596300,3.22059619140625,3.355062246322632,1.932835578918457,3.0853357315063477
1761379627197621800,3.230621826171875,3.8360605239868164,1.5273629426956177,1.9630457162857056
1761379627207648000,3.24064794921875,3.721015214920044,0.594511091709137,0.7241950631141663
1761379627217674000,3.250674072265625,3.1986987590789795,-0.25177374482154846,-0.4418947100639343
1761379627227700000,3.260699951171875,2.2116219997406006,-0.722596287727356,-1.612730860710144
1761379627237725200,3.27072509765625,0.6862241625785828,-1.2358362674713135,-3.134348154067993
1761379627247741400,3.280741455078125,-0.9780505299568176,-1.789445400238037,-4.8650383949279785
1761379627257769200,3.290769287109375,-2.096510171890259,-1.103271245956421,-6.251742839813232
1761379627267803400,3.300803466796875,-2.5081613063812256,0.5354563593864441,-7.027248382568359
1761379627277828000,3.310828125,-2.3331286907196045,2.567066192626953,-7.098643779754639
1761379627287855600,3.320855712890625,-1.8143763542175293,4.294692516326904,-6.600492000579834
1761379627297869800,3.330869873046875,-1.165623426437378,5.196900844573975,-5.783001899719238
1761379627307895600,3.3408955078125,-0.5126404762268066,5.340890407562256,-4.858926773071289
1761379627317933000,3.35093310546875,0.029960375279188156,4.803985595703125,-3.9344682693481445
1761379627327936300,3.360936279296875,0.41081851720809937,3.752474546432495,-3.020918369293213
1761379627337974300,3.370974365234375,0.6207576394081116,2.3933658599853516,-2.1081178188323975
1761379627348011300,3.38101123046875,0.6420246958732605,1.0500953197479248,-1.1763652563095093
1761379627358036700,3.39103662109375,0.5122740864753723,-0.056256890296936035,-0.2538721263408661
1761379627368063200,3.401063232421875,0.32396841049194336,-0.7823171615600586,0.6241217255592346
1761379627378083600,3.41108349609375,0.2137528657913208,-1.11644446849823,1.4507216215133667
1761379627388117200,3.4211171875,0.26571306586265564,-1.124488353729248,2.212371349334717
1761379627398141000,3.431140869140625,0.4589649736881256,-0.8950474858283997,2.8746471405029297
1761379627408149000,3.44114892578125,0.7181996703147888,-0.563568115234375,3.4103200435638428
1761379627418176000,3.451176025390625,0.9593315124511719,-0.33139604330062866,3.8247690200805664
1761379627428219100,3.46121923828125,1.095527172088623,-0.35069793462753296,4.141826152801514
1761379627438233300,3.4712333984375,1.0825204849243164,-0.5514441132545471,4.38840389251709
1761379627448248300,3.481248291015625,0.9106355309486389,-0.8116613626480103,4.555492401123047
1761379627458284800,3.491284912109375,0.6145124435424805,-1.013756513595581,4.598742485046387
1761379627468322600,3.501322509765625,0.255953848361969,-1.05948805809021,4.476552963256836
1761379627478348000,3.51134814453125,-0.08328618109226227,-0.925657331943512,4.156215190887451
1761379627488375000,3.521375,-0.3184226453304291,-0.6875731348991394,3.665524482727051
1761379627498401500,3.531401611328125,-0.4331181049346924,-0.45580071210861206,3.0819549560546875
1761379627508414700,3.541414794921875,-0.44550859928131104,-0.26223239302635193,2.4845128059387207
1761379627518446300,3.5514462890625,-0.42462462186813354,-0.2377011775970459,1.9198954105377197
1761379627528477400,3.5614775390625,-0.4685909152030945,-0.47731757164001465,1.3809417486190796
1761379627538503700,3.571503662109375,-0.6336477994918823,-0.9603307843208313,0.823452353477478
1761379627548529000,3.58152880859375,-0.9262402057647705,-1.5971261262893677,0.2256937175989151
1761379627558540500,3.59154052734375,-1.34578537940979,-2.2761390209198,-0.3588583469390869
1761379627568582000,3.601581787109375,-1.7289084196090698,-2.618443489074707,-0.8924993872642517
1761379627578597600,3.61159765625,-2.0406861305236816,-2.6153459548950195,-1.3436037302017212
1761379627588633300,3.62163330078125,-2.3641550540924072,-2.6250383853912354,-1.5245651006698608
1761379627598660400,3.631660400390625,-2.5162551403045654,-2.1729848384857178,-1.2857980728149414
1761379627608687000,3.64168701171875,-2.315192461013794,-0.9999004602432251,-0.8710824847221375
1761379627618712000,3.651712158203125,-1.8472011089324951,-0.2817840576171875,-0.5721116065979004
1761379627628737500,3.661737548828125,-1.0626856088638306,0.09772511571645737,-0.3499651551246643
1761379627638744600,3.67174462890625,-0.387020081281662,0.5957268476486206,-0.1201745793223381
1761379627648789000,3.6817890625,0.05752258747816086,0.8819741606712341,0.13219869136810303
1761379627658806000,3.691805908203125,0.13839395344257355,0.9714222550392151,0.34360337257385254
1761379627668836000,3.701836181640625,0.04316692054271698,1.1057193279266357,0.562202513217926
1761379627678867000,3.711866943359375,0.007977220229804516,1.2460451126098633,0.7308732867240906
1761379627688888600,3.721888671875,0.0967758372426033,1.1621261835098267,0.7545384764671326
1761379627698919000,3.7319189453125,0.25931796431541443,1.0189357995986938,0.532974898815155
1761379627708936200,3.741936279296875,0.4050229787826538,1.0893985033035278,0.00039969373028725386
1761379627718971400,3.751971435546875,0.5025981664657593,1.3253010511398315,-0.8320956826210022
1761379627728992500,3.761992431640625,0.5055792331695557,1.425174593925476,-1.9461753368377686
1761379627739022800,3.77202294921875,0.39651280641555786,1.2364691495895386,-3.118926525115967
1761379627749036800,3.782036865234375,0.20129574835300446,0.933484673500061,-3.9840970039367676
1761379627759060200,3.792060302734375,0.028411561623215675,0.6784800887107849,-4.347301959991455
1761379627769080600,3.80208056640625,-0.03072645515203476,0.3551778197288513,-4.298422813415527
1761379627779125800,3.812125732421875,0.03284149989485741,0.06188591197133064,-3.9279401302337646
1761379627789140500,3.822140380859375,0.13896018266677856,0.07127871364355087,-3.3308143615722656
1761379627799155200,3.8321552734375,0.15081776678562164,0.44142839312553406,-2.6265039443969727
1761379627809181000,3.842180908203125,-0.018385911360383034,0.9633117914199829,-1.9422616958618164
1761379627819229700,3.852229736328125,-0.3230191469192505,1.3948811292648315,-1.3698835372924805
1761379627829244400,3.862244384765625,-0.6481033563613892,1.5749430656433105,-0.9544186592102051
1761379627839284200,3.8722841796875,-0.863854706287384,1.4057893753051758,-0.6454886794090271
1761379627849310700,3.882310791015625,-0.9037408232688904,0.9552013874053955,-0.38323965668678284
1761379627859333000,3.8923330078125,-0.7987379431724548,0.3637712299823761,-0.1507178395986557
1761379627869337000,3.902337158203125,-0.6002733707427979,-0.2177831083536148,0.04271726682782173
1761379627879385000,3.912385009765625,-0.3371250033378601,-0.6033376455307007,0.1975819319486618
1761379627889395000,3.92239501953125,-0.019768185913562775,-0.7237120866775513,0.34909915924072266
1761379627899437300,3.932437255859375,0.288512259721756,-0.6614598035812378,0.48266348242759705
1761379627909463600,3.942463623046875,0.5235654711723328,-0.5377545952796936,0.5700798034667969
1761379627919490000,3.952489990234375,0.682327151298523,-0.3659861981868744,0.6111649870872498
1761379627929515300,3.962515380859375,0.7715088129043579,-0.16014394164085388,0.5962597727775574
1761379627939541200,3.972541259765625,0.7820340394973755,-0.0963594913482666,0.5151552557945251
1761379627949567000,3.98256689453125,0.7378345727920532,-0.16852086782455444,0.3999435305595398
1761379627959593000,3.992593017578125,0.6585620045661926,-0.27210813760757446,0.282949835062027
1761379627969619200,4.002619140625,0.5389203429222107,-0.3926657736301422,0.1628751903772354
1761379627979645200,4.012645263671875,0.4115179777145386,-0.5270960927009583,0.03227526694536209
1761379627989671700,4.022671630859375,0.3203212022781372,-0.6339142322540283,-0.07947243750095367
1761379627999697700,4.03269775390625,0.2577191889286041,-0.6554644107818604,-0.18364261090755463
1761379628009727500,4.0427275390625,0.1898045539855957,-0.6662061810493469,-0.3373248279094696
1761379628019714600,4.052714599609375,0.08773276954889297,-0.7800688743591309,-0.5913801789283752
1761379628029774000,4.062774169921875,-0.0457482747733593,-0.997418999671936,-0.904740035533905
1761379628039782400,4.072782470703125,-0.15944448113441467,-1.1614433526992798,-1.13552987575531
1761379628049826800,4.082826904296875,-0.2385338842868805,-1.1169607639312744,-1.1735507249832153
1761379628059852800,4.092852783203125,-0.28604745864868164,-0.8281986713409424,-1.0080941915512085
1761379628069878300,4.102878173828125,-0.2934418022632599,-0.3365754187107086,-0.6714687943458557
1761379628079926300,4.11292626953125,-0.24830971658229828,0.1976485401391983,-0.2377678006887436
1761379628089930200,4.12293017578125,-0.1518336534500122,0.6263366937637329,0.2093895524740219
1761379628099956200,4.132956298828125,-0.014272396452724934,0.8989278078079224,0.5779904127120972
1761379628109981700,4.142981689453125,0.10105589777231216,0.918462872505188,0.7374682426452637
1761379628120009000,4.153009033203125,0.1493355631828308,0.6031711101531982,0.6300838589668274
1761379628130011600,4.16301171875,0.1575126349925995,0.04876263439655304,0.33431047201156616
1761379628140060700,4.173060791015625,0.14955206215381622,-0.5353730916976929,0.01786964014172554
1761379628150086000,4.1830859375,0.11213073879480362,-0.9521703720092773,-0.1628585308790207
1761379628160110600,4.193110595703125,-0.013955972157418728,-1.0709127187728882,-0.1460714042186737
1761379628170116400,4.203116455078125,-0.21428579092025757,-0.7857645153999329,0.0985078439116478
1761379628180163800,4.213163818359375,-0.39531373977661133,-0.3027679920196533,0.5377212762832642
1761379628190189000,4.22318896484375,-0.4544517695903778,-0.09041404724121094,1.0978920459747314
1761379628200215600,4.233215576171875,-0.38117456436157227,-0.3842555582523346,1.7304905652999878
1761379628210241500,4.243241455078125,-0.21255378425121307,-0.929154634475708,2.417430877685547
1761379628220247000,4.2532470703125,-0.036555320024490356,-1.2684946060180664,3.0833871364593506
1761379628230293800,4.263293701171875,0.027245787903666496,-1.4258407354354858,3.4690916538238525
1761379628240319200,4.2733193359375,-0.09301205724477768,-1.5757591724395752,3.266796588897705
1761379628250345200,4.28334521484375,-0.2873964309692383,-1.4808485507965088,2.504380941390991
1761379628260371500,4.293371337890625,-0.37920939922332764,-0.8993275165557861,1.4855449199676514
1761379628270397400,4.3033974609375,-0.3852381408214569,-0.06691539287567139,0.49583670496940613
1761379628280423200,4.313423095703125,-0.381807416677475,0.7206311225891113,-0.2565367519855499
1761379628290449400,4.323449462890625,-0.3759785592556,1.3230527639389038,-0.7182163000106812
1761379628300475000,4.333474853515625,-0.34395310282707214,1.5671991109848022,-0.9456920027732849
1761379628310500900,4.3435009765625,-0.2148686796426773,1.5222501754760742,-0.9080541729927063
1761379628320512000,4.353511962890625,0.027778713032603264,1.4039407968521118,-0.5987911224365234
1761379628330552300,4.36355224609375,0.3071479797363281,1.1481701135635376,-0.19123679399490356
1761379628350582800,4.383582763671875,0.7336877584457397,0.06663227081298828,0.22337882220745087
1761379628360608000,4.39360791015625,0.8205378651618958,-0.5679814219474792,0.05084437131881714
1761379628370634200,4.40363427734375,0.7566202282905579,-1.1197419166564941,-0.3026014566421509
1761379628380660700,4.41366064453125,0.5374215245246887,-1.4885926246643066,-0.6825436353683472
1761379628390685400,4.423685546875,0.25766921043395996,-1.4191125631332397,-0.9043070077896118
1761379628400726000,4.43372607421875,-0.009992342442274094,-0.9874100089073181,-0.9224764704704285
1761379628410726400,4.443726318359375,-0.16365791857242584,-0.40663838386535645,-0.7447625994682312
1761379628420752100,4.453752197265625,-0.12010796368122101,0.11459551751613617,-0.45400211215019226
1761379628430778000,4.463778076171875,0.10300440341234207,0.44149503111839294,-0.1353795975446701
1761379628440805000,4.47380517578125,0.4128003418445587,0.553492546081543,0.1584285944700241
1761379628450844400,4.483844482421875,0.7071081399917603,0.48086485266685486,0.41449904441833496
1761379628460856000,4.49385595703125,0.944742739200592,0.2556207776069641,0.6341474056243896
1761379628470882600,4.503882568359375,1.1098495721817017,-0.0709456354379654,0.8097628355026245
1761379628480927700,4.513927734375,1.207491397857666,-0.4058389961719513,0.9510378837585449
1761379628490934000,4.52393408203125,1.242531180381775,-0.6188757419586182,1.0448826551437378
1761379628500979000,4.53397900390625,1.2322391271591187,-0.6815111041069031,1.0720285177230835
1761379628511020300,4.544020263671875,1.2024952173233032,-0.6154783368110657,1.0244649648666382
1761379628521023000,4.55402294921875,1.1924529075622559,-0.4281885325908661,0.9406458735466003
1761379628531072300,4.564072265625,1.1943514347076416,-0.15857848525047302,0.8548449277877808
1761379628541097000,4.574096923828125,1.168721079826355,0.100040003657341,0.788395881652832
1761379628551123200,4.584123291015625,1.0912970304489136,0.2828832268714905,0.7688941359519958
1761379628561149200,4.594149169921875,0.9737371802330017,0.33804094791412354,0.8185893893241882
1761379628571175700,4.60417578125,0.8211873769760132,0.26406431198120117,0.943010687828064
1761379628581201400,4.614201416015625,0.6241716742515564,0.127602219581604,1.1140296459197998
1761379628591226000,4.62422607421875,0.3908338248729706,0.010658498853445053,1.2976223230361938
1761379628601230800,4.63423095703125,0.16422416269779205,-0.08152086287736893,1.4518208503723145
1761379628611257000,4.644257080078125,0.0054125189781188965,-0.1820937991142273,1.5554413795471191
1761379628621283000,4.654282958984375,-0.07037939876317978,-0.3018520176410675,1.6042207479476929
1761379628631308000,4.66430810546875,-0.08898181468248367,-0.4088866710662842,1.6279858350753784
1761379628641334800,4.674334716796875,-0.07690773159265518,-0.46607619524002075,1.670286774635315
1761379628651360500,4.684360595703125,-0.07424310594797134,-0.4738202393054962,1.748343586921692
1761379628661375200,4.694375244140625,-0.13562940061092377,-0.4997004270553589,1.8333450555801392
1761379628671400000,4.70439990234375,-0.2790694832801819,-0.5981416702270508,1.890001654624939
1761379628681427500,4.714427490234375,-0.46009743213653564,-0.7713589072227478,1.9077714681625366
1761379628691452200,4.7244521484375,-0.6367120742797852,-0.9696569442749023,1.894698143005371
1761379628701492000,4.734491943359375,-0.7901278734207153,-1.1395933628082275,1.8603577613830566
1761379628711507000,4.7445068359375,-0.9141162037849426,-1.2395668029785156,1.8157585859298706
1761379628721531100,4.75453125,-1.0086437463760376,-1.2458453178405762,1.7635653018951416
1761379628731558000,4.764557861328125,-1.0695303678512573,-1.1554479598999023,1.6861079931259155
1761379628741582600,4.77458251953125,-1.0486963987350464,-1.0192023515701294,1.575276255607605
1761379628751608000,4.784608154296875,-0.9133501052856445,-0.9253242611885071,1.4552181959152222
1761379628761634800,4.794634765625,-0.7089900374412537,-0.9587153196334839,1.3325954675674438
1761379628771660500,4.80466064453125,-0.453535795211792,-1.266562819480896,1.1356297731399536
1761379628781682000,4.814681884765625,-0.39026761054992676,-1.761799931526184,0.8140928149223328
1761379628791731200,4.824731201171875,-0.7013126015663147,-1.7515910863876343,0.45698314905166626
1761379628801742600,4.83474267578125,-1.1633585691452026,-0.7031444907188416,0.2273591160774231
1761379628811782400,4.844782470703125,-1.520168423652649,0.8699833154678345,0.12428808957338333
1761379628821802800,4.854802734375,-1.6952176094055176,1.9035413265228271,-0.19624961912631989
1761379628831849200,4.86484912109375,-1.6440235376358032,1.9070552587509155,-0.8964630365371704
1761379628841876000,4.8748759765625,-1.3873867988586426,1.502681851387024,-1.7312899827957153
1761379628851880000,4.8848798828125,-1.0587053298950195,1.4028583765029907,-2.4342846870422363
1761379628861928000,4.894927978515625,-0.8319957852363586,1.6171774864196777,-2.989126205444336
1761379628871953200,4.904953125,-0.8593081831932068,1.8141098022460938,-3.4021761417388916
1761379628881979100,4.914979248046875,-1.154865026473999,1.829081654548645,-3.5884335041046143
1761379628892005400,4.92500537109375,-1.5640348196029663,1.5553747415542603,-3.435117721557617
1761379628902031000,4.935031005859375,-1.9478240013122559,1.078373670578003,-2.9579832553863525
1761379628912034300,4.945034423828125,-2.1490366458892822,0.6596778035163879,-2.2942419052124023
1761379628922083300,4.955083251953125,-2.107468366622925,0.3898179531097412,-1.6678719520568848
1761379628932109600,4.965109619140625,-1.87374746799469,0.2658796012401581,-1.241315484046936
1761379628942134800,4.975134765625,-1.533674716949463,0.21321994066238403,-1.0566402673721313
1761379628952161300,4.985161376953125,-1.1491860151290894,0.1440562754869461,-1.0517940521240234
1761379628962187300,4.995187255859375,-0.7145357728004456,0.033840734511613846,-1.1151788234710693
1761379628972190500,5.0051904296875,-0.2693102955818176,-0.08147089928388596,-1.1526501178741455
1761379628982239500,5.015239501953125,0.12270597368478775,-0.13667859137058258,-1.0963765382766724
1761379628992265000,5.025264892578125,0.42026129364967346,-0.12305570393800735,-0.9035409688949585
1761379629002270000,5.03527001953125,0.581271231174469,-0.06241883710026741,-0.5790229439735413
1761379629012317200,5.045317138671875,0.5834029316902161,-0.039969369769096375,-0.16613934934139252
1761379629022343200,5.05534326171875,0.4661760926246643,-0.09526033699512482,0.2863638997077942
1761379629032368600,5.06536865234375,0.2985878586769104,-0.19706565141677856,0.7342706918716431
1761379629042372400,5.075372314453125,0.11932522803544998,-0.3331613540649414,1.120691180229187
1761379629052420400,5.08542041015625,-0.04316692054271698,-0.44565850496292114,1.3661198616027832
1761379629062446800,5.09544677734375,-0.16160948574543,-0.4927724003791809,1.4254742860794067
1761379629072472600,5.10547265625,-0.21536830067634583,-0.4624123275279999,1.3050999641418457
1761379629082498800,5.115498779296875,-0.19430111348628998,-0.37434646487236023,1.0598212480545044
1761379629092524800,5.12552490234375,-0.1012224331498146,-0.22697606682777405,0.7667790651321411
1761379629102550000,5.135550048828125,0.0461646243929863,-0.08068817108869553,0.501832127571106
1761379629112576500,5.145576416015625,0.2102222442626953,-0.0018985451897606254,0.30326759815216064
1761379629122602000,5.15560205078125,0.3411552309989929,0.003613897366449237,0.16763821244239807
1761379629132627700,5.165627685546875,0.4097859859466553,-0.02476435713469982,0.07968893647193909
1761379629142654700,5.17565478515625,0.4159146249294281,-0.07234456390142441,0.013239854015409946
1761379629152680000,5.185679931640625,0.3769611418247223,-0.11616098880767822,-0.04716385900974274
1761379629162682600,5.1956826171875,0.29812154173851013,-0.13303139805793762,-0.12228962033987045
1761379629172708000,5.2057080078125,0.1815442144870758,-0.12638647854328156,-0.20172874629497528
1761379629182758000,5.2157578125,0.03518969938158989,-0.039602987468242645,-0.2697932720184326
1761379629192784000,5.225783935546875,-0.11547817289829254,0.15228331089019775,-0.3151251971721649
1761379629202791700,5.235791748046875,-0.2181994616985321,0.3573261797428131,-0.33162921667099
1761379629212835600,5.245835693359375,-0.23661868274211884,0.4909404516220093,-0.3253673315048218
1761379629222885000,5.255885009765625,-0.1725844144821167,0.5301104187965393,-0.3149752914905548
1761379629232887300,5.26588720703125,-0.06253541260957718,0.4828466773033142,-0.29780513048171997
1761379629242912800,5.275912841796875,0.04058556631207466,0.3816908299922943,-0.26433077454566956
1761379629252938500,5.2859384765625,0.1017053946852684,0.2667789161205292,-0.21217074990272522
1761379629262965000,5.295965087890625,0.10861676931381226,0.14950209856033325,-0.14060892164707184
1761379629272991500,5.305991455078125,0.07034609466791153,0.031292688101530075,-0.0762249231338501
1761379629283017000,5.316016845703125,0.004862940404564142,-0.05480800196528435,-0.053875382989645004
1761379629293020000,5.32602001953125,-0.07599176466464996,-0.10588552802801132,-0.10408690571784973
1761379629303069000,5.33606884765625,-0.14806987345218658,-0.13149923086166382,-0.21113820374011993
1761379629313095200,5.34609521484375,-0.19440102577209473,-0.13706164062023163,-0.332894891500473
1761379629323121000,5.356120849609375,-0.20747435092926025,-0.139742910861969,-0.4201447069644928
1761379629333123300,5.366123291015625,-0.20362728834152222,-0.15776243805885315,-0.4309031367301941
1761379629343172900,5.3761728515625,-0.20995578169822693,-0.1955001950263977,-0.3721814751625061
1761379629353198800,5.38619873046875,-0.2392999529838562,-0.25225669145584106,-0.27287423610687256
1761379629363224800,5.396224853515625,-0.27723756432533264,-0.3308131694793701,-0.15268300473690033
1761379629373207300,5.406207275390625,-0.3041336238384247,-0.4136163890361786,-0.0012323890114203095
1761379629383300400,5.41630029296875,-0.3215036392211914,-0.4408455193042755,0.1662725806236267
1761379629393302300,5.42630224609375,-0.3464012145996094,-0.38781946897506714,0.31763991713523865
1761379629403326700,5.43632666015625,-0.3776606023311615,-0.2342371642589569,0.4422777593135834
1761379629413354200,5.446354248046875,-0.4075876772403717,-0.03670520707964897,0.5150886178016663
1761379629423379700,5.456379638671875,-0.4411785900592804,0.11845922470092773,0.5155715942382812
1761379629433406700,5.46640673828125,-0.4808315336704254,0.18294315040111542,0.4306866228580475
1761379629443431400,5.476431396484375,-0.49119025468826294,0.15449827909469604,0.2926923632621765
1761379629453458400,5.48645849609375,-0.4658263623714447,-0.02246611751616001,0.15859512984752655
1761379629463483600,5.496483642578125,-0.43794772028923035,-0.42817190289497375,0.08403560519218445
1761379629473510100,5.50651025390625,-0.4071546792984009,-0.90102618932724,0.10150554776191711
1761379629483536000,5.516535888671875,-0.3910503387451172,-1.1361960172653198,0.23044008016586304
1761379629493561300,5.526561279296875,-0.412650465965271,-0.9058725237846375,0.45635029673576355
1761379629503589600,5.536589599609375,-0.4307698905467987,-0.19506718218326569,0.6679214835166931
1761379629513613000,5.546613037109375,-0.3697499930858612,0.551777184009552,0.702911376953125
1761379629523638800,5.556638671875,-0.26356470584869385,0.9070216417312622,0.4584819972515106
1761379629533642200,5.566642333984375,-0.152316614985466,0.8117779493331909,0.02150019071996212
1761379629543694300,5.5766943359375,-0.01720348373055458,0.43121954798698425,-0.4313361346721649
1761379629553716500,5.586716552734375,0.1575126349925995,-0.1239883229136467,-0.796073317527771
1761379629563743000,5.596742919921875,0.3415049612522125,-0.8139429688453674,-1.002898097038269
1761379629573746200,5.60674609375,0.4879927337169647,-1.3547618389129639,-0.9635782837867737
1761379629583795000,5.616794921875,0.5669655203819275,-1.3815079927444458,-0.6850916743278503
1761379629593821400,5.626821533203125,0.5839691758155823,-0.9969027638435364,-0.35521113872528076
1761379629603847200,5.63684716796875,0.5426174998283386,-0.4983847439289093,-0.19150325655937195
1761379629613872000,5.6468720703125,0.46794140338897705,0.013789433054625988,-0.26211580634117126
1761379629623898000,5.656898193359375,0.36435413360595703,0.5056291818618774,-0.47232139110565186
1761379629633924600,5.666924560546875,0.2049262970685959,0.8894017934799194,-0.7110550999641418
1761379629643950000,5.6769501953125,0.0016320826252922416,1.060537338256836,-0.9050731062889099
1761379629653976000,5.68697607421875,-0.19838131964206696,1.0008996725082397,-1.0268630981445312
1761379629664002300,5.697002197265625,-0.32674962282180786,0.8043336272239685,-1.071861982345581
1761379629674028300,5.7070283203125,-0.36067360639572144,0.5507779121398926,-1.0647507905960083
1761379629684054000,5.717053955078125,-0.3577258884906769,0.25565409660339355,-1.0304770469665527
1761379629694079500,5.72707958984375,-0.3831230700016022,-0.14339011907577515,-0.9614465832710266
1761379629704083500,5.73708349609375,-0.42392516136169434,-0.5570064783096313,-0.8253175616264343
1761379629714132000,5.747132080078125,-0.4247411787509918,-0.8030846118927002,-0.6022884845733643
1761379629724158200,5.757158203125,-0.33855724334716797,-0.7761885523796082,-0.3215036392211914
1761379629734160600,5.76716064453125,-0.15254977345466614,-0.5673319101333618,-0.03745463117957115
1761379629744210200,5.777210205078125,0.12180665880441666,-0.29862117767333984,0.19829805195331573
1761379629754236000,5.78723583984375,0.4388803541660309,-0.04758020490407944,0.3504314720630646
1761379629764261600,5.79726171875,0.7524733543395996,0.17416653037071228,0.42718932032585144
1761379629774287000,5.807287109375,1.0262302160263062,0.38270673155784607,0.47899961471557617
1761379629784312800,5.817312744140625,1.213919758796692,0.517819881439209,0.5300604701042175
1761379629794316800,5.82731689453125,1.296056866645813,0.5502117276191711,0.5700464844703674
1761379629804365600,5.837365478515625,1.27813720703125,0.497402161359787,0.5871667265892029
1761379629814390800,5.847390869140625,1.178863286972046,0.3563269376754761,0.5811546444892883
1761379629824396800,5.857396728515625,1.011641502380371,0.16387441754341125,0.5670321583747864
1761379629834443500,5.867443603515625,0.8016523718833923,-0.005562404170632362,0.5685309767723083
1761379629844469500,5.877469482421875,0.5981249809265137,-0.09720884263515472,0.5947442650794983
1761379629854494700,5.88749462890625,0.4401460587978363,-0.09820807725191116,0.6437233686447144
1761379629864498200,5.897498291015625,0.33271169662475586,-0.002464778022840619,0.6858078241348267
1761379629874547500,5.90754736328125,0.29893758893013,0.15679651498794556,0.7139695286750793
1761379629884572200,5.917572265625,0.39449769258499146,0.29044410586357117,0.7347536087036133
1761379629894599200,5.92759912109375,0.601172685623169,0.29259246587753296,0.7411487102508545
1761379629904619000,5.937618896484375,0.8277823328971863,0.2015289068222046,0.7115713953971863
1761379629914627800,5.9476279296875,0.9757189750671387,0.08005531877279282,0.6248045563697815
1761379629924657400,5.957657470703125,0.9789831638336182,-0.03427373617887497,0.48987460136413574
1761379629934679600,5.967679443359375,0.8467511534690857,-0.11099827289581299,0.3475336730480194
1761379629944728000,5.97772802734375,0.6475870609283447,-0.08015524595975876,0.26759493350982666
1761379629954754300,5.98775439453125,0.4260402023792267,0.10743433982133865,0.29044410586357117
1761379629964779800,5.99777978515625,0.16339145600795746,0.33589261770248413,0.3602239489555359
1761379629974806300,6.00780615234375,-0.15299943089485168,0.3671852946281433,0.3759285807609558
1761379629984832500,6.01783251953125,-0.5156548619270325,-0.03510643169283867,0.3240516781806946
1761379629994857700,6.027857666015625,-0.8431872129440308,-0.6555309891700745,0.3795424997806549
1761379630004884500,6.037884521484375,-1.01092529296875,-0.8479002714157104,0.7035941481590271
1761379630014910200,6.04791015625,-0.9960367679595947,-0.45163723826408386,1.275389313697815
1761379630024936000,6.05793603515625,-0.9645774960517883,0.19448429346084595,1.7943416833877563
1761379630034938600,6.067938720703125,-1.1478869915008545,0.8235023021697998,1.8874869346618652
1761379630044987600,6.077987548828125,-1.5680317878723145,1.7075915336608887,1.4969528913497925
1761379630055015200,6.08801513671875,-2.0480804443359375,3.002565860748291,0.9451590776443481
1761379630065010400,6.098010498046875,-2.363039255142212,4.34552001953125,0.5906473994255066
1761379630075065300,6.1080654296875,-2.4839131832122803,5.156665325164795,0.41864585876464844
1761379630085093600,6.11809375,-2.504847288131714,5.0840373039245605,0.24094869196414948
1761379630095118000,6.1281181640625,-2.427123546600342,4.356711387634277,-0.052992723882198334
1761379630105143300,6.138143310546875,-2.2013797760009766,3.4621803760528564,-0.4560505151748657
1761379630115169500,6.14816943359375,-1.853196620941162,2.6102497577667236,-0.9140162467956543
1761379630125195300,6.1581953125,-1.4783837795257568,1.8648709058761597,-1.362389326095581
1761379630135223800,6.168223876953125,-1.1876065731048584,1.286181092262268,-1.749859094619751
1761379630145246700,6.178246826171875,-0.9398797750473022,0.7591848969459534,-2.0010666847229004
1761379630155273200,6.188273193359375,-0.7063420414924622,0.16270865499973297,-2.0754761695861816
1761379630165299000,6.198298828125,-0.5553910732269287,-0.32973065972328186,-1.9381314516067505
1761379630175324400,6.208324462890625,-0.5319257378578186,-0.4629285931587219,-1.586584210395813
1761379630185350400,6.218350341796875,-0.6683211922645569,-0.3518470525741577,-1.2062090635299683
1761379630195377200,6.228377197265625,-0.92950439453125,-0.27730417251586914,-1.0319758653640747
1761379630205403000,6.23840283203125,-1.196916103363037,-0.31104499101638794,-1.1039706468582153
1761379630215428900,6.248428955078125,-1.3825072050094604,-0.42858824133872986,-1.284332513809204
1761379630225455400,6.258455322265625,-1.463028907775879,-0.6494523286819458,-1.407604694366455
1761379630235440400,6.2684404296875,-1.4474574327468872,-0.9650771021842957,-1.3447861671447754
1761379630245506300,6.27850634765625,-1.296523094177246,-1.2019122838974,-1.0145559310913086
1761379630255532500,6.288532470703125,-0.9933554530143738,-1.2745399475097656,-0.4643108546733856
1761379630265535700,6.29853564453125,-0.5743265748023987,-1.2802189588546753,0.1435566544532776
1761379630275585000,6.3085849609375,-0.08455187827348709,-1.2670624256134033,0.7156183123588562
1761379630285609700,6.318609619140625,0.3888853192329407,-1.2567535638809204,1.1785801649093628
1761379630295636500,6.328636474609375,0.7459284067153931,-1.2505583763122559,1.47038996219635
1761379630305643500,6.3386435546875,0.949322521686554,-1.2203648090362549,1.6025053262710571
1761379630315688700,6.348688720703125,1.0364058017730713,-1.1498688459396362,1.6235225200653076
1761379630325713200,6.358713134765625,1.0377880334854126,-1.0535926818847656,1.5644011497497559
1761379630335739600,6.36873974609375,0.9978686571121216,-0.9899913668632507,1.4501221179962158
1761379630345767000,6.378766845703125,0.9604973196983337,-0.9786000847816467,1.323419213294983
1761379630355791400,6.388791259765625,0.9264900088310242,-0.9665260314941406,1.2102558612823486
1761379630365817000,6.398817138671875,0.8488828539848328,-0.8916667103767395,1.0954772233963013
1761379630375843800,6.40884375,0.7022119164466858,-0.694401204586029,0.9732042551040649
1761379630385848000,6.41884814453125,0.5621026158332825,-0.3076809048652649,0.8859044909477234
1761379630395895000,6.42889501953125,0.5103422403335571,0.22154690325260162,0.8760786652565002
1761379630405921800,6.438921875,0.5350732803344727,0.735020101070404,0.9174802899360657
1761379630415925000,6.448925048828125,0.5918131470680237,1.0671489238739014,0.9643610119819641
1761379630425950500,6.458950439453125,0.643090546131134,1.1785801649093628,0.9709892868995667
1761379630435999000,6.4689990234375,0.6751659512519836,1.1024385690689087,0.9412453770637512
1761379630446024700,6.479024658203125,0.666888952255249,0.909336507320404,0.893481969833374
1761379630456050400,6.489050537109375,0.598008394241333,0.6554644107818604,0.8290813565254211
1761379630466076200,6.499076171875,0.4860441982746124,0.41519850492477417,0.761766254901886
1761379630476103200,6.509103271484375,0.3573927879333496,0.27059265971183777,0.6950673460960388
1761379630486127900,6.5191279296875,0.23398736119270325,0.23966634273529053,0.6279021501541138
1761379630496155600,6.52915576171875,0.12603674829006195,0.29270902276039124,0.5420013070106506
1761379630506180900,6.539180908203125,0.04914567247033119,0.4098859131336212,0.42352545261383057
1761379630516206800,6.549206787109375,0.014638782478868961,0.5464978814125061,0.29016098380088806
1761379630526232300,6.559232421875,0.004180130083113909,0.6691871881484985,0.18211044371128082
1761379630536258300,6.56925830078125,-0.011741003021597862,0.7526732087135315,0.10198851674795151
1761379630546273300,6.579273193359375,-0.029044410213828087,0.7417815923690796,0.03622224181890488
1761379630556311000,6.58931103515625,-0.036555320024490356,0.6438732743263245,-0.012074081227183342
1761379630566336300,6.599336181640625,-0.017986217513680458,0.5220000147819519,-0.027745405212044716
1761379630576362800,6.60936279296875,0.038220711052417755,0.41651415824890137,-0.002847817726433277
1761379630586368300,6.6193681640625,0.1298838108778,0.36505359411239624,0.023681852966547012
1761379630596416800,6.629416748046875,0.2433968186378479,0.352313369512558,0.014155819080770016
1761379630606439400,6.639439453125,0.3590415418148041,0.3473171889781952,-0.045981429517269135
1761379630616455400,6.649455322265625,0.4671586751937866,0.3737136125564575,-0.14583824574947357
1761379630626491600,6.65949169921875,0.5653501152992249,0.4143657982349396,-0.24491232633590698
1761379630636518000,6.669517822265625,0.6320323348045349,0.43038687109947205,-0.3069814145565033
1761379630646544600,6.679544677734375,0.62846839427948,0.36340487003326416,-0.3525465130805969
1761379630656569300,6.6895693359375,0.5365055203437805,0.2530560791492462,-0.3521135151386261
1761379630666595000,6.699594970703125,0.3823070526123047,0.115245021879673,-0.3127603232860565
1761379630676621600,6.70962158203125,0.24847626686096191,-0.1280185729265213,-0.30876338481903076
1761379630686624800,6.719624755859375,0.16602277755737305,-0.29395806789398193,-0.28599750995635986
1761379630696674000,6.729674072265625,0.1264864057302475,-0.43261849880218506,-0.23223870992660522
1761379630706699300,6.73969921875,0.09825804084539413,-0.5374881029129028,-0.1532159298658371
1761379630716711200,6.749711181640625,0.0753922238945961,-0.5738435983657837,-0.07231125235557556
1761379630726752000,6.759751953125,0.033757466822862625,-0.5703129768371582,-0.008943147026002407
