time,seconds_elapsed,z,y,x
1761379665065441800,0.28044189453125,-1.9418916702270508,-1.205702304840088,-0.2236727923154831
1761379665085481500,0.3004814453125,-2.1781177520751953,-1.5782551765441895,0.057194698601961136
1761379665105541600,0.320541748046875,-1.9019427299499512,-2.0359058380126953,0.9119894504547119
1761379665125596200,0.34059619140625,-1.2490720748901367,-2.8513033390045166,1.8401436805725098
1761379665145647000,0.360647216796875,-0.584376335144043,-3.533677577972412,1.871754765510559
1761379665165693000,0.38069287109375,0.3954916000366211,-3.5325727462768555,1.3015596866607666
1761379665185741800,0.400741943359375,0.33205604553222656,-3.588202476501465,1.1037784814834595
1761379665205804500,0.420804443359375,0.04132270812988281,-3.502485752105713,1.0295013189315796
1761379665225854200,0.440854248046875,-0.49355411529541016,-3.2187399864196777,0.7041711211204529
1761379665245895000,0.46089501953125,-0.8125076293945312,-1.598447561264038,0.18290379643440247
1761379665265957600,0.48095751953125,-0.12338542938232422,0.46583080291748047,0.699212372303009
1761379665286009000,0.501009033203125,5.125968933105469,1.4209222793579102,1.5812209844589233
1761379665306053000,0.52105322265625,10.500115394592285,-1.0773324966430664,2.138606548309326
1761379665326112300,0.5411123046875,11.012779235839844,-3.819605827331543,0.26462072134017944
1761379665346154000,0.561154052734375,9.002425193786621,-1.9858982563018799,-4.459500312805176
1761379665366216000,0.5812158203125,7.250433921813965,0.7190666198730469,-5.741860389709473
1761379665386267400,0.601267333984375,4.8134446144104,2.0894384384155273,-2.3928403854370117
1761379665406308000,0.62130810546875,3.904600143432617,1.9056835174560547,0.6622868180274963
1761379665426371800,0.641371826171875,6.32546329498291,-1.8033149242401123,4.0519866943359375
1761379665446402000,0.661402099609375,7.8129377365112305,-3.8002963066101074,3.6875715255737305
1761379665466451200,0.681451171875,7.411284446716309,-3.6765007972717285,0.9872896671295166
1761379665486505700,0.701505615234375,4.753689765930176,-2.781020402908325,0.029840439558029175
1761379665506546200,0.721546142578125,0.7477083206176758,-1.9342668056488037,0.23396432399749756
1761379665526616000,0.741615966796875,-3.869420051574707,-1.7738823890686035,1.2033445835113525
1761379665546682000,0.76168212890625,-6.548586845397949,-2.3334131240844727,1.6732860803604126
1761379665566727000,0.781726806640625,-6.676390171051025,-3.1342060565948486,1.5194880962371826
1761379665586765800,0.801765869140625,-5.862445831298828,-2.517601490020752,0.7364941835403442
1761379665606836200,0.821836181640625,-5.4979753494262695,-1.9043645858764648,0.39106643199920654
1761379665626888400,0.841888427734375,-5.694536209106445,-1.3466932773590088,0.3818730115890503
1761379665646940000,0.86193994140625,-6.9013471603393555,-1.269552230834961,0.8464705348014832
1761379665666982400,0.881982421875,-7.59652042388916,-1.4917265176773071,1.4477977752685547
1761379665687039500,0.90203955078125,-7.746237754821777,-1.6989949941635132,1.3152425289154053
1761379665707095600,0.922095458984375,-7.603464126586914,-2.001166343688965,1.036519169807434
1761379665727149600,0.942149658203125,-7.888423919677734,-2.7275896072387695,0.7882530093193054
1761379665747187500,0.9621875,-7.413386344909668,-3.208155393600464,-0.09823083877563477
1761379665767250200,0.982250244140625,-5.236039638519287,-2.5911219120025635,-0.89592444896698
1761379665787302000,1.002302001953125,-3.2683115005493164,-2.630017042160034,-0.4049394130706787
1761379665807353600,1.022353515625,-2.1943907737731934,-2.96793270111084,0.5771180391311646
1761379665827407600,1.04240771484375,-0.3418903350830078,-2.6497011184692383,0.04826843738555908
1761379665847447800,1.06244775390625,1.6710586547851562,-3.655158519744873,-1.4323140382766724
1761379665867498500,1.08249853515625,1.8657512664794922,-3.5611300468444824,-4.424391746520996
1761379665887559700,1.1025595703125,2.7831668853759766,0.10054540634155273,-7.2754011154174805
1761379665907603000,1.12260302734375,8.256199836730957,2.1896731853485107,-7.376054763793945
1761379665927649500,1.1426494140625,16.467153549194336,0.3720235824584961,-3.0048861503601074
1761379665947719200,1.16271923828125,20.5904483795166,-5.579132556915283,-2.0960450172424316
1761379665967746800,1.182746826171875,13.336810111999512,-4.184695243835449,-6.984758377075195
1761379665987817000,1.20281689453125,2.535250663757324,-1.7325844764709473,-3.207353115081787
1761379666007870500,1.222870361328125,1.0252399444580078,-0.8581316471099854,4.625497817993164
1761379666027922200,1.242922119140625,2.807713508605957,-2.1884751319885254,6.984152793884277
1761379666047963400,1.26296337890625,2.397390365600586,-3.3309755325317383,5.183938503265381
1761379666068025300,1.283025390625,0.8341999053955078,-3.9601824283599854,1.4767374992370605
1761379666088077600,1.30307763671875,0.6598424911499023,-2.551198959350586,-1.5241107940673828
1761379666108129300,1.32312939453125,0.6814680099487305,-0.922630786895752,-0.1863384246826172
1761379666128182000,1.34318212890625,-1.7464771270751953,-0.03153270483016968,2.932731866836548
1761379666148222500,1.363222412109375,-5.3801727294921875,0.6021980047225952,4.576888561248779
1761379666168284200,1.3832841796875,-7.884943962097168,-0.14876455068588257,4.239358901977539
1761379666188337400,1.40333740234375,-6.553299903869629,0.17193534970283508,2.861276149749756
1761379666208389000,1.42338916015625,-4.26401948928833,-0.25471922755241394,3.4074323177337646
1761379666228442000,1.443442138671875,-3.4073219299316406,-0.7281630039215088,3.881338596343994
1761379666248481500,1.4634814453125,-3.8423590660095215,-1.3814257383346558,3.315687417984009
1761379666268543000,1.48354296875,-4.324038982391357,-0.7317994832992554,0.7055729627609253
1761379666288595000,1.503594970703125,-0.43001461029052734,-1.568422555923462,-0.5830307006835938
1761379666308636400,1.523636474609375,6.646792411804199,-3.0223822593688965,-1.199918508529663
1761379666328700200,1.5437001953125,12.350042343139648,-3.230123996734619,-2.094179153442383
1761379666348745000,1.563744873046875,14.109966278076172,-2.885272979736328,-3.5452637672424316
1761379666368792600,1.58379248046875,10.727559089660645,-3.1358280181884766,-3.3531382083892822
1761379666388842500,1.603842529296875,11.319214820861816,-2.202779531478882,-3.500018358230591
1761379666408889900,1.623889892578125,10.31973648071289,-1.6519498825073242,-1.1766729354858398
1761379666428957200,1.643957275390625,5.659476280212402,0.6441788673400879,0.056885480880737305
1761379666448998000,1.663997802734375,-0.15611743927001953,0.43430256843566895,2.29038405418396
1761379666469060600,1.684060546875,-4.32930326461792,-2.1350135803222656,4.1846113204956055
1761379666489111600,1.704111572265625,-4.08794641494751,-1.1919779777526855,2.3277578353881836
1761379666509152800,1.72415283203125,-4.532401084899902,-2.2266645431518555,2.686880111694336
1761379666529205200,1.744205322265625,-2.391024589538574,-3.5932319164276123,3.2388429641723633
1761379666549251800,1.764251953125,0.9261493682861328,-3.705115795135498,2.422992706298828
1761379666569318400,1.784318359375,1.8530406951904297,-3.539491653442383,-0.4154905080795288
1761379666589371100,1.80437109375,1.2137079238891602,-1.1981804370880127,-3.017911911010742
1761379666609403100,1.824403076171875,-1.999983310699463,-0.6969345808029175,-1.874618411064148
1761379666629463800,1.8444638671875,-6.724307060241699,-0.46596628427505493,-0.316608190536499
1761379666649508600,1.864508544921875,-10.897271156311035,0.39847123622894287,-0.3601454496383667
1761379666669577500,1.884577392578125,-12.891854286193848,1.830443263053894,-1.608475923538208
1761379666689629400,1.90462939453125,-10.219728469848633,1.068606972694397,0.31441545486450195
1761379666709688300,1.924688232421875,-7.242708206176758,-0.4506372809410095,0.8713167309761047
1761379666729725200,1.94472509765625,-4.149263858795166,-0.6225640773773193,0.6393623352050781
1761379666749807900,1.964807861328125,-3.865354537963867,-0.6130326390266418,1.0320348739624023
1761379666769835800,1.984835693359375,-5.5528178215026855,-1.488011360168457,2.197554588317871
1761379666789887500,2.004887451171875,-6.054141998291016,-1.3147122859954834,1.2168060541152954
1761379666809937400,2.0249375,-4.347009658813477,-1.100398063659668,-1.0324293375015259
1761379666829991000,2.044990966796875,-2.256932258605957,-1.971921443939209,-1.5182220935821533
1761379666850029300,2.065029296875,-2.2024660110473633,-3.113024950027466,-0.027749300003051758
1761379666870094300,2.08509423828125,-3.8882999420166016,-3.802762269973755,2.140603542327881
1761379666890146600,2.105146484375,-3.8713059425354004,-3.6180267333984375,2.624797821044922
1761379666910195000,2.12519482421875,-0.8478803634643555,-1.329198956489563,-0.42791834473609924
1761379666930249700,2.145249755859375,8.47905445098877,-1.4737391471862793,-2.8112785816192627
1761379666950294800,2.165294677734375,10.196456909179688,-5.564897537231445,-0.10636976361274719
1761379666970352600,2.1853525390625,7.342156410217285,-2.510077714920044,-3.691586971282959
1761379666990395000,2.205394775390625,7.162454605102539,0.6026608943939209,-2.9609780311584473
1761379667010459600,2.225459716796875,5.234061241149902,-0.924365758895874,2.800394296646118
1761379667030508800,2.2455087890625,3.565563201904297,-1.5058797597885132,4.6011271476745605
1761379667050549500,2.265549560546875,4.191624641418457,-3.5646252632141113,3.316505193710327
1761379667070611500,2.285611572265625,5.723711013793945,-4.1009521484375,1.969952940940857
1761379667090663200,2.3056630859375,3.2310705184936523,-6.61684513092041,5.302903652191162
1761379667110699000,2.325698974609375,-0.3947877883911133,-6.966695308685303,6.9852495193481445
1761379667130745600,2.34574560546875,-1.2013721466064453,-3.225767135620117,2.1336426734924316
1761379667150820900,2.36582080078125,1.0395698547363281,-1.184137225151062,-4.172025680541992
1761379667170869500,2.385869384765625,3.0966968536376953,1.3100851774215698,-7.276355743408203
1761379667190922000,2.405921875,3.394346237182617,3.0113024711608887,-5.998467922210693
1761379667210971000,2.425970947265625,2.0156469345092773,3.504401683807373,-3.401487350463867
1761379667231023900,2.44602392578125,0.4562082290649414,3.965529680252075,-2.0871763229370117
1761379667251055400,2.466055419921875,-1.1444358825683594,3.1760668754577637,-1.647971749305725
1761379667271128800,2.48612890625,-2.648101806640625,1.4664729833602905,-1.9686977863311768
1761379667291181800,2.506181884765625,-3.666609764099121,0.5251055955886841,-3.0736751556396484
1761379667311237600,2.526237548828125,-3.9877371788024902,-0.3647601306438446,-2.165858745574951
1761379667331311000,2.54631103515625,-2.766083240509033,-1.4563214778900146,0.0083848237991333
1761379667351336200,2.566336181640625,0.44791316986083984,-1.3942691087722778,1.060835361480713
1761379667371388200,2.58638818359375,5.740055084228516,-0.4964022636413574,-0.4209103584289551
1761379667391437300,2.606437255859375,10.602892875671387,0.09806323051452637,1.0305711030960083
1761379667411490800,2.62649072265625,10.573596954345703,0.3575406074523926,3.7093617916107178
1761379667431542300,2.646542236328125,10.762514114379883,-0.7277450561523438,2.170527935028076
1761379667451595000,2.666594970703125,12.735532760620117,0.25178003311157227,-0.8503351211547852
1761379667471646000,2.68664599609375,13.688884735107422,0.46259069442749023,-0.555923581123352
1761379667491698400,2.706698486328125,6.460020065307617,-0.3440248966217041,3.045942783355713
1761379667511724300,2.726724365234375,-1.9703750610351562,-2.7428765296936035,4.504112720489502
1761379667531801000,2.746801025390625,-6.212462425231934,-5.015532493591309,3.059941291809082
1761379667551852800,2.766852783203125,-8.031434059143066,-5.803463935852051,-0.10485917329788208
1761379667571910400,2.786910400390625,-7.142242431640625,-5.763095378875732,-2.705595016479492
1761379667591960600,2.806960693359375,-3.67608642578125,-2.7566728591918945,-3.8312339782714844
1761379667612008700,2.8270087890625,-1.507298469543457,-1.9963613748550415,-1.4305416345596313
1761379667632060000,2.847059814453125,-1.4535140991210938,-1.6172817945480347,0.038838744163513184
1761379667652112600,2.867112548828125,-2.233994483947754,-0.7194863557815552,-0.27397024631500244
1761379667672164000,2.8871640625,-5.306830406188965,-1.1104202270507812,-1.1427627801895142
1761379667692197400,2.907197265625,-7.709453582763672,-0.6484134197235107,-4.05158805847168
1761379667712251400,2.92725146484375,-8.478784561157227,-0.296689510345459,-6.802514553070068
1761379667732318500,2.947318359375,-5.6317033767700195,-1.7870559692382812,-5.945200443267822
1761379667752370200,2.9673701171875,-2.5909643173217773,-2.3457541465759277,-3.8124783039093018
1761379667772421600,2.987421630859375,-2.2582650184631348,-2.6433427333831787,-0.5201402902603149
1761379667792473900,3.007473876953125,-3.4497032165527344,-3.0532071590423584,1.293045997619629
1761379667812525600,3.027525634765625,-5.157841205596924,-2.410700559616089,-1.6370586156845093
1761379667832577500,3.04757763671875,-4.229331016540527,-2.116824150085449,-5.165331840515137
1761379667852629800,3.067629638671875,-2.1794815063476562,-3.053966522216797,-4.596798896789551
1761379667872663000,3.0876630859375,-1.21527099609375,-4.058452606201172,-0.6200899481773376
1761379667892734200,3.107734130859375,-2.5980358123779297,-3.601734161376953,1.7678470611572266
1761379667912784100,3.1277841796875,-2.758279800415039,-2.5473718643188477,1.9055836200714111
1761379667932835800,3.1478359375,-0.18389511108398438,-1.7321614027023315,1.4540977478027344
1761379667952888600,3.167888671875,4.413888931274414,-2.927915096282959,2.4002628326416016
1761379667972939300,3.187939208984375,9.084428787231445,-2.699772357940674,1.846509575843811
1761379667992990200,3.207990234375,10.539649963378906,-3.718191146850586,0.9685630202293396
1761379668013043200,3.228043212890625,8.917896270751953,-3.310431480407715,-0.6672107577323914
1761379668033095200,3.24809521484375,5.488742828369141,-0.2587571144104004,-0.5619379878044128
1761379668053137400,3.268137451171875,1.7193975448608398,0.47865891456604004,1.4765472412109375
1761379668073200000,3.2882001953125,-0.25338172912597656,-2.4575085639953613,5.401078701019287
1761379668093237800,3.30823779296875,-0.8256387710571289,-5.448840141296387,4.9707818031311035
1761379668113278700,3.32827880859375,0.6040220260620117,-3.823941707611084,-0.6425343751907349
1761379668133343200,3.34834326171875,3.6324758529663086,-1.6560215950012207,-1.7749457359313965
1761379668153395200,3.368395263671875,4.746761322021484,-0.6231558918952942,1.2459627389907837
1761379668173456600,3.38845654296875,2.4023571014404297,-0.060096919536590576,3.158900737762451
1761379668193519000,3.40851904296875,-3.0992116928100586,0.5194644927978516,2.1539454460144043
1761379668213560000,3.42856005859375,-7.725053310394287,1.0006415843963623,-0.2672271132469177
1761379668233611800,3.44861181640625,-8.102839469909668,1.9941874742507935,-2.7800259590148926
1761379668253654800,3.46865478515625,-5.146018981933594,2.2402331829071045,-3.2532365322113037
1761379668273714700,3.488714599609375,-1.9547123908996582,2.124415159225464,-2.1295483112335205
1761379668293767200,3.50876708984375,-0.591888427734375,1.8481781482696533,-0.8819047212600708
1761379668313818400,3.528818359375,-1.8034191131591797,2.0263705253601074,-0.9638406038284302
1761379668333858600,3.548858642578125,-1.5772705078125,2.6588242053985596,-2.0785136222839355
1761379668353921500,3.568921630859375,1.8356618881225586,2.149789810180664,-2.597475528717041
1761379668373962000,3.5889619140625,6.923101425170898,0.9427943825721741,-1.9038814306259155
1761379668394014200,3.60901416015625,9.043473243713379,-0.13090884685516357,-1.9971857070922852
1761379668414077200,3.6290771484375,9.873682975769043,0.32434535026550293,-4.061422348022461
1761379668434128600,3.649128662109375,11.178442001342773,-0.36649131774902344,-4.692592620849609
1761379668454169300,3.66916943359375,11.640542984008789,-1.9638646841049194,-6.7591071128845215
1761379668474232000,3.689232177734375,5.496821403503418,-2.164106607437134,-8.191680908203125
1761379668494274600,3.709274658203125,8.545328140258789,-1.8708466291427612,-4.25985050201416
1761379668514336000,3.7293359375,15.974249839782715,-3.4545326232910156,3.0285744667053223
1761379668534387500,3.749387451171875,12.029866218566895,-4.0399322509765625,9.52832317352295
1761379668554439400,3.769439453125,2.9037656784057617,-3.2111048698425293,7.043199062347412
1761379668574490400,3.789490478515625,-1.2361726760864258,-3.3406944274902344,-0.04503925144672394
1761379668594520000,3.80952001953125,-1.0408601760864258,-3.8756906986236572,-3.162667989730835
1761379668614593500,3.829593505859375,-2.236988067626953,-2.512709617614746,-2.580355405807495
1761379668634643200,3.849643310546875,-4.207441329956055,-0.10748982429504395,-0.5232322216033936
1761379668654694100,3.869694091796875,-6.026125431060791,0.42804813385009766,1.3154866695404053
1761379668674748700,3.889748779296875,-7.373966217041016,-0.311464786529541,1.7364420890808105
1761379668694789000,3.9097890625,-8.10132122039795,-0.9481133222579956,0.7338526248931885
1761379668714842400,3.92984228515625,-8.48026180267334,-0.7002182006835938,-0.35202860832214355
1761379668734904300,3.949904296875,-8.005180358886719,-0.5591492652893066,-0.6574478149414062
1761379668754944300,3.9699443359375,-6.559643745422363,0.12714052200317383,-0.5187399387359619
1761379668775007500,3.990007568359375,-4.829946517944336,-0.06054425239562988,0.9053888320922852
1761379668795059000,4.010058837890625,-4.16494083404541,-0.27757787704467773,1.9199274778366089
1761379668815111000,4.03011083984375,-4.252616882324219,-0.5536092519760132,3.0131051540374756
1761379668835151400,4.0501513671875,-3.583789825439453,0.01129603385925293,2.7904272079467773
1761379668855192000,4.070192138671875,-2.5723438262939453,0.008642077445983887,2.531525135040283
1761379668875265500,4.090265625,-0.6494255065917969,-0.5596034526824951,2.223498582839966
1761379668895307000,4.11030712890625,0.7414693832397461,-1.3123345375061035,0.8942465782165527
1761379668915369000,4.130368896484375,0.5135021209716797,-0.28837084770202637,-2.8496055603027344
1761379668935409700,4.15040966796875,-0.9013156890869141,2.726569652557373,-2.361922025680542
1761379668955472600,4.17047265625,-1.8673863410949707,-0.36790943145751953,3.3508377075195312
1761379668975524400,4.1905244140625,7.654435157775879,-3.161745071411133,0.4817725419998169
1761379668995576000,4.210576171875,23.815460205078125,-2.6465320587158203,-3.366051435470581
1761379669015615700,4.23061572265625,21.240280151367188,-2.5255002975463867,-4.746493339538574
1761379669035680300,4.25068017578125,2.5419092178344727,1.3860960006713867,-6.155540466308594
1761379669055731000,4.27073095703125,-9.00809383392334,0.2913675308227539,1.409765601158142
1761379669075773200,4.290773193359375,-11.807539939880371,2.8345727920532227,1.6205302476882935
1761379669095835000,4.3108349609375,-5.970514297485352,-0.25737857818603516,-0.2955183982849121
1761379669115891000,4.330890869140625,2.9160165786743164,-4.686434745788574,-0.5835883021354675
1761379669135939800,4.35093994140625,10.677372932434082,-6.1913161277771,-0.09819996356964111
1761379669155978200,4.370978271484375,13.101363182067871,-2.9263949394226074,-1.7233970165252686
1761379669176039000,4.391038818359375,9.10883903503418,-1.4279303550720215,-0.5603475570678711
1761379669196077300,4.411077392578125,0.6110372543334961,-1.3536312580108643,1.414259672164917
1761379669216144600,4.43114453125,-7.97779655456543,-1.2770463228225708,2.42996883392334
1761379669236185600,4.451185546875,-11.832314491271973,-2.1733803749084473,2.144249200820923
1761379669256248000,4.471248046875,-6.825258255004883,-2.3200113773345947,0.02148422598838806
1761379669276277200,4.49127734375,-3.2236948013305664,-2.6099629402160645,-0.30298587679862976
1761379669296330500,4.51133056640625,-2.3243770599365234,-3.59757661819458,0.7021817564964294
1761379669316392700,4.531392822265625,-4.920483112335205,-4.902590274810791,1.4963796138763428
1761379669336420900,4.5514208984375,-7.483649253845215,-4.668898582458496,1.8089998960494995
1761379669356472600,4.57147265625,-6.58758020401001,-4.842775344848633,2.094650983810425
1761379669376543000,4.59154296875,-3.3323378562927246,-4.975967884063721,1.3391395807266235
1761379669396609800,4.61160986328125,0.5495109558105469,-2.589461088180542,-0.8839033842086792
1761379669416660700,4.63166064453125,2.99466609954834,-0.35904598236083984,-1.4487740993499756
1761379669436713500,4.65171337890625,0.9559440612792969,-1.367032527923584,0.4017753601074219
1761379669456765200,4.67176513671875,-1.817117691040039,2.3910322189331055,-1.3198320865631104
1761379669476817200,4.691817138671875,0.7076878547668457,3.0972938537597656,-1.252636194229126
1761379669496868900,4.711868896484375,3.1294918060302734,-0.747748851776123,-0.3071487545967102
1761379669516919800,4.731919921875,5.356757164001465,3.2833328247070312,-5.530016899108887
1761379669536949000,4.751948974609375,4.487711429595947,5.734725475311279,-6.59027624130249
1761379669557023500,4.7720234375,-0.8237957954406738,4.958426475524902,-2.3275022506713867
1761379669577075500,4.792075439453125,-6.116403102874756,1.7519707679748535,3.7435989379882812
1761379669597126100,4.812126220703125,-3.7644691467285156,-6.165841579437256,7.795713901519775
1761379669617179100,4.83217919921875,3.6316957473754883,-12.08796501159668,5.4673261642456055
1761379669637229800,4.852229736328125,10.984701156616211,-6.568790435791016,-3.705411911010742
1761379669657282600,4.872282470703125,13.254714012145996,-2.6319801807403564,-6.799013137817383
1761379669677334000,4.892333984375,8.2831392288208,0.20587436854839325,-5.182593822479248
1761379669697385700,4.9123857421875,-0.7186183929443359,1.1475944519042969,-1.5117871761322021
1761379669717436400,4.9324365234375,-8.974794387817383,1.5114656686782837,0.8935801982879639
1761379669737489000,4.952489013671875,-11.014906883239746,0.5086350440979004,2.42507004737854
1761379669757541000,4.972541015625,-5.253169059753418,-0.1846286654472351,1.9734113216400146
1761379669777592800,4.9925927734375,0.9274368286132812,0.3143405318260193,0.20238995552062988
1761379669797643300,5.012643310546875,2.417997360229492,0.743690013885498,-0.363131046295166
1761379669817696300,5.0326962890625,0.5564775466918945,-0.2065262794494629,1.38550865650177
1761379669837718000,5.052718017578125,-2.7408876419067383,-0.9447140693664551,3.4970645904541016
1761379669857790700,5.072790771484375,-4.43599796295166,-1.699586033821106,4.3497796058654785
1761379669877851100,5.09285107421875,-3.1620845794677734,-2.7566146850585938,3.49393892288208
1761379669897901800,5.11290185546875,-1.5546989440917969,-3.6502954959869385,1.2451229095458984
1761379669917931300,5.13293115234375,0.204071044921875,-4.420703411102295,-0.4594430923461914
1761379669938005800,5.153005859375,0.7874460220336914,-5.358796119689941,-0.7840259075164795
1761379669958057000,5.173056884765625,-1.357302188873291,-5.2979888916015625,-0.591140627861023
1761379669978109000,5.19310888671875,-1.2953243255615234,0.22345209121704102,-2.1450252532958984
1761379669998161700,5.21316162109375,0.7452764511108398,5.332167625427246,-5.080856800079346
1761379670018189600,5.233189453125,6.022605895996094,6.318789482116699,-4.037729263305664
1761379670038264000,5.25326416015625,7.462484359741211,-0.5829982757568359,1.3759527206420898
1761379670058316300,5.27331640625,11.767383575439453,0.22270727157592773,-4.149682521820068
1761379670078367500,5.293367431640625,8.77805233001709,1.9449224472045898,-7.767970085144043
1761379670098419000,5.3134189453125,0.0916595458984375,3.490346908569336,-4.302211284637451
1761379670118449200,5.33344921875,-6.414486885070801,3.0209407806396484,0.2764291763305664
1761379670138523100,5.353523193359375,-4.740741729736328,0.2845268249511719,3.6777701377868652
1761379670158574600,5.37357470703125,2.5291366577148438,-2.1190080642700195,3.357696771621704
1761379670178626300,5.393626220703125,7.463105201721191,-2.8659558296203613,0.7431630492210388
1761379670198654700,5.41365478515625,7.162579536437988,-3.554579973220825,-0.2918683886528015
1761379670218707500,5.43370751953125,2.9861412048339844,-3.2357728481292725,-0.3369998335838318
1761379670238781400,5.453781494140625,-2.066976547241211,-2.9594688415527344,0.8795630931854248
1761379670258832400,5.473832275390625,-6.0445098876953125,-2.8127684593200684,1.8458611965179443
1761379670278884000,5.493884033203125,-7.238681316375732,-3.0442428588867188,1.7434253692626953
1761379670298936300,5.513936279296875,-6.1276092529296875,-3.202042579650879,0.9998229742050171
1761379670318965200,5.53396533203125,-4.58878231048584,-2.8097641468048096,0.4903700351715088
1761379670339039500,5.55403955078125,-4.297469139099121,-3.3293356895446777,1.2875449657440186
1761379670359069000,5.57406884765625,-4.039935111999512,-3.0428597927093506,1.7658405303955078
1761379670379120600,5.59412060546875,-2.762942314147949,-1.8961515426635742,1.4968273639678955
1761379670399171600,5.614171630859375,-0.9401111602783203,-1.3130173683166504,1.5761141777038574
1761379670419213000,5.634213134765625,-0.7076621055603027,-1.4693775177001953,1.6823140382766724
1761379670439283500,5.654283447265625,-0.9488716125488281,-1.4985461235046387,1.3295695781707764
1761379670459349800,5.674349853515625,0.5006523132324219,0.0352940559387207,-0.12324118614196777
1761379670479401500,5.6944013671875,2.0596108436584473,2.070859909057617,-1.5853955745697021
1761379670499421400,5.71442138671875,2.9441909790039062,3.823044776916504,-2.8240249156951904
1761379670519484000,5.73448388671875,3.1817169189453125,4.115711688995361,-0.6727932691574097
1761379670539556000,5.75455615234375,5.783505916595459,3.8421707153320312,1.5816130638122559
1761379670559607800,5.77460791015625,11.370067596435547,4.3565239906311035,0.8262690305709839
1761379670579660000,5.794659912109375,10.531994819641113,3.903892993927002,-0.2678266763687134
1761379670599711700,5.814711669921875,4.304438591003418,3.492053985595703,0.7551203966140747
1761379670619763700,5.834763671875,-0.48222827911376953,0.8076066970825195,2.006870746612549
1761379670639814700,5.854814697265625,-0.9808101654052734,-2.233908176422119,0.4952259659767151
1761379670659866000,5.8748662109375,0.5186252593994141,-4.127120494842529,-1.1503081321716309
1761379670679918600,5.894918701171875,0.7457971572875977,-4.65735387802124,-1.9347147941589355
1761379670699969800,5.9149697265625,-0.8157520294189453,-4.32670783996582,-1.9417402744293213
1761379670720021500,5.935021484375,-3.773280143737793,-3.7083349227905273,-1.5737165212631226
1761379670740055300,5.95505517578125,-7.251808166503906,-2.9508750438690186,-1.427870273590088
1761379670759953200,5.974953125,-9.125960350036621,-2.3016552925109863,-1.3510468006134033
1761379670780144600,5.99514453125,-8.56872844696045,-1.502511739730835,-1.8667166233062744
1761379670800205600,6.01520556640625,-6.034748077392578,-1.2923009395599365,-2.157891273498535
1761379670820280600,6.035280517578125,-3.720198631286621,-1.511784315109253,-1.4688034057617188
1761379670840332800,6.055332763671875,-2.9904022216796875,-1.8419846296310425,-0.31495022773742676
1761379670860383700,6.0753837890625,-3.6377978324890137,-2.074150800704956,-0.24142920970916748
1761379670880412200,6.095412109375,-3.742551803588867,-1.9181115627288818,-0.5502634048461914
1761379670900487700,6.11548779296875,-3.3702392578125,-1.8156944513320923,-0.29583466053009033
1761379670920539100,6.1355390625,-4.029386043548584,-2.194786548614502,0.08145594596862793
1761379670940590800,6.1555908203125,-3.613041877746582,-1.7396624088287354,-0.44801199436187744
1761379670960643600,6.1756435546875,-0.24995899200439453,-1.5489747524261475,-1.1010146141052246
1761379670980673300,6.19567333984375,1.8564138412475586,-0.5837860107421875,-1.983977198600769
1761379671000745200,6.2157451171875,2.2119884490966797,1.350935459136963,-2.1752610206604004
1761379671020797000,6.235796875,2.83695125579834,2.7988524436950684,-1.087336540222168
1761379671040849400,6.255849365234375,4.800371170043945,4.347540378570557,0.6534723043441772
1761379671060901000,6.275901123046875,1.6612110137939453,2.886441230773926,3.84438419342041
1761379671080951300,6.295951416015625,-2.6174826622009277,0.7424564361572266,4.104607582092285
1761379671101003300,6.316003173828125,-1.1548757553100586,1.0782976150512695,0.7346796989440918
1761379671121055200,6.33605517578125,4.091927528381348,-1.3084132671356201,-1.0915577411651611
1761379671141106400,6.3561064453125,8.76073169708252,-1.3149776458740234,-2.0386862754821777
1761379671161158700,6.37615869140625,10.096622467041016,-0.7091050148010254,-1.252784252166748
1761379671181191400,6.39619140625,8.453726768493652,-1.083388328552246,0.3681047856807709
1761379671201262000,6.416261962890625,5.545966148376465,-1.5533814430236816,1.3305213451385498
1761379671221290800,6.436290771484375,2.263777732849121,-1.5801924467086792,0.824404239654541
1761379671241365800,6.45636572265625,0.22689342498779297,-1.0973378419876099,-0.288443386554718
1761379671261417200,6.476417236328125,-0.5004730224609375,-0.8074159622192383,-0.8068939447402954
1761379671281468400,6.496468505859375,-0.8452291488647461,-0.7673532962799072,-0.4223131537437439
1761379671301521700,6.516521728515625,-0.9784469604492188,-0.6894180774688721,-0.24516455829143524
1761379671321572400,6.536572265625,-1.5705633163452148,-0.07483983039855957,-1.0222668647766113
1761379671341623300,6.556623291015625,-2.954024314880371,2.1662895679473877,-2.362406015396118
1761379671361676300,6.57667626953125,-3.809114933013916,1.3749282360076904,-0.4037376642227173
1761379671381704200,6.5967041015625,-3.74782133102417,-0.22350430488586426,1.708957314491272
1761379671401756400,6.61675634765625,-1.8757123947143555,-1.2223751544952393,1.3811426162719727
1761379671421823000,6.636822998046875,-0.12088298797607422,-1.5514636039733887,-0.7600974440574646
1761379671441881900,6.6568818359375,1.1909685134887695,-1.5990526676177979,-1.781010389328003
1761379671461934000,6.67693408203125,2.637425422668457,-1.7228002548217773,-1.029802918434143
1761379671481962800,6.696962646484375,3.023397445678711,-0.9104900360107422,-1.0151712894439697
1761379671502037200,6.717037353515625,1.8349409103393555,-0.3057680130004883,-1.064427375793457
1761379671522089200,6.737089111328125,-0.23484134674072266,0.278989315032959,-1.0391813516616821
1761379671542141000,6.757140869140625,-2.168466091156006,0.13694286346435547,-0.5440502762794495
1761379671562192100,6.777192138671875,-2.4000954627990723,-0.24814939498901367,0.3746306300163269
1761379671582243800,6.797243896484375,-0.29259204864501953,-0.3097848892211914,1.3600196838378906
1761379671602296000,6.817296142578125,1.6855659484863281,-0.08146429061889648,1.0441453456878662
1761379671622347500,6.837347412109375,2.7227821350097656,0.6715855598449707,-0.47050774097442627
1761379671642399200,6.857399169921875,2.0949506759643555,0.6024444103240967,-1.1163976192474365
1761379671662450200,6.8774501953125,1.4338951110839844,0.40874528884887695,-1.4107367992401123
1761379671682481200,6.897481201171875,0.766845703125,0.3739938735961914,-0.5321096777915955
1761379671702553300,6.91755322265625,0.5628890991210938,0.17208552360534668,0.20033179223537445
1761379671722596600,6.9375966796875,0.19112300872802734,-0.08690929412841797,-0.029560357332229614
1761379671742658000,6.957657958984375,-0.4582347869873047,-0.16146469116210938,-0.7496922612190247
1761379671762709500,6.97770947265625,-0.9825325012207031,-0.4609665870666504,-0.9506872892379761
1761379671782761200,6.99776123046875,-1.0692024230957031,-0.7372446060180664,-0.4475078582763672
1761379671802813200,7.017813232421875,-0.816105842590332,-1.136383056640625,0.242579847574234
1761379671822864400,7.037864501953125,0.45752620697021484,-1.3337041139602661,0.4146512448787689
1761379671842893300,7.057893310546875,1.1598844528198242,-1.4456602334976196,0.040515460073947906
1761379671862966800,7.077966796875,0.9393587112426758,-1.3766077756881714,-0.48654237389564514
1761379671883019500,7.09801953125,0.4356203079223633,-1.1199405193328857,-0.5246374607086182
1761379671903070200,7.1180703125,-0.5521345138549805,-0.8705191612243652,-0.252230167388916
1761379671923123000,7.138123046875,-1.3122406005859375,-0.6074700355529785,0.47118163108825684
1761379671943174100,7.158174072265625,-1.2091178894042969,-0.23186922073364258,0.7392526865005493
1761379671963185000,7.178184814453125,-1.0268468856811523,0.01189565658569336,0.49999287724494934
1761379671983277600,7.198277587890625,-0.603327751159668,0.17570209503173828,0.43289777636528015
1761379672003330000,7.218330078125,-0.33652400970458984,0.029613256454467773,0.5895413160324097
1761379672023381200,7.23838134765625,-0.18918132781982422,0.23957180976867676,-0.005575895309448242
1761379672043432200,7.25843212890625,0.0036869049072265625,-0.2006993293762207,0.08724278211593628
1761379672063461400,7.27846142578125,0.7064390182495117,-0.23951435089111328,-0.12198781967163086
