time,seconds_elapsed,z,y,x
1761379912656246000,0.08624609375,0.013106622733175755,-0.01185758039355278,0.03327450156211853
1761379912666259500,0.096259521484375,0.013572932220995426,-0.027528904378414154,0.028361599892377853
1761379912676303400,0.106303466796875,0.008260336704552174,-0.049278903752565384,0.017170175909996033
1761379912686306000,0.11630615234375,0.0004330015217419714,-0.05993740260601044,-0.005079440772533417
1761379912696352500,0.1263525390625,-0.00472970912232995,-0.04434935003519058,-0.03513973951339722
1761379912706379300,0.136379150390625,-0.004846286494284868,-0.010708460584282875,-0.06033709645271301
1761379912716404500,0.146404541015625,-0.006811446975916624,0.009526033885776997,-0.07202813774347305
1761379912726426600,0.156426513671875,-0.011507848277688026,0.0144222816452384,-0.06568299978971481
1761379912736450800,0.166450927734375,-0.01039203628897667,0.009009762667119503,-0.046864088624715805
1761379912746477000,0.17647705078125,-0.006195252761244774,0.0021150459069758654,-0.026030052453279495
1761379912756502500,0.18650244140625,-0.0021316998172551394,-0.011008230969309807,-0.012623660266399384
1761379912766529000,0.196529052734375,0.0011491194600239396,-0.02642974629998207,-0.01160777173936367
1761379912776557800,0.206557861328125,0.0009825803572311997,-0.037304747849702835,-0.023498659953475
1761379912786585600,0.216585693359375,0.0037304747384041548,-0.0337408110499382,-0.0432501919567585
1761379912796609500,0.226609619140625,0.008593414910137653,-0.016920367255806923,-0.05802220478653908
1761379912806627300,0.23662744140625,0.006311830133199692,-0.0024980856105685234,-0.054541539400815964
1761379912816636700,0.24663671875,0.0009659265051595867,0.003980283159762621,-0.04320022836327553
1761379912826689500,0.256689453125,-0.0026479708030819893,-0.007810681592673063,-0.026329822838306427
1761379912836710700,0.266710693359375,-0.005612365901470184,-0.031209418550133705,-0.008909839205443859
1761379912846735600,0.276735595703125,-0.004763016942888498,-0.03965294733643532,-0.004396630916744471
1761379912856760800,0.2867607421875,0.004096860531717539,-0.027745405212044716,-0.014438935555517673
1761379912866787800,0.296787841796875,0.010292112827301025,-0.015671323984861374,-0.030743109062314034
1761379912876814600,0.306814697265625,0.012307235971093178,-0.011924196034669876,-0.04335011541843414
1761379912886837500,0.31683740234375,0.011407924816012383,-0.018236026167869568,-0.05036140978336334
1761379912896862700,0.32686279296875,0.012490428984165192,-0.026896055787801743,-0.05004498362541199
1761379912906874600,0.33687451171875,0.018319295719265938,-0.0333244651556015,-0.04463246464729309
1761379912916914000,0.346913818359375,0.024614471942186356,-0.040635526180267334,-0.036255549639463425
1761379912926939600,0.356939697265625,0.025080781430006027,-0.04050229489803314,-0.01995137706398964
1761379912936944400,0.3669443359375,0.0226659644395113,-0.026229899376630783,0.0002997702977154404
1761379912946991000,0.3769912109375,0.021366959437727928,-0.010591883212327957,0.018519142642617226
1761379912957016800,0.387016845703125,0.016137633472681046,-0.010242151096463203,0.03235853835940361
1761379912967042800,0.397042724609375,0.005995405837893486,-0.023648545145988464,0.03440696746110916
1761379912977068300,0.407068359375,0.0018985451897606254,-0.026646247133612633,0.02003464661538601
1761379912987073800,0.41707373046875,0.0018652373692020774,-0.00679479306563735,-0.0038137442898005247
1761379912997119700,0.42711962890625,0.0011158116394653916,0.01945176161825657,-0.028328292071819305
1761379913007145500,0.4371455078125,-0.008793261833488941,0.030676493421196938,-0.04433269426226616
1761379913017171700,0.447171630859375,-0.018152756616473198,0.02997702918946743,-0.05330915004014969
1761379913027196000,0.45719580078125,-0.0250974353402853,0.024697741493582726,-0.05427507683634758
1761379913037222700,0.46722265625,-0.03543950989842415,0.01900210604071617,-0.050161562860012054
1761379913047248100,0.477248046875,-0.0481797456741333,0.015171707607805729,-0.04749693721532822
1761379913057273600,0.487273681640625,-0.0601205974817276,0.012223966419696808,-0.056806471198797226
1761379913067301600,0.497301513671875,-0.06576626747846603,0.013489662669599056,-0.08008863031864166
1761379913077325800,0.507325927734375,-0.0634513795375824,0.02429804764688015,-0.10815045982599258
1761379913087352800,0.517352783203125,-0.057505931705236435,0.03284149989485741,-0.1307831108570099
1761379913097378000,0.5273779296875,-0.05184360593557358,0.03142591938376427,-0.1396763026714325
1761379913107385600,0.537385498046875,-0.04884590208530426,0.019768185913562775,-0.13702832162380219
1761379913117427700,0.547427734375,-0.04561504349112511,-0.003597243456169963,-0.13243184983730316
1761379913127453700,0.55745361328125,-0.039686255156993866,-0.025197358801960945,-0.13611236214637756
1761379913137479200,0.567479248046875,-0.029827143996953964,-0.034040581434965134,-0.15186695754528046
1761379913147516400,0.577516357421875,-0.023282159119844437,-0.03727144002914429,-0.17874635756015778
1761379913157531000,0.58753076171875,-0.017303407192230225,-0.036805130541324615,-0.2070246934890747
1761379913167556600,0.597556640625,-0.013289815746247768,-0.02997702918946743,-0.22900784015655518
1761379913177586700,0.607586669921875,-0.009559341706335545,-0.027745405212044716,-0.23636886477470398
1761379913187590100,0.617590087890625,-0.008593414910137653,-0.03477335348725319,-0.23017361760139465
1761379913197606400,0.6276064453125,-0.0044965543784201145,-0.044815659523010254,-0.21789969503879547
1761379913207639000,0.63763916015625,0.0009492725948803127,-0.052992723882198334,-0.19703234732151031
1761379913217693200,0.647693115234375,0.002964395098388195,-0.052959416061639786,-0.17101894319057465
1761379913227711000,0.6577109375,0.002931087277829647,-0.04108518362045288,-0.1411418467760086
1761379913237736400,0.667736328125,0.008460183627903461,-0.03289146348834038,-0.11244716495275497
1761379913247762200,0.67776220703125,0.01961830072104931,-0.03993606194853783,-0.08428541570901871
1761379913257787600,0.68778759765625,0.030293453484773636,-0.060770098119974136,-0.06281852722167969
1761379913267813600,0.697813720703125,0.04141826182603836,-0.07730742543935776,-0.04483231157064438
1761379913277839000,0.707839111328125,0.03870367631316185,-0.07660796493291855,-0.029827143996953964
1761379913287864800,0.71786474609375,0.025896821171045303,-0.05927124619483948,-0.023565275594592094
1761379913297890600,0.727890625,0.016187595203518867,-0.02826167643070221,-0.030876340344548225
1761379913307916300,0.737916259765625,0.012823506258428097,-0.005295941606163979,-0.05325918644666672
1761379913317914600,0.74791455078125,0.015021822415292263,-0.0016487365355715156,-0.08625057339668274
1761379913327967700,0.7579677734375,0.0263464767485857,-0.007027947809547186,-0.11159781366586685
1761379913337993200,0.7679931640625,0.03185892105102539,-0.025480475276708603,-0.1124638170003891
1761379913347998200,0.777998291015625,0.02003464661538601,-0.03793759644031525,-0.08455187827348709
1761379913358045000,0.788044921875,-0.005295941606163979,-0.03603905066847801,-0.04558173567056656
1761379913368050000,0.7980498046875,-0.02784532867372036,-0.023731814697384834,-0.02534724399447441
1761379913378096000,0.80809619140625,-0.03728809207677841,0.0001498851488577202,-0.03274157643318176
1761379913388122400,0.818122314453125,-0.039686255156993866,0.010591883212327957,-0.059337861835956573
1761379913398147600,0.828147705078125,-0.04220099374651909,0.01745329238474369,-0.09442763775587082
1761379913408152800,0.83815283203125,-0.027961906045675278,0.0341571569442749,-0.12094065546989441
1761379913418199600,0.848199462890625,-0.005212672054767609,0.0374879390001297,-0.13331450521945953
1761379913428224800,0.858224853515625,0.012557044625282288,0.027079248800873756,-0.125936821103096
1761379913438250000,0.86825,0.018102794885635376,0.01252373680472374,-0.09825804084539413
1761379913448276000,0.87827587890625,0.01433901209384203,-0.00729441037401557,-0.06558308005332947
1761379913458303500,0.888303466796875,0.015088438056409359,-0.02000133879482746,-0.05342572554945946
1761379913468327400,0.898327392578125,0.03039337694644928,-0.01252373680472374,-0.061186447739601135
1761379913478355500,0.90835546875,0.04789663106203079,-0.0038970138411968946,-0.08217036724090576
1761379913488382500,0.918382568359375,0.059337861835956573,-0.018252680078148842,-0.10800057649612427
1761379913498404600,0.928404541015625,0.066432423889637,-0.043100304901599884,-0.13483001291751862
1761379913508409600,0.93840966796875,0.07279422134160995,-0.05840524286031723,-0.16115984320640564
1761379913518418000,0.94841796875,0.07732407748699188,-0.06451722979545593,-0.18554115295410156
1761379913528481500,0.9584814453125,0.0791393592953682,-0.07051263004541397,-0.20509283244609833
1761379913538507300,0.96850732421875,0.08388572186231613,-0.0750424936413765,-0.21774980425834656
1761379913548516900,0.978516845703125,0.08903177827596664,-0.07510910928249359,-0.21713361144065857
1761379913558559200,0.988559326171875,0.09113016724586487,-0.06764816492795944,-0.1961163878440857
1761379913568588300,0.99858837890625,0.09396132826805115,-0.058305319398641586,-0.15894487500190735
1761379913578615600,1.008615478515625,0.09644276648759842,-0.05589050427079201,-0.11036542803049088
1761379913588629200,1.018629150390625,0.09949042648077011,-0.0633847638964653,-0.06325153261423111
1761379913598641200,1.02864111328125,0.10480302572250366,-0.07832331210374832,-0.031409263610839844
1761379913608693500,1.038693603515625,0.11116481572389603,-0.08590084314346313,-0.01612097956240177
1761379913618692400,1.0486923828125,0.12060757726430893,-0.08428541570901871,-0.01595444045960903
1761379913628738600,1.058738525390625,0.13691174983978271,-0.07885623723268509,-0.01966826245188713
1761379913638764500,1.0687646484375,0.15544754266738892,-0.0840689092874527,-0.019268568605184555
1761379913648790000,1.0787900390625,0.16803790628910065,-0.10297109186649323,-0.005629019811749458
1761379913658815500,1.0888154296875,0.1700197160243988,-0.12761887907981873,0.019884763285517693
1761379913668841000,1.098841064453125,0.1707857996225357,-0.14603808522224426,0.07384341210126877
1761379913678867200,1.1088671875,0.17253445088863373,-0.1813277155160904,0.15048468112945557
1761379913688892700,1.118892578125,0.16983652114868164,-0.2193152755498886,0.23282158374786377
1761379913698900200,1.128900146484375,0.14742036163806915,-0.2407654970884323,0.3114946484565735
1761379913708944400,1.1389443359375,0.118092842400074,-0.24289719760417938,0.3688340187072754
1761379913718950100,1.1489501953125,0.08353598415851593,-0.2057589888572693,0.3741799294948578
1761379913729006600,1.159006591796875,0.05092764273285866,-0.14275726675987244,0.335609495639801
1761379913739021300,1.169021240234375,0.01970157027244568,-0.07957235723733902,0.2761550545692444
1761379913749042700,1.179042724609375,-0.021783307194709778,-0.03052660822868347,0.21150459349155426
1761379913759072500,1.189072509765625,-0.06753158569335938,0.01607101783156395,0.16031049191951752
1761379913769098500,1.199098388671875,-0.11208078265190125,0.0597042478621006,0.12332216650247574
1761379913779124200,1.209124267578125,-0.15396535396575928,0.09572664648294449,0.08801588416099548
1761379913789149700,1.219149658203125,-0.1764814257621765,0.11709360778331757,0.05712289363145828
1761379913799176400,1.229176513671875,-0.18162748217582703,0.11189758777618408,0.045232005417346954
1761379913809201400,1.239201416015625,-0.19818146526813507,0.0812210962176323,0.03247511386871338
1761379913819227000,1.249226806640625,-0.22192993760108948,0.0592879019677639,0.02041768655180931
1761379913829252400,1.25925244140625,-0.23761790990829468,0.060303788632154465,-0.003647205187007785
1761379913839278300,1.2692783203125,-0.24604478478431702,0.07995539903640747,-0.04211772605776787
1761379913849305000,1.27930517578125,-0.24454593658447266,0.1128801703453064,-0.0946941003203392
1761379913859330300,1.289330322265625,-0.23372089862823486,0.1394098401069641,-0.15055130422115326
1761379913869356000,1.29935595703125,-0.22141367197036743,0.15103426575660706,-0.19351837038993835
1761379913879376000,1.3093759765625,-0.21508517861366272,0.15288284420967102,-0.21052201092243195
1761379913889406700,1.31940673828125,-0.20344410836696625,0.14270730316638947,-0.2104887068271637
1761379913899459000,1.329458984375,-0.18817247450351715,0.1278853416442871,-0.20337748527526855
1761379913909458700,1.339458740234375,-0.17023621499538422,0.11925861239433289,-0.20114585757255554
1761379913919463000,1.349462890625,-0.16229230165481567,0.11547817289829254,-0.20719122886657715
1761379913929510100,1.35951025390625,-0.16810451447963715,0.10806718468666077,-0.2239617109298706
1761379913939535000,1.36953515625,-0.17581526935100555,0.09937384724617004,-0.24932560324668884
1761379913949563400,1.3795634765625,-0.1750158816576004,0.0947607159614563,-0.280485063791275
1761379913959587000,1.389587158203125,-0.16277526319026947,0.0964261069893837,-0.3133598864078522
1761379913969613300,1.39961328125,-0.1414915770292282,0.12054096162319183,-0.3411552309989929
1761379913979638800,1.409638671875,-0.11762653291225433,0.15118414163589478,-0.34743377566337585
1761379913989664800,1.419664794921875,-0.1062852218747139,0.1636246144771576,-0.3256671130657196
1761379913999690800,1.429690673828125,-0.10120578110218048,0.14928559958934784,-0.27550554275512695
1761379914009717000,1.439717041015625,-0.08831565827131271,0.12733575701713562,-0.20550918579101562
1761379914019741400,1.449741455078125,-0.06689873337745667,0.08836562186479568,-0.11897549778223038
1761379914029756400,1.45975634765625,-0.02374846860766411,0.05903809145092964,-0.03194218873977661
1761379914039796200,1.469796142578125,0.034123849123716354,0.04724712669849396,0.05014490708708763
1761379914049809000,1.479808837890625,0.07870635390281677,0.0399194099009037,0.12377182394266129
1761379914059847000,1.489846923828125,0.11216405034065247,0.03202546015381813,0.18207713961601257
1761379914069871400,1.499871337890625,0.13784436881542206,0.014855283312499523,0.2243114411830902
1761379914079865900,1.509865966796875,0.15115083754062653,-0.00937614869326353,0.2468608319759369
1761379914089921800,1.519921875,0.15479804575443268,-0.03553943336009979,0.2452787160873413
1761379914099946800,1.52994677734375,0.15473142266273499,-0.04768012836575508,0.22767552733421326
1761379914109955800,1.539955810546875,0.15228331089019775,-0.04453254118561745,0.20339414477348328
1761379914119988700,1.54998876953125,0.14305704832077026,-0.038803599774837494,0.17969563603401184
1761379914130024000,1.56002392578125,0.13041673600673676,-0.038270674645900726,0.1657063513994217
1761379914140049700,1.570049560546875,0.11414586007595062,-0.04066883400082588,0.1625920683145523
1761379914150067500,1.5800673828125,0.09461083263158798,-0.044149503111839294,0.16364127397537231
1761379914160108000,1.59010791015625,0.06781470030546188,-0.04418281093239784,0.159194678068161
1761379914170128100,1.600128173828125,0.03760451823472977,-0.046114660799503326,0.15110087394714355
1761379914180123100,1.610123046875,0.0045298621989786625,-0.04178464785218239,0.1314825713634491
1761379914190197200,1.620197265625,-0.023265505209565163,-0.03454019874334335,0.10523602366447449
1761379914200201500,1.630201416015625,-0.04763016849756241,-0.015321592800319195,0.07590849697589874
1761379914210218500,1.640218505859375,-0.0630350261926651,0.01194084994494915,0.048612747341394424
1761379914220244500,1.650244384765625,-0.07014624774456024,0.038220711052417755,0.027861982583999634
1761379914230281000,1.660281005859375,-0.06716519594192505,0.051826950162649155,0.021566806361079216
1761379914240306700,1.670306640625,-0.059337861835956573,0.05022817850112915,0.025447167456150055
1761379914250343200,1.68034326171875,-0.04771343618631363,0.03820405900478363,0.03767113387584686
1761379914260358400,1.6903583984375,-0.03652201220393181,0.016753828153014183,0.05196018144488335
1761379914270383900,1.7003837890625,-0.03072645515203476,-0.012873467989265919,0.06390102952718735
1761379914280403500,1.710403564453125,-0.029044410213828087,-0.03940314054489136,0.06943012773990631
1761379914290435300,1.720435302734375,-0.02897779457271099,-0.05342572554945946,0.06418415158987045
1761379914300461300,1.73046142578125,-0.03139261156320572,-0.057089585810899734,0.0440828874707222
1761379914310487000,1.740487060546875,-0.03605570271611214,-0.04912902042269707,0.008426875807344913
1761379914320505000,1.750505126953125,-0.04078541323542595,-0.019385145977139473,-0.02642974629998207
1761379914330539500,1.76053955078125,-0.04250076413154602,0.01983480155467987,-0.055457502603530884
1761379914340564000,1.77056396484375,-0.03966960310935974,0.04554842785000801,-0.07764050364494324
1761379914350589700,1.780589599609375,-0.03444027528166771,0.0647670328617096,-0.08661695569753647
1761379914360615200,1.790615234375,-0.03538954630494118,0.06683211773633957,-0.08541787415742874
1761379914370641200,1.80064111328125,-0.04801320657134056,0.049012441188097,-0.08480168133974075
1761379914380656000,1.81065625,-0.07266099005937576,0.026479708030819893,-0.09579326212406158
1761379914390692400,1.8206923828125,-0.09954039007425308,0.018652373924851418,-0.12527066469192505
1761379914400706800,1.830706787109375,-0.11081508547067642,0.02889452502131462,-0.1748826503753662
1761379914410733000,1.840733154296875,-0.10388705879449844,0.03385739028453827,-0.22904115915298462
1761379914420770000,1.85077001953125,-0.0880325436592102,0.012906775809824467,-0.2669287919998169
1761379914430798800,1.860798828125,-0.06916366517543793,-0.030659839510917664,-0.2818506956100464
1761379914440821500,1.870821533203125,-0.05482465401291847,-0.08808249980211258,-0.2715752124786377
1761379914450837800,1.880837646484375,-0.04015256464481354,-0.13399732112884521,-0.2425641268491745
1761379914460861400,1.890861328125,-0.018818913027644157,-0.14227430522441864,-0.20314432680606842
1761379914470900000,1.90089990234375,0.010192189365625381,-0.11799291521310806,-0.15942783653736115
1761379914480913400,1.910913330078125,0.03892017528414726,-0.08045501261949539,-0.10876665264368057
1761379914490949400,1.920949462890625,0.060470327734947205,-0.05377545952796936,-0.050461333245038986
1761379914500975400,1.930975341796875,0.07284417748451233,-0.05222664400935173,0.013572932220995426
1761379914511000300,1.941000244140625,0.07845654338598251,-0.06654900312423706,0.06794793158769608
1761379914521016600,1.9510166015625,0.08475172519683838,-0.07918931543827057,0.1033041700720787
1761379914531052500,1.961052490234375,0.09769180417060852,-0.08218701928853989,0.11797626316547394
1761379914541064000,1.97106396484375,0.10590218007564545,-0.07790696620941162,0.11541155725717545
1761379914551110100,1.981110107421875,0.10976588726043701,-0.06323487311601639,0.10630187392234802
1761379914561128400,1.99112841796875,0.1030210554599762,-0.05001167580485344,0.1058022603392601
1761379914571134500,2.001134521484375,0.07605838030576706,-0.04195118695497513,0.13429708778858185
1761379914581201700,2.01120166015625,0.03513973951339722,-0.0687972828745842,0.20267802476882935
1761379914591208700,2.021208740234375,-0.014072549529373646,-0.07480934262275696,0.2516738176345825
1761379914601230800,2.03123095703125,-0.036138974130153656,-0.03787098079919815,0.2832329571247101
1761379914611257600,2.041257568359375,-0.04378311708569527,-0.026030052453279495,0.3071979284286499
1761379914621283600,2.05128369140625,-0.07397664338350296,-0.019801493734121323,0.32486772537231445
1761379914631303200,2.06130322265625,-0.11686044931411743,0.002364854561164975,0.32778215408325195
1761379914641335000,2.0713349609375,-0.1591114103794098,0.037970904260873795,0.31034553050994873
1761379914651360300,2.0813603515625,-0.19769850373268127,0.07071247696876526,0.25695309042930603
1761379914661368600,2.09136865234375,-0.2286747694015503,0.1198248416185379,0.16700536012649536
1761379914671412000,2.101411865234375,-0.2343037873506546,0.1632082611322403,0.07091232389211655
1761379914681437400,2.1114375,-0.23911675810813904,0.20022989809513092,0.0038137442898005247
1761379914691445500,2.121445556640625,-0.24274732172489166,0.1980648934841156,-0.029294218868017197
1761379914701489000,2.131489013671875,-0.2508411109447479,0.17444965243339539,-0.015221669338643551
1761379914711486700,2.14148681640625,-0.24932560324668884,0.12750229239463806,0.02025114744901657
1761379914721529600,2.151529541015625,-0.23290486633777618,0.06165275722742081,0.046947356313467026
1761379914731566300,2.16156640625,-0.212087482213974,0.01458882074803114,0.06649903953075409
1761379914741591600,2.171591552734375,-0.2065417319536209,-0.020134570077061653,0.07720750570297241
1761379914751617300,2.1816171875,-0.21490198373794556,-0.05713954567909241,0.07395999133586884
1761379914761632300,2.19163232421875,-0.2399994283914566,-0.07619161158800125,0.05409188196063042
1761379914771669200,2.201669189453125,-0.2708757519721985,-0.07272760570049286,0.01375612523406744
1761379914781694200,2.211694091796875,-0.28676357865333557,-0.060137249529361725,-0.03377411887049675
1761379914791720400,2.221720458984375,-0.29778847098350525,-0.05322587862610817,-0.08356929570436478
1761379914801735700,2.231735595703125,-0.3228859007358551,-0.0518602579832077,-0.13819409906864166
1761379914811773200,2.241773193359375,-0.3600241243839264,-0.0341571569442749,-0.1895880550146103
1761379914821800400,2.251800537109375,-0.3898845613002777,0.0015987749211490154,-0.21893222630023956
1761379914831814100,2.261814208984375,-0.41594791412353516,0.023765122517943382,-0.21983154118061066
1761379914841842700,2.2718427734375,-0.4359825849533081,0.047197166830301285,-0.19290217757225037
1761379914851876000,2.2818759765625,-0.4427773654460907,0.08318625390529633,-0.14259073138237
1761379914861893400,2.291893310546875,-0.43886369466781616,0.10030646622180939,-0.08227028697729111
1761379914871925500,2.301925537109375,-0.417996346950531,0.1075342670083046,-0.02546382136642933
1761379914881951700,2.31195166015625,-0.38698679208755493,0.12298908829689026,0.02513074316084385
1761379914891958500,2.32195849609375,-0.35755932331085205,0.11689376085996628,0.05732274055480957
1761379914901992700,2.33199267578125,-0.3307465612888336,0.08843223750591278,0.07625822722911835
1761379914912028700,2.342028564453125,-0.3066983222961426,0.04713055118918419,0.07795692980289459
1761379914922054400,2.352054443359375,-0.2882457971572876,0.008943147026002407,0.058505166321992874
1761379914932072000,2.362072021484375,-0.2719915807247162,-0.0006495022680610418,0.01961830072104931
1761379914942111000,2.372111083984375,-0.25537097454071045,0.007361026015132666,-0.022366194054484367
1761379914952129800,2.3821298828125,-0.23265504837036133,0.04003598541021347,-0.05780570209026337
1761379914962147800,2.39214794921875,-0.19588322937488556,0.0704626739025116,-0.0771242305636406
1761379914972192300,2.402192138671875,-0.15528100728988647,0.0828198716044426,-0.07374349236488342
1761379914982197500,2.412197509765625,-0.12200650572776794,0.07147856056690216,-0.048862557858228683
1761379914992233700,2.422233642578125,-0.09561006724834442,0.04349999874830246,-0.011557810008525848
1761379915002250500,2.43225048828125,-0.07752392441034317,0.015621363185346127,0.021899884566664696
1761379915012285200,2.44228515625,-0.06111983209848404,0.004746363032609224,0.04683078080415726
1761379915022311400,2.4523115234375,-0.038220711052417755,0.00567898154258728,0.05748927965760231
1761379915032337000,2.4623369140625,-0.005545750260353088,0.009176301769912243,0.04921228811144829
1761379915042361900,2.47236181640625,0.03745463117957115,0.020134570077061653,0.034090545028448105
1761379915052387800,2.482387939453125,0.08663361519575119,0.037804365158081055,0.022682618349790573
1761379915062409700,2.49240966796875,0.1278853416442871,0.0420011468231678,0.021983154118061066
1761379915072428800,2.5024287109375,0.1504347175359726,0.022199654951691628,0.03189222887158394
1761379915082465000,2.512465087890625,0.15283288061618805,-0.010425344109535217,0.04409953951835632
1761379915092481800,2.522481689453125,0.1510009616613388,-0.046580970287323,0.04691404849290848
1761379915102516700,2.532516845703125,0.15086773037910461,-0.08528464287519455,0.034423619508743286
1761379915112542700,2.542542724609375,0.15671324729919434,-0.10400363802909851,0.01467209029942751
1761379915122568000,2.55256787109375,0.15444831550121307,-0.0938614085316658,0.0016487365355715156
1761379915132583200,2.562583251953125,0.13632886111736298,-0.06286849081516266,-0.004396630916744471
1761379915142619600,2.57261962890625,0.10438667237758636,-0.01970157027244568,-0.003047664649784565
1761379915152645400,2.582645263671875,0.07346037775278091,0.0238816998898983,0.005029479041695595
1761379915162650000,2.592650146484375,0.04996171593666077,0.05703962221741676,0.014488897286355495
1761379915172696000,2.602696044921875,0.035123083740472794,0.07645807415246964,0.021816615015268326
1761379915182722300,2.612722412109375,0.02976052835583687,0.08373583108186722,0.02568032033741474
1761379915192748300,2.622748291015625,0.02797855995595455,0.07687442749738693,0.035256315022706985
1761379915202764000,2.632763916015625,0.02070080302655697,0.06246879696846008,0.04351665452122688
1761379915212801800,2.6428017578125,0.011557810008525848,0.044982198625802994,0.046064700931310654
1761379915222812200,2.652812255859375,0.009142993949353695,0.02964395098388195,0.03981948643922806
1761379915232854500,2.6628544921875,0.013289815746247768,0.0075442190282046795,0.02000133879482746
1761379915242880000,2.6728798828125,0.018852220848202705,-0.01383939478546381,-0.01102488487958908
1761379915252902000,2.68290185546875,0.022682618349790573,-0.021799961104989052,-0.048745978623628616
1761379915262919700,2.692919677734375,0.02872798591852188,-0.017902947962284088,-0.08160413056612015
1761379915272953900,2.702953857421875,0.034207120537757874,-0.003047664649784565,-0.10148889571428299
1761379915282979300,2.712979248046875,0.039602987468242645,0.018469180911779404,-0.10245481878519058
1761379915292996900,2.722996826171875,0.04746362939476967,0.03585585579276085,-0.08660030364990234
1761379915303031300,2.73303125,0.05514108017086983,0.04701397195458412,-0.05106087401509285
1761379915313049000,2.743049072265625,0.058172088116407394,0.040768757462501526,-0.004013590980321169
1761379915323084300,2.753084228515625,0.05176033452153206,0.015038476325571537,0.04341673105955124
1761379915333104000,2.763104248046875,0.04321688413619995,-0.0075608729384839535,0.07742400467395782
1761379915343130000,2.773130126953125,0.035639356821775436,-0.02070080302655697,0.08993108570575714
1761379915353139000,2.783138916015625,0.028528138995170593,-0.03210872784256935,0.06526665389537811
1761379915363188200,2.793188232421875,0.042983729392290115,-0.01555474754422903,0.024447932839393616
1761379915373210600,2.803210693359375,0.06611600518226624,0.02095061168074608,-0.017253445461392403
1761379915383236600,2.813236572265625,0.08426875621080399,0.047280434519052505,-0.04446592554450035
1761379915393257000,2.823257080078125,0.09912404417991638,0.05334245786070824,-0.045731622725725174
1761379915403287300,2.833287353515625,0.11706029623746872,0.0485960952937603,-0.01761983148753643
1761379915413313000,2.84331298828125,0.12590351700782776,0.027462288737297058,0.03169238194823265
1761379915423343600,2.853343505859375,0.13244850933551788,0.0024980856105685234,0.08455187827348709
1761379915433364500,2.863364501953125,0.13881029188632965,-0.026579631492495537,0.12104058265686035
1761379915443390200,2.87339013671875,0.14284053444862366,-0.05422511324286461,0.1288512647151947
1761379915453416200,2.883416259765625,0.14900249242782593,-0.06190256401896477,0.11249712854623795
1761379915463439600,2.893439697265625,0.15444831550121307,-0.04320022836327553,0.08253674954175949
1761379915473456400,2.903456298828125,0.1546814739704132,-0.014538859017193317,0.04867936298251152
1761379915483493000,2.9134931640625,0.1510675698518753,0.007227794732898474,0.019468415528535843
1761379915493508900,2.9235087890625,0.15083441138267517,0.015238323248922825,-0.003064318560063839
1761379915503544300,2.93354443359375,0.14990179240703583,0.004013590980321169,-0.01845252700150013
1761379915513562600,2.943562744140625,0.1417580395936966,-0.017103560268878937,-0.02576358988881111
1761379915523595800,2.953595703125,0.1364787518978119,-0.03837059810757637,-0.014988514594733715
1761379915533600800,2.963600830078125,0.13021688163280487,-0.049995023757219315,0.007660796400159597
1761379915543626500,2.97362646484375,0.11676052957773209,-0.05139394849538803,0.032924771308898926
1761379915553652000,2.98365185546875,0.10873334109783173,-0.0374879390001297,0.050128255039453506
1761379915563677400,2.993677490234375,0.11046534776687622,-0.023731814697384834,0.05594046786427498
1761379915573696300,3.0036962890625,0.11078177392482758,-0.019351838156580925,0.049495406448841095
1761379915583724500,3.013724609375,0.1115645095705986,-0.02191653847694397,0.03379077464342117
1761379915593744000,3.023743896484375,0.1075342670083046,-0.025363897904753685,0.014805321581661701
1761379915603765500,3.033765625,0.09875765442848206,-0.029494065791368484,-0.0006328483577817678
1761379915613805300,3.043805419921875,0.09039739519357681,-0.031292688101530075,-0.01284016016870737
1761379915623841500,3.053841552734375,0.09028081595897675,-0.02584685944020748,-0.020550917834043503
1761379915633873400,3.063873291015625,0.0947607159614563,-0.017753062769770622,-0.017103560268878937
1761379915643905300,3.0739052734375,0.09624291956424713,-0.009526033885776997,-0.007261102553457022
1761379915653928700,3.0839287109375,0.08953139185905457,-0.00849349144846201,0.00791060458868742
1761379915663955000,3.093954833984375,0.07970558851957321,-0.013639547862112522,0.02712921053171158
1761379915673980200,3.103980224609375,0.07292745262384415,-0.010941615328192711,0.042900457978248596
1761379915684006700,3.114006591796875,0.07196152210235596,-0.0045465161092579365,0.051543835550546646
1761379915694033200,3.124033203125,0.07590849697589874,0.005579058080911636,0.05117744952440262
1761379915704040700,3.134040771484375,0.07652468979358673,0.008510145358741283,0.04549846798181534
1761379915714058200,3.144058349609375,0.07347702980041504,0.02078407257795334,0.040602218359708786
1761379915724119600,3.15411962890625,0.08426875621080399,0.07191155850887299,0.046314507722854614
1761379915734119400,3.164119384765625,0.06288514286279678,0.04341673105955124,0.01748660020530224
1761379915744151300,3.1741513671875,0.0407521054148674,-0.0009492725948803127,-0.0022815850097686052
1761379915754177000,3.184177001953125,0.04751358926296234,-0.029577335342764854,0.004629785660654306
1761379915764214800,3.19421484375,0.04546516016125679,-0.05131068080663681,0.008626722730696201
1761379915774239700,3.20423974609375,0.032258614897727966,-0.06186925619840622,0.01665390469133854
1761379915784265200,3.21426513671875,0.0238816998898983,-0.06286849081516266,0.0280118677765131
1761379915794291500,3.22429150390625,0.01665390469133854,-0.06121975556015968,0.03182561323046684
1761379915804317400,3.2343173828125,0.009509379975497723,-0.0453319288790226,0.029660604894161224
1761379915814331400,3.244331298828125,0.009226263500750065,-0.017053598538041115,0.023931661620736122
1761379915824368400,3.254368408203125,0.0135895861312747,-0.00008326952229253948,0.014971860684454441
1761379915834394400,3.264394287109375,0.01612097956240177,0.004130168352276087,0.011674387380480766
1761379915844408600,3.27440869140625,0.020967265591025352,-0.00018319295486435294,0.014655436389148235
1761379915854446300,3.2844462890625,0.008843223564326763,-0.02086734212934971,0.03903675451874733
1761379915864470800,3.294470703125,-0.012407159432768822,-0.03652201220393181,0.06320156902074814
1761379915874486500,3.304486572265625,-0.009259571321308613,-0.06211906671524048,0.06561638414859772
1761379915884522800,3.314522705078125,0.012473775073885918,-0.07439298927783966,0.042317572981119156
1761379915894536700,3.32453662109375,0.02964395098388195,-0.04053560271859169,0.014438935555517673
1761379915904566500,3.33456640625,0.03657197579741478,-0.002847817726433277,-0.008227028883993626
1761379915914591000,3.344591064453125,0.023865045979619026,0.030959609895944595,-0.014189126901328564
1761379915924626400,3.35462646484375,-0.0164873655885458,0.09231259673833847,0.0017819678178057075
1761379915934651000,3.36465087890625,-0.06529995799064636,0.1453719288110733,0.014622128568589687
1761379915944659000,3.374658935546875,-0.0901808962225914,0.19788169860839844,0.01673717424273491
1761379915954702600,3.38470263671875,-0.07517572492361069,0.2321554273366928,-0.00018319295486435294
1761379915964728300,3.394728271484375,-0.039436448365449905,0.19068720936775208,-0.01425574254244566
1761379915974765300,3.404765380859375,-0.007794027682393789,0.12983384728431702,0.003147588111460209
1761379915984768000,3.41476806640625,0.00626186840236187,0.031375955790281296,0.03622224181890488
1761379915994805800,3.4248056640625,0.007311064284294844,-0.05235987529158592,0.09349501878023148
1761379916004830700,3.434830810546875,-0.017186829820275307,-0.08426875621080399,0.14129172265529633
1761379916014850300,3.444850341796875,-0.04171803221106529,-0.07306068390607834,0.15631355345249176
1761379916024872400,3.45487255859375,-0.05875497683882713,-0.04163476079702377,0.14532198011875153
1761379916034908000,3.464907958984375,-0.07495922595262527,0.016137633472681046,0.11845922470092773
1761379916044917000,3.4749169921875,-0.08869870007038116,0.09096362441778183,0.10125574469566345
1761379916054959600,3.484959716796875,-0.10949942469596863,0.14402297139167786,0.09924061596393585
1761379916064985300,3.4949853515625,-0.14010930061340332,0.17651472985744476,0.11271362751722336
1761379916074990600,3.504990478515625,-0.1670220047235489,0.18957139551639557,0.13539624214172363
1761379916085036300,3.515036376953125,-0.18134437501430511,0.17256775498390198,0.14685413241386414
1761379916095062300,3.525062255859375,-0.18684016168117523,0.13213208317756653,0.1467542052268982
1761379916105087700,3.535087646484375,-0.18520808219909668,0.0802551656961441,0.14284053444862366
1761379916115101700,3.545101806640625,-0.18261006474494934,0.035672664642333984,0.14137500524520874
1761379916125139500,3.555139404296875,-0.18201053142547607,0.011491194367408752,0.1440562754869461
1761379916135165200,3.565165283203125,-0.18157751858234406,0.0038303982000797987,0.14154154062271118
1761379916145186800,3.575186767578125,-0.17439968883991241,0.019551685079932213,0.1316158026456833
1761379916155216400,3.58521630859375,-0.1571129411458969,0.045898161828517914,0.12010796368122101
1761379916165242000,3.5952421875,-0.13449694216251373,0.07654134929180145,0.11609437316656113
1761379916175264800,3.6052646484375,-0.10558575391769409,0.1051027923822403,0.12213973701000214
1761379916185293000,3.61529296875,-0.07342706620693207,0.10563571751117706,0.1416914165019989
1761379916195323600,3.62532373046875,-0.04225095734000206,0.07522568851709366,0.17693108320236206
1761379916205345300,3.63534521484375,-0.017886294052004814,0.02213303931057453,0.21711695194244385
1761379916215348500,3.645348388671875,0.005495788529515266,-0.04701397195458412,0.24472913146018982
1761379916225395700,3.655395751953125,0.029660604894161224,-0.10030646622180939,0.25397205352783203
1761379916235422200,3.665422119140625,0.0465143546462059,-0.11334647983312607,0.24439606070518494
1761379916245447700,3.67544775390625,0.05597377568483353,-0.09317860007286072,0.2227126657962799
1761379916255466500,3.685466552734375,0.05943778529763222,-0.05965428799390793,0.20252813398838043
1761379916265499100,3.6954990234375,0.055174387991428375,-0.028128445148468018,0.19158652424812317
1761379916275524400,3.7055244140625,0.0412350669503212,-0.015254977159202099,0.18983785808086395
1761379916285550300,3.71555029296875,0.029460757970809937,-0.0230490043759346,0.18892189860343933
1761379916295564500,3.725564453125,0.021383613348007202,-0.037088245153427124,0.1875063180923462
1761379916305601800,3.735601806640625,0.011308001354336739,-0.0386703684926033,0.18492496013641357
1761379916315627800,3.745627685546875,-0.0001332312385784462,-0.03490658476948738,0.1766146570444107
1761379916325623800,3.755623779296875,-0.016504019498825073,-0.037804365158081055,0.15366557240486145
1761379916335667500,3.76566748046875,-0.043433383107185364,-0.040768757462501526,0.11346305161714554
1761379916345704400,3.775704345703125,-0.07346037775278091,-0.03537289425730705,0.05510777235031128
1761379916355730400,3.78573046875,-0.09919065982103348,-0.022366194054484367,-0.013656201772391796
1761379916365756200,3.795756103515625,-0.11422913521528244,0.002964395098388195,-0.08245348185300827
1761379916375782100,3.8057822265625,-0.11679383367300034,0.03167572617530823,-0.14538858830928802
1761379916385796000,3.815796142578125,-0.1050361767411232,0.06413418799638748,-0.184525266289711
1761379916395833600,3.82583349609375,-0.08207044005393982,0.08306967467069626,-0.19260241091251373
1761379916405858600,3.835858642578125,-0.06356795132160187,0.07002966850996017,-0.17336714267730713
1761379916415884800,3.845884765625,-0.04409953951835632,0.036805130541324615,-0.13351435959339142
1761379916425905700,3.85590576171875,-0.02374846860766411,-0.0053625572472810745,-0.0843520313501358
1761379916435935700,3.865935791015625,-0.011141462251543999,-0.04275057464838028,-0.03965294733643532
1761379916445961200,3.875961181640625,-0.0021816615480929613,-0.06308498978614807,-0.0103087667375803
1761379916455982800,3.88598291015625,0.011707695201039314,-0.059471093118190765,0.010358728468418121
1761379916466012700,3.8960126953125,0.03227526694536209,-0.04275057464838028,0.026030052453279495
1761379916476038700,3.90603857421875,0.052376531064510345,-0.024114854633808136,0.040435679256916046
1761379916486064600,3.916064697265625,0.06353464722633362,-0.019934723153710365,0.05164375901222229
1761379916496079400,3.926079345703125,0.06506680697202682,-0.024697741493582726,0.06105321645736694
1761379916506115800,3.93611572265625,0.059354517608881,-0.030110260471701622,0.06323487311601639
1761379916516141800,3.946141845703125,0.04904574900865555,-0.03703828528523445,0.05535757914185524
1761379916526167300,3.956167236328125,0.033674195408821106,-0.04138495400547981,0.04073544964194298
1761379916536188700,3.966188720703125,0.020900649949908257,-0.039969369769096375,0.02538055181503296
1761379916546218500,3.976218505859375,0.01590447872877121,-0.03314127027988434,0.011591117829084396
1761379916556252400,3.98625244140625,0.01632082648575306,-0.01945176161825657,0.010025650262832642
1761379916566269700,3.996269775390625,0.01945176161825657,0.0026646247133612633,0.028994448482990265
1761379916576295400,4.00629541015625,0.023182235658168793,0.012090735137462616,0.06813112646341324
1761379916586321200,4.016321044921875,0.02501416578888893,0.006311830133199692,0.11244716495275497
1761379916596335600,4.026335693359375,0.024414625018835068,-0.017819678410887718,0.14900249242782593
1761379916606359000,4.036359130859375,0.012906775809824467,-0.06848085671663284,0.18704000115394592
1761379916616398000,4.046398193359375,-0.027445634827017784,-0.08791596442461014,0.2270093709230423
1761379916626423800,4.056423828125,-0.027545558288693428,-0.09702564775943756,0.2526896893978119
1761379916636449500,4.066449462890625,-0.0010158881777897477,-0.11637748777866364,0.2456950545310974
1761379916646467300,4.07646728515625,0.015837863087654114,-0.09304536879062653,0.2172335386276245
1761379916656490000,4.086489990234375,0.025563744828104973,-0.06544984877109528,0.1803617924451828
1761379916666527500,4.096527587890625,0.026363130658864975,-0.06425076723098755,0.13942648470401764
1761379916676541000,4.106541015625,0.025696974247694016,-0.04245080426335335,0.09516040980815887
1761379916686578400,4.116578369140625,0.030626531690359116,-0.029444104060530663,0.05240983888506889
1761379916696604700,4.126604736328125,0.03477335348725319,-0.02053426392376423,0.016054363921284676
1761379916706618400,4.136618408203125,0.04095195233821869,-0.004946209955960512,0.003280819160863757
1761379916716642000,4.14664208984375,0.045698314905166626,-0.003347434801980853,0.0021316998172551394
1761379916726680800,4.156680908203125,0.046147968620061874,-0.01300669927150011,0.005728943273425102
1761379916736693800,4.16669384765625,0.039686255156993866,-0.03227526694536209,0.013856048695743084
1761379916746720300,4.17672021484375,0.028961140662431717,-0.0515105277299881,0.007794027682393789
1761379916756758000,4.186758056640625,0.011074846610426903,-0.0527595691382885,-0.008876531384885311
1761379916766785000,4.196784912109375,-0.014538859017193317,-0.03419046476483345,-0.026146629825234413
1761379916776788200,4.206788330078125,-0.03753790259361267,0.012490428984165192,-0.0316590741276741
1761379916786834700,4.216834716796875,-0.04721381887793541,0.08053828030824661,-0.021700037643313408
1761379916796861400,4.226861328125,-0.04233422502875328,0.13671191036701202,-0.0010991577291861176
1761379916806866200,4.2368662109375,-0.04190122336149216,0.1351630985736847,0.030909648165106773
1761379916816916000,4.246916015625,-0.052543070167303085,0.09702564775943756,0.062318913638591766
1761379916826938600,4.256938720703125,-0.06205245107412338,0.038137443363666534,0.0992739275097847
1761379916836963000,4.266963134765625,-0.06749827414751053,-0.033590927720069885,0.127602219581604
1761379916846978000,4.27697802734375,-0.04551512002944946,-0.07742400467395782,0.13777776062488556
1761379916857015300,4.287015380859375,0.010292112827301025,-0.07172837108373642,0.11652737110853195
1761379916867029500,4.297029541015625,0.07009628415107727,-0.05798889696598053,0.09745865315198898
1761379916877079000,4.3070791015625,0.11158116161823273,-0.04394965618848801,0.07767381519079208
1761379916887081200,4.317081298828125,0.13025018572807312,-0.035922471433877945,0.06461714953184128
1761379916897118000,4.327117919921875,0.13964299857616425,-0.03577258810400963,0.06286849081516266
1761379916907139600,4.3371396484375,0.1368284821510315,-0.0531093031167984,0.06518338620662689
1761379916917140500,4.347140380859375,0.12202315777540207,-0.06994640082120895,0.06918031722307205
1761379916927194600,4.357194580078125,0.11332982033491135,-0.07196152210235596,0.07229460030794144
1761379916937209300,4.367209228515625,0.11094831675291061,-0.06987978518009186,0.06833097338676453
1761379916947246600,4.37724658203125,0.1046864464879036,-0.05942113324999809,0.060603559017181396
1761379916957272000,4.38727197265625,0.09206278622150421,-0.03933652490377426,0.054341692477464676
1761379916967285800,4.39728564453125,0.0794890895485878,-0.02379843033850193,0.054591499269008636
1761379916977317600,4.407317626953125,0.06823104619979858,-0.025164050981402397,0.05522434785962105
1761379916987348700,4.4173486328125,0.05597377568483353,-0.03662193566560745,0.06619927287101746
1761379916997374700,4.427374755859375,0.05027813836932182,-0.04454919695854187,0.07246114313602448
1761379917007389200,4.43738916015625,0.04663093388080597,-0.032425154000520706,0.06586619466543198
1761379917017426400,4.447426513671875,0.0431835763156414,-0.017186829820275307,0.05440830811858177
1761379917027451400,4.457451416015625,0.04947875067591667,-0.003680513007566333,0.04469908028841019
1761379917037471200,4.46747119140625,0.05998736619949341,-0.006145291030406952,0.03895348310470581
1761379917047502600,4.477502685546875,0.07527565211057663,-0.024248085916042328,0.03615562617778778
1761379917057528800,4.48752880859375,0.08266998082399368,-0.043266844004392624,0.040019333362579346
1761379917067542500,4.49754248046875,0.08123774826526642,-0.054208461195230484,0.05034475401043892
1761379917077579800,4.507579833984375,0.07452622056007385,-0.059171322733163834,0.05843855068087578
1761379917087588600,4.517588623046875,0.07124540209770203,-0.055624041706323624,0.05619027465581894
1761379917097632300,4.52763232421875,0.06729842722415924,-0.04433269426226616,0.044565849006175995
1761379917107647500,4.5376474609375,0.05172702670097351,-0.02951071970164776,0.02371516078710556
1761379917117683200,4.54768310546875,0.030293453484773636,-0.020067954435944557,-0.0004163476114626974
1761379917127708700,4.557708740234375,0.014921898953616619,-0.019268568605184555,-0.023565275594592094
1761379917137725000,4.567724853515625,-0.012290582060813904,-0.027112556621432304,-0.026896055787801743
1761379917147760600,4.5777607421875,-0.017553215846419334,-0.023998277261853218,-0.012973391450941563
1761379917157785300,4.587785400390625,-0.003130934201180935,-0.035972435027360916,-0.004046898800879717
1761379917167811800,4.597811767578125,0.006195252761244774,-0.0444992333650589,-0.0022982389200478792
1761379917177825300,4.6078251953125,-0.0021316998172551394,-0.025147397071123123,-0.003663859097287059
1761379917187864000,4.617864013671875,-0.016504019498825073,-0.0156546700745821,-0.0185357965528965
1761379917197889300,4.62788916015625,-0.03640543669462204,0.023315466940402985,-0.05632350593805313
1761379917207914800,4.637914794921875,-0.04688074067234993,0.11324655264616013,-0.10473641008138657
1761379917217928700,4.6479287109375,-0.04571496695280075,0.1940346509218216,-0.15621362626552582
1761379917227965400,4.65796533203125,-0.039386484771966934,0.23873372375965118,-0.19316864013671875
1761379917237973800,4.667973876953125,-0.02116711251437664,0.2614330053329468,-0.20580895245075226
1761379917248017000,4.678016845703125,-0.012590352445840836,0.2570863366127014,-0.19080378115177155
1761379917258023000,4.68802294921875,-0.02701263315975666,0.2109716683626175,-0.14373984932899475
1761379917268075000,4.698074951171875,-0.045731622725725174,0.14122511446475983,-0.09451091289520264
1761379917278094000,4.708093994140625,-0.055257655680179596,0.07107886672019958,-0.05885490030050278
1761379917288119300,4.718119384765625,-0.05925459414720535,0.02011791616678238,-0.03963629528880119
1761379917298146000,4.72814599609375,-0.056673239916563034,-0.003130934201180935,-0.030659839510917664
1761379917308151800,4.73815185546875,-0.04618127644062042,-0.0010325420880690217,-0.02734571136534214
1761379917318197500,4.748197509765625,-0.036172281950712204,0.020967265591025352,-0.025647012516856194
1761379917328222700,4.75822265625,-0.023915007710456848,0.04105187579989433,-0.01925191469490528
1761379917338243800,4.768243896484375,-0.01653732731938362,0.04684743285179138,-0.012290582060813904
1761379917348274200,4.778274169921875,-0.016753828153014183,0.048612747341394424,-0.011224731802940369
1761379917358288600,4.78828857421875,-0.01219065859913826,0.04571496695280075,-0.018569104373455048
1761379917368325600,4.79832568359375,-0.003680513007566333,0.030493300408124924,-0.028528138995170593
1761379917378341600,4.808341552734375,0.003230857430025935,0.01400593388825655,-0.033207885921001434
1761379917388377300,4.81837744140625,0.007077909540385008,0.0007993874605745077,-0.026030052453279495
1761379917398402800,4.82840283203125,0.00464643957093358,-0.014455589465796947,-0.011091500520706177
1761379917408418600,4.83841845703125,0.00016653904458507895,-0.025247320532798767,0.005945444107055664
1761379917418454800,4.848454833984375,0.0019151991000398993,-0.028777947649359703,0.015121745876967907
1761379917428479700,4.858479736328125,0.009492726065218449,-0.02058422565460205,0.015088438056409359
1761379917438514700,4.8685146484375,0.012240620329976082,-0.0074776033870875835,0.011574463918805122
1761379917448519700,4.878519775390625,0.0082436827942729,0.007744065951555967,0.008593414910137653
1761379917458556400,4.888556396484375,0.00634513795375824,0.018169410526752472,0.009842458181083202
1761379917468571100,4.898571044921875,0.004912902135401964,0.015488131903111935,0.008959800936281681
1761379917478608000,4.90860791015625,0.00567898154258728,0.0045631700195372105,0.0044632465578615665
1761379917488633900,4.9186337890625,0.007794027682393789,-0.006994639988988638,-0.002864471636712551
1761379917498659600,4.92865966796875,0.007810681592673063,-0.017436638474464417,-0.00857676099985838
1761379917508659200,4.9386591796875,0.01227392815053463,-0.014355666004121304,-0.015138399787247181
1761379917518700300,4.9487001953125,0.019884763285517693,0.003114280290901661,-0.016970328986644745
1761379917528736800,4.95873681640625,0.027112556621432304,0.022516079246997833,-0.007261102553457022
1761379917538750700,4.968750732421875,0.0238816998898983,0.02468108758330345,0.012706929817795753
1761379917548787700,4.97878759765625,0.0156546700745821,0.010625191032886505,0.03355761989951134
1761379917558814000,4.98881396484375,0.009176301769912243,-0.011091500520706177,0.043316807597875595
1761379917568841700,4.998841796875,0.007960566319525242,-0.027778713032603264,0.037587862461805344
1761379917578866000,5.008865966796875,0.007144525181502104,-0.030110260471701622,0.019468415528535843
1761379917588892700,5.018892578125,0.011008230969309807,-0.019018759950995445,-0.004679747391492128
1761379917598915300,5.028915283203125,0.010974923148751259,-0.004213437903672457,-0.02901110239326954
1761379917608941300,5.03894140625,0.00920960959047079,0.003963629249483347,-0.04286715015769005
1761379917618964200,5.048964111328125,0.004213437903672457,0.005945444107055664,-0.03890352323651314
1761379917628993800,5.058993896484375,0.00023315467115025967,0.007144525181502104,-0.024348009377717972
1761379917639005000,5.0690048828125,0.00011657733557512984,0.007427641656249762,-0.0020983919966965914
1761379917649046300,5.07904638671875,0.003047664649784565,0.002964395098388195,0.018485834822058678
1761379917659070500,5.089070556640625,0.004363323096185923,-0.007727412041276693,0.03657197579741478
1761379917669097000,5.099096923828125,0.005295941606163979,-0.022682618349790573,0.04763016849756241
1761379917679122200,5.1091220703125,-0.0026313168928027153,-0.03777105733752251,0.050744447857141495
1761379917689139200,5.11913916015625,-0.003597243456169963,-0.04270061105489731,0.05214337632060051
1761379917699174100,5.129174072265625,-0.0001332312385784462,-0.04646439477801323,0.04709724336862564
1761379917709187800,5.139187744140625,0.01547147799283266,-0.028245022520422935,0.035089775919914246
1761379917719213600,5.149213623046875,0.021700037643313408,-0.013989279977977276,0.021566806361079216
1761379917729250600,5.15925048828125,0.00874330010265112,-0.014488897286355495,-0.011624425649642944
1761379917739275800,5.16927587890625,0.016437403857707977,-0.005795558914542198,-0.036555320024490356
1761379917749286700,5.17928662109375,0.02563035860657692,0.014289050363004208,-0.05440830811858177
1761379917759327200,5.1893271484375,0.025313936173915863,0.02346535213291645,-0.06515007466077805
1761379917769354200,5.199354248046875,0.0271791722625494,0.021783307194709778,-0.06057025119662285
1761379917779379700,5.209379638671875,0.024497894570231438,0.013539624400436878,-0.04488227516412735
1761379917789395200,5.219395263671875,0.023848392069339752,0.0053459033370018005,-0.02279919572174549
1761379917799430700,5.2294306640625,0.027945252135396004,0.004063552711158991,0.004046898800879717
1761379917809455600,5.23945556640625,0.02654632367193699,0.003114280290901661,0.03052660822868347
1761379917819471600,5.2494716796875,0.025330590084195137,0.0007660796400159597,0.052043452858924866
1761379917829507800,5.2595078125,0.03122607246041298,0.0038470521103590727,0.06889720261096954
1761379917839532500,5.269532470703125,0.03670520707964897,0.0025813551619648933,0.0789395123720169
1761379917849558300,5.279558349609375,0.03577258810400963,-0.006911370437592268,0.07757388800382614
1761379917859585500,5.28958544921875,0.030360069125890732,-0.011957503855228424,0.06390102952718735
1761379917869610000,5.29960986328125,0.02551378309726715,-0.008560107089579105,0.040269140154123306
1761379917879635500,5.309635498046875,0.024614471942186356,-0.0001332312385784462,0.01375612523406744
1761379917889663200,5.319663330078125,0.02571362815797329,0.007094563450664282,-0.003380742622539401
1761379917899687200,5.329687255859375,0.022566040977835655,0.012390505522489548,-0.0020650841761380434
1761379917909713000,5.339712890625,0.019934723153710365,0.01745329238474369,0.025996744632720947
1761379917919728400,5.349728271484375,0.021733345463871956,0.018935490399599075,0.07829000800848007
1761379917929764000,5.35976416015625,0.020317763090133667,0.005545750260353088,0.13283154368400574
1761379917939789600,5.36978955078125,0.01185758039355278,-0.023698506876826286,0.18092802166938782
1761379917949795800,5.3797958984375,-0.008843223564326763,-0.060686830431222916,0.23355436325073242
1761379917959842000,5.389842041015625,-0.015771247446537018,-0.09307867288589478,0.26807790994644165
1761379917969867300,5.3998671875,-0.016670558601617813,-0.11994142085313797,0.26391443610191345
1761379917979893000,5.40989306640625,-0.010924961417913437,-0.15095099806785583,0.2154848724603653
1761379917989910800,5.419910888671875,0.00472970912232995,-0.14165811240673065,0.15456488728523254
1761379917999944400,5.4299443359375,0.026529669761657715,-0.12575364112854004,0.0824701339006424
1761379918009970000,5.439969970703125,0.039602987468242645,-0.11273027956485748,0.018768951296806335
1761379918019984400,5.449984375,0.027279095724225044,-0.06065352261066437,-0.02363189123570919
1761379918030020900,5.460020751953125,0.01845252700150013,-0.012157350778579712,-0.05239318311214447
1761379918040047600,5.470047607421875,0.014105857349932194,0.01450555119663477,-0.06823104619979858
1761379918050072800,5.48007275390625,0.004396630916744471,0.03014356829226017,-0.07244448363780975
1761379918060098000,5.49009814453125,-0.002797855995595455,0.0354728177189827,-0.07029613107442856
1761379918070124000,5.5001240234375,-0.003530627815052867,0.017769716680049896,-0.07112883031368256
1761379918080151300,5.5101513671875,0.0022482771892100573,-0.00662825396284461,-0.07351033389568329
1761379918090175700,5.52017578125,0.011074846610426903,-0.023515313863754272,-0.07227794826030731
1761379918100201500,5.530201416015625,0.016470711678266525,-0.02358192950487137,-0.06841424107551575
1761379918110226400,5.540226318359375,0.02379843033850193,-0.004363323096185923,-0.0631016418337822
1761379918120236300,5.550236328125,0.03690505400300026,0.015854516997933388,-0.0572727769613266
1761379918130282800,5.56028271484375,0.050411369651556015,0.021633422002196312,-0.05537423491477966
1761379918140304100,5.57030419921875,0.056173622608184814,0.02041768655180931,-0.05842189863324165
1761379918150330000,5.580330078125,0.05537423491477966,0.016170941293239594,-0.06155283376574516
1761379918160354800,5.590354736328125,0.047113895416259766,0.0045964778400957584,-0.06525000184774399
1761379918170371800,5.600371826171875,0.03765447810292244,-0.005878828465938568,-0.06798124313354492
1761379918180407000,5.610406982421875,0.030443338677287102,-0.006911370437592268,-0.06245214492082596
1761379918190432300,5.620432373046875,0.017336715012788773,-0.006045367568731308,-0.04466577246785164
1761379918200449500,5.630449462890625,0.0017986217280849814,0.0012323890114203095,-0.02704594098031521
1761379918210472000,5.640471923828125,-0.0072111408226192,0.018186064437031746,-0.012357197701931
1761379918220509400,5.650509521484375,-0.008460183627903461,0.03912002220749855,-0.003497319994494319
1761379918230528800,5.66052880859375,-0.007893950678408146,0.04689739644527435,0.0015155053697526455
1761379918240560600,5.670560546875,-0.008177067153155804,0.04258403554558754,0.006311830133199692
1761379918250580700,5.680580810546875,-0.005579058080911636,0.03390735015273094,0.011724349111318588
1761379918260612400,5.6906123046875,-0.0007327718194574118,0.019218606874346733,0.013872702606022358
1761379918270627800,5.7006279296875,0.0007327718194574118,0.0011824272805824876,0.008759954012930393
1761379918280663300,5.710663330078125,-0.0001498851488577202,-0.006761485245078802,-0.003930321428924799
1761379918290689000,5.72068896484375,0.008193721063435078,-0.0021650076378136873,-0.018718989565968513
1761379918300714800,5.73071484375,0.004829632584005594,-0.0016154287150129676,-0.031792305409908295
1761379918310740700,5.74074072265625,-0.015438170172274113,-0.005662327632308006,-0.04499885067343712
1761379918320766700,5.7507666015625,-0.042517419904470444,-0.005862174555659294,-0.0560237355530262
1761379918330781200,5.76078125,-0.07009628415107727,-0.004263399634510279,-0.06989643722772598
1761379918340818400,5.770818359375,-0.10347071290016174,0.007277756463736296,-0.08040504902601242
1761379918350837000,5.7808369140625,-0.1339806616306305,0.03981948643922806,-0.08420214056968689
1761379918360869600,5.79086962890625,-0.16021056473255157,0.08057159185409546,-0.08158747851848602
1761379918370884600,5.800884521484375,-0.18808920681476593,0.10197185724973679,-0.06982982158660889
1761379918380909600,5.81090966796875,-0.21948181092739105,0.09815811365842819,-0.05665658414363861
1761379918390946600,5.820946533203125,-0.2515905499458313,0.07847320288419724,-0.04967859759926796
1761379918400960500,5.83096044921875,-0.2686108350753784,0.066432423889637,-0.05572396516799927
1761379918410997800,5.840997802734375,-0.269576758146286,0.06486696004867554,-0.07219468057155609
1761379918421019400,5.851019287109375,-0.2688939571380615,0.056506700813770294,-0.09501052647829056
1761379918431049000,5.861049072265625,-0.2656630873680115,0.05532427132129669,-0.11797626316547394
1761379918441075200,5.8710751953125,-0.2561037540435791,0.07652468979358673,-0.13303139805793762
1761379918451088600,5.881088623046875,-0.24384647607803345,0.09864107519388199,-0.13532963395118713
1761379918461126400,5.89112646484375,-0.22862480580806732,0.10898315161466599,-0.12448793649673462
1761379918471151900,5.90115185546875,-0.20554248988628387,0.10415352135896683,-0.09221266955137253
1761379918481165800,5.911165771484375,-0.17861312627792358,0.07873966544866562,-0.04864605516195297
1761379918491203300,5.921203369140625,-0.15038475394248962,0.0415848009288311,-0.008227028883993626
1761379918501229600,5.9312294921875,-0.11805953085422516,0.0015488131903111935,0.023931661620736122
1761379918511254800,5.9412548828125,-0.09119678288698196,-0.04156814515590668,0.047197166830301285
1761379918521281300,5.95128125,-0.07923927903175354,-0.0790727436542511,0.0576891265809536
1761379918531306200,5.96130615234375,-0.07499253004789352,-0.08621726185083389,0.046947356313467026
1761379918541331700,5.971331787109375,-0.07059590518474579,-0.06551646441221237,0.014655436389148235
1761379918551346200,5.98134619140625,-0.06057025119662285,-0.030743109062314034,-0.02538055181503296
1761379918561383000,5.9913828125,-0.04171803221106529,0.002314892830327153,-0.05920463055372238
1761379918571408600,6.00140869140625,-0.015038476325571537,0.02011791616678238,-0.07391002774238586
1761379918581433900,6.011433837890625,0.002331546740606427,0.022183001041412354,-0.062968410551548
1761379918591460000,6.021460205078125,0.0019151991000398993,0.014322358183562756,-0.027245787903666496
1761379918601485000,6.031485107421875,-0.008143759332597256,-0.016054363921284676,0.026363130658864975
1761379918611522300,6.041522216796875,-0.011741003021597862,-0.06340141594409943,0.06991308927536011
1761379918621537800,6.051537841796875,0.002847817726433277,-0.0939946398139,0.08012193441390991
1761379918631563000,6.06156298828125,0.024331355467438698,-0.0824035182595253,0.06858077645301819
1761379918641588700,6.071588623046875,0.030709801241755486,-0.07595846056938171,0.03522300720214844
1761379918651605800,6.081605712890625,0.034456927329301834,-0.07186160236597061,-0.006977986078709364
1761379918661629200,6.091629150390625,0.033840734511613846,-0.012623660266399384,-0.03983613848686218
1761379918671666000,6.101666015625,0.020817380398511887,0.03853713721036911,-0.06483364850282669
1761379918681691600,6.111691650390625,0.00954268779605627,0.06050363555550575,-0.07737404108047485
1761379918691717400,6.12171728515625,-0.000016653904822305776,0.05159379541873932,-0.07665792107582092
1761379918701725200,6.13172509765625,-0.013972626067698002,0.006245214492082596,-0.07809016108512878
1761379918711757800,6.1417578125,-0.020800726488232613,-0.021883230656385422,-0.07276090979576111
