time,seconds_elapsed,z,y,x
1761379872325293000,0.12529296875,0.25563743710517883,-0.24830971658229828,0.11722683906555176
1761379872335304700,0.1353046875,0.2695600986480713,-0.30175209045410156,0.07009628415107727
1761379872345365800,0.14536572265625,0.2597176432609558,-0.3691004812717438,0.03379077464342117
1761379872355377700,0.155377685546875,0.22559379041194916,-0.4526531398296356,0.02191653847694397
1761379872365403000,0.16540283203125,0.18046171963214874,-0.5514107942581177,0.030676493421196938
1761379872375387600,0.1753876953125,0.14462250471115112,-0.6149121522903442,0.05504115670919418
1761379872385457000,0.185456787109375,0.1307831108570099,-0.6228227615356445,0.08826569467782974
1761379872395480300,0.195480224609375,0.13514643907546997,-0.5823037624359131,0.12218970060348511
1761379872405493000,0.205492919921875,0.1422576606273651,-0.4831797480583191,0.16185930371284485
1761379872415511000,0.215510986328125,0.12680283188819885,-0.37434646487236023,0.17768050730228424
1761379872425555500,0.225555419921875,0.08826569467782974,-0.30841365456581116,0.13353100419044495
1761379872435582700,0.235582763671875,0.06003732606768608,-0.27279096841812134,0.042017802596092224
1761379872445587700,0.245587646484375,0.054791346192359924,-0.22707599401474,-0.0432501919567585
1761379872455634700,0.255634765625,0.05564069747924805,-0.1571795493364334,-0.08881527185440063
1761379872465660200,0.26566015625,0.061935871839523315,-0.06042036786675453,-0.09654268622398376
1761379872475685600,0.275685546875,0.07021286338567734,0.022699272260069847,-0.08228694647550583
1761379872485711400,0.28571142578125,0.06378445774316788,0.07142859697341919,-0.05365888029336929
1761379872495737300,0.2957373046875,0.042933765798807144,0.09086370468139648,-0.019801493734121323
1761379872505762800,0.3057626953125,0.016354134306311607,0.09529364109039307,-0.00008326952229253948
1761379872515788800,0.315788818359375,-0.005778905004262924,0.06468376517295837,-0.015887824818491936
1761379872525814300,0.325814208984375,-0.022199654951691628,0.014522205106914043,-0.06223564222455025
1761379872535840300,0.33584033203125,-0.025030819699168205,-0.024864280596375465,-0.11021554470062256
1761379872545844500,0.345844482421875,-0.02617993764579296,-0.056140314787626266,-0.14583824574947357
1761379872555892200,0.355892333984375,-0.03184226527810097,-0.07440964877605438,-0.16429077088832855
1761379872565898000,0.36589794921875,-0.03785432502627373,-0.06829766184091568,-0.15596382319927216
1761379872575928000,0.375927978515625,-0.045281969010829926,-0.03941979259252548,-0.13526301085948944
1761379872585969000,0.385968994140625,-0.048029862344264984,0.0021816615480929613,-0.12105723470449448
1761379872595994600,0.39599462890625,-0.04338342323899269,0.02488093450665474,-0.12303905189037323
1761379872606021000,0.406021240234375,-0.023998277261853218,0.015121745876967907,-0.14199119806289673
1761379872616046600,0.416046630859375,0.010641844943165779,0.0013989279977977276,-0.16840428113937378
1761379872626071600,0.426071533203125,0.04479900375008583,-0.020101262256503105,-0.19037078320980072
1761379872636097500,0.43609765625,0.06674885004758835,-0.06145291030406952,-0.20441003143787384
1761379872646123300,0.446123291015625,0.07437633723020554,-0.1012890487909317,-0.1946008801460266
1761379872656150000,0.45614990234375,0.06564969569444656,-0.10118912905454636,-0.1643240749835968
1761379872666175000,0.466175048828125,0.04170137643814087,-0.0625520646572113,-0.13136599957942963
1761379872676200700,0.47620068359375,0.01005895808339119,-0.011591117829084396,-0.11379612982273102
1761379872686228200,0.486228271484375,-0.024181470274925232,0.03269161656498909,-0.1234387457370758
1761379872696252700,0.496252685546875,-0.06410087645053864,0.05828866735100746,-0.16435739398002625
1761379872706269700,0.506269775390625,-0.09466079622507095,0.07051263004541397,-0.221380352973938
1761379872716303400,0.516303466796875,-0.108366958796978,0.08148755878210068,-0.26994314789772034
1761379872726329000,0.5263291015625,-0.11098162084817886,0.09674253314733505,-0.3027513325214386
1761379872736355000,0.53635498046875,-0.11352966725826263,0.1046198308467865,-0.31915542483329773
1761379872746338600,0.546338623046875,-0.12758556008338928,0.09682580083608627,-0.320720911026001
1761379872756386600,0.556386474609375,-0.1471039354801178,0.08458518236875534,-0.31117820739746094
1761379872766432000,0.566431884765625,-0.1653566211462021,0.060936637222766876,-0.295956552028656
1761379872776461300,0.57646142578125,-0.18184398114681244,0.01657063513994217,-0.28085145354270935
1761379872786487600,0.586487548828125,-0.17824673652648926,-0.029111025854945183,-0.25265640020370483
1761379872796490500,0.596490478515625,-0.15269964933395386,-0.05084437131881714,-0.20061293244361877
1761379872806512000,0.60651220703125,-0.12575364112854004,-0.036505360156297684,-0.1396096795797348
1761379872816556300,0.616556396484375,-0.11258039623498917,-0.0014988514594733715,-0.0942777544260025
1761379872826586400,0.62658642578125,-0.10893318802118301,0.029160987585783005,-0.07810681313276291
1761379872836612000,0.636612060546875,-0.10653503239154816,0.0280118677765131,-0.09489394724369049
1761379872846637800,0.646637939453125,-0.0985078439116478,0.017819678410887718,-0.13084973394870758
1761379872856663600,0.65666357421875,-0.09166309237480164,0.019651608541607857,-0.16207580268383026
1761379872866689300,0.666689208984375,-0.09860777109861374,0.03966960310935974,-0.17185164988040924
1761379872876690400,0.6766904296875,-0.12042438238859177,0.08043836057186127,-0.1455884426832199
1761379872886740700,0.68674072265625,-0.1464211344718933,0.1386437565088272,-0.08814911544322968
1761379872896766500,0.696766357421875,-0.1686374396085739,0.19530034065246582,-0.02308231219649315
1761379872906771000,0.70677099609375,-0.18041175603866577,0.2275756150484085,0.022516079246997833
1761379872916818000,0.71681787109375,-0.1806448996067047,0.22487767040729523,0.036255549639463425
1761379872926858800,0.726858642578125,-0.1759818196296692,0.17533230781555176,0.02834494598209858
1761379872936869400,0.736869384765625,-0.16993644833564758,0.0892815813422203,0.009859112091362476
1761379872946887000,0.746886962890625,-0.15997740626335144,-0.003380742622539401,-0.013939318247139454
1761379872956921000,0.756921142578125,-0.14622128009796143,-0.08806584775447845,-0.034673430025577545
1761379872966946000,0.766946044921875,-0.14034245908260345,-0.14080876111984253,-0.05327584221959114
1761379872976951300,0.776951416015625,-0.12418816983699799,-0.1449555903673172,-0.06856412440538406
1761379872986977800,0.786977783203125,-0.0896979346871376,-0.11587786674499512,-0.08588418364524841
1761379872997003500,0.79700341796875,-0.04654766246676445,-0.07595846056938171,-0.10192190110683441
1761379873007029200,0.807029296875,-0.012357197701931,-0.04746362939476967,-0.11296343803405762
1761379873017055000,0.817054931640625,0.012540390715003014,-0.04138495400547981,-0.12147358059883118
1761379873027080400,0.82708056640625,0.028994448482990265,-0.058938167989254,-0.12323889881372452
1761379873037095700,0.837095703125,0.045115429908037186,-0.07975555211305618,-0.11249712854623795
1761379873047121000,0.847120849609375,0.06749827414751053,-0.09146324545145035,-0.08944812417030334
1761379873057166600,0.85716650390625,0.09346171468496323,-0.09377814084291458,-0.06111983209848404
1761379873067195000,0.86719482421875,0.11303005367517471,-0.09695903211832047,-0.037471286952495575
1761379873077199400,0.877199462890625,0.11797626316547394,-0.1013556644320488,-0.027662135660648346
1761379873087255600,0.887255615234375,0.10526933521032333,-0.12758556008338928,-0.03807082772254944
1761379873097281000,0.897281005859375,0.08513475954532623,-0.17178502678871155,-0.062352221459150314
1761379873107286000,0.9072861328125,0.05940447747707367,-0.22211313247680664,-0.08998104929924011
1761379873117332700,0.917332763671875,0.039303217083215714,-0.24454593658447266,-0.10062289237976074
1761379873127358500,0.9273583984375,0.03657197579741478,-0.22471113502979279,-0.09950707852840424
1761379873137384200,0.93738427734375,0.05937116965651512,-0.15922798216342926,-0.10222166776657104
1761379873147410400,0.947410400390625,0.09364490956068039,-0.06756488978862762,-0.11526167392730713
1761379873157435600,0.957435546875,0.12208977341651917,0.013539624400436878,-0.12965065240859985
1761379873167464700,0.967464599609375,0.13469678163528442,0.051327332854270935,-0.13403062522411346
1761379873177469000,0.977468994140625,0.12728579342365265,0.052243299782276154,-0.13346439599990845
1761379873187491800,0.987491943359375,0.09900746494531631,0.007960566319525242,-0.146004781126976
1761379873197555000,0.997554931640625,0.06375114619731903,-0.047830015420913696,-0.15534763038158417
1761379873207566600,1.007566650390625,0.03963629528880119,-0.0880991593003273,-0.14427277445793152
1761379873217590000,1.017590087890625,0.025647012516856194,-0.10845022648572922,-0.11104823648929596
1761379873227615500,1.027615478515625,0.0288445632904768,-0.10678483545780182,-0.06042036786675453
1761379873237641200,1.03764111328125,0.04213437810540199,-0.08819907903671265,-0.004313361365348101
1761379873247666700,1.047666748046875,0.05382541939616203,-0.051377296447753906,0.03842055797576904
1761379873257693000,1.05769287109375,0.060603559017181396,-0.01450555119663477,0.050461333245038986
1761379873267718400,1.067718505859375,0.0584552064538002,0.006811446975916624,0.0263464767485857
1761379873277723400,1.077723388671875,0.046231240034103394,0.010158881545066833,-0.0201678778976202
1761379873287770600,1.0877705078125,0.034090545028448105,0.015005168505012989,-0.06621592491865158
1761379873297795600,1.097795654296875,0.0283949077129364,0.024781011044979095,-0.10050631314516068
1761379873307801900,1.1078017578125,0.02529728226363659,0.030926302075386047,-0.11907541751861572
1761379873317847300,1.117847412109375,0.02906106412410736,0.04639777913689613,-0.11421247571706772
1761379873327852500,1.1278525390625,0.04008594900369644,0.06881393492221832,-0.0934450626373291
1761379873337898800,1.137898681640625,0.05214337632060051,0.0869833454489708,-0.07144524902105331
1761379873347893200,1.147893310546875,0.051443912088871,0.08418548852205276,-0.05948774889111519
1761379873357950200,1.1579501953125,0.0316590741276741,0.06868070363998413,-0.0676148533821106
1761379873367976000,1.167975830078125,0.00874330010265112,0.05086102709174156,-0.0946941003203392
1761379873378001700,1.178001708984375,-0.013239854015409946,0.03419046476483345,-0.13811083137989044
1761379873388027100,1.188027099609375,-0.028911178931593895,0.043100304901599884,-0.17360030114650726
1761379873398053000,1.19805322265625,-0.03319123387336731,0.07570865005254745,-0.19371822476387024
1761379873408060700,1.208060791015625,-0.02513074316084385,0.12875133752822876,-0.1916697919368744
1761379873418104600,1.2181044921875,-0.005645673722028732,0.18942151963710785,-0.17798027396202087
1761379873428130600,1.228130615234375,0.016137633472681046,0.22765888273715973,-0.17253445088863373
1761379873438153700,1.23815380859375,0.03862040489912033,0.24732713401317596,-0.17977890372276306
1761379873448183600,1.24818359375,0.05697300657629967,0.2604670822620392,-0.19808153808116913
1761379873458189800,1.25818994140625,0.06884723901748657,0.25760260224342346,-0.228824645280838
1761379873468235000,1.268235107421875,0.08027181774377823,0.24782675504684448,-0.25307273864746094
1761379873478259500,1.278259521484375,0.09391137212514877,0.25468817353248596,-0.257053017616272
1761379873488285200,1.28828515625,0.1137794777750969,0.27307409048080444,-0.23873372375965118
1761379873498310400,1.298310302734375,0.14312365651130676,0.28444868326187134,-0.20629191398620605
1761379873508317200,1.308317138671875,0.16482369601726532,0.27362364530563354,-0.17614835500717163
1761379873518361900,1.31836181640625,0.15887825191020966,0.2476269155740738,-0.16052699089050293
1761379873528387600,1.3283876953125,0.1328815072774887,0.22149693965911865,-0.16132637858390808
1761379873538413300,1.338413330078125,0.08981450647115707,0.18485833704471588,-0.1859908103942871
1761379873548439600,1.348439453125,0.04100191220641136,0.1400260329246521,-0.2235453575849533
1761379873558468600,1.358468505859375,-0.006128637120127678,0.09822472929954529,-0.2532725930213928
1761379873568491800,1.36849169921875,-0.030676493421196938,0.08666691929101944,-0.2558039724826813
1761379873578499800,1.378499755859375,-0.01615428738296032,0.10275459289550781,-0.2259102165699005
1761379873588555000,1.388554931640625,0.024414625018835068,0.120724156498909,-0.17749731242656708
1761379873598555000,1.398554931640625,0.0675482377409935,0.12473774701356888,-0.12438801676034927
1761379873608552000,1.408552001953125,0.09729211032390594,0.12838494777679443,-0.07634150236845016
1761379873618619100,1.418619140625,0.10636848956346512,0.14360661804676056,-0.04175134003162384
1761379873628644900,1.428644775390625,0.09254574775695801,0.1669720560312271,-0.033174578100442886
1761379873638652700,1.438652587890625,0.056140314787626266,0.16968663036823273,-0.05895482376217842
1761379873648695800,1.44869580078125,0.016220903024077415,0.16777144372463226,-0.10495290905237198
1761379873658722300,1.458722412109375,-0.00662825396284461,0.16558977961540222,-0.14457254111766815
1761379873668749600,1.46874951171875,-0.0053292494267225266,0.1784965544939041,-0.16107656061649323
1761379873678795000,1.478794921875,0.02299904264509678,0.18985451757907867,-0.15419849753379822
1761379873688801300,1.48880126953125,0.07299406826496124,0.18427546322345734,-0.1319655478000641
1761379873698804000,1.498803955078125,0.12623660266399384,0.16167610883712769,-0.10730110853910446
1761379873708830000,1.508829833984375,0.16499023139476776,0.1344636231660843,-0.0927455946803093
1761379873718878000,1.5188779296875,0.17992879450321198,0.11895884573459625,-0.09849119186401367
1761379873728903400,1.5289033203125,0.16382446885108948,0.09014758467674255,-0.13104957342147827
1761379873738929400,1.538929443359375,0.12144027650356293,0.056589968502521515,-0.17686447501182556
1761379873748956000,1.548955810546875,0.0716450959444046,0.04889586567878723,-0.22018127143383026
1761379873758982000,1.55898193359375,0.03572262451052666,0.06223564222455025,-0.25425517559051514
1761379873769006800,1.5690068359375,0.03224195912480354,0.09536025673151016,-0.27738744020462036
1761379873779032300,1.5790322265625,0.05202679708600044,0.13028350472450256,-0.2867136299610138
1761379873789058300,1.589058349609375,0.07863973826169968,0.15406526625156403,-0.28391575813293457
1761379873799085000,1.5990849609375,0.10202182084321976,0.15991079807281494,-0.2711588740348816
1761379873809087000,1.6090869140625,0.12300574034452438,0.14347338676452637,-0.25320595502853394
1761379873819132400,1.61913232421875,0.1394764482975006,0.1074676513671875,-0.23558613657951355
1761379873829165600,1.62916552734375,0.13619562983512878,0.07024616748094559,-0.22113054990768433
1761379873839165400,1.63916552734375,0.11619429290294647,0.02851148508489132,-0.21093836426734924
1761379873849215700,1.6492158203125,0.09699234366416931,-0.0007161179091781378,-0.19340179860591888
1761379873859241500,1.659241455078125,0.0894814282655716,0.007077909540385008,-0.16365791857242584
1761379873869264600,1.6692646484375,0.08495157212018967,0.036172281950712204,-0.13381412625312805
1761379873879290000,1.6792900390625,0.07452622056007385,0.08333613723516464,-0.10568568110466003
1761379873889315600,1.689315673828125,0.06358461081981659,0.13999272882938385,-0.08012193441390991
1761379873899342800,1.6993427734375,0.04969525337219238,0.13234858214855194,-0.0720614492893219
1761379873909366300,1.7093662109375,0.03818740323185921,0.07529230415821075,-0.07392667979001999
1761379873919392000,1.71939208984375,0.0350564680993557,0.024064892902970314,-0.06446726620197296
1761379873929417700,1.729417724609375,0.03439031168818474,-0.020051300525665283,-0.040635526180267334
1761379873939449900,1.739449951171875,0.03217534348368645,-0.06238552927970886,-0.007077909540385008
1761379873949477600,1.7494775390625,0.02892783284187317,-0.08793261647224426,0.030110260471701622
1761379873959496400,1.759496337890625,0.023015696555376053,-0.08370252698659897,0.0645671859383583
1761379873969518800,1.769518798828125,0.006911370437592268,-0.07061255723237991,0.08100458979606628
1761379873979569700,1.779569580078125,-0.01292342972010374,-0.06057025119662285,0.07494257390499115
1761379873989559300,1.789559326171875,-0.02041768655180931,-0.06611600518226624,0.046947356313467026
1761379873999598000,1.79959814453125,-0.0075608729384839535,-0.06649903953075409,0.026113322004675865
1761379874009602300,1.809602294921875,0.01870233565568924,-0.0639343410730362,0.030826378613710403
1761379874019650000,1.819650146484375,0.046580970287323,-0.08446860313415527,0.0560237355530262
1761379874029676300,1.82967626953125,0.07009628415107727,-0.11263035982847214,0.09980685263872147
1761379874039679500,1.839679443359375,0.08588418364524841,-0.13501320779323578,0.1545981913805008
1761379874049726500,1.8497265625,0.0863671526312828,-0.15215007960796356,0.1976485401391983
1761379874059752700,1.859752685546875,0.0740099549293518,-0.16643913090229034,0.21726684272289276
1761379874069779200,1.869779296875,0.0522766076028347,-0.177031010389328,0.21078847348690033
1761379874079805200,1.87980517578125,0.027312403544783592,-0.17728081345558167,0.18236026167869568
1761379874089808000,1.889807861328125,0.0038803599309176207,-0.17621496319770813,0.14352335035800934
1761379874099856400,1.8998564453125,-0.018602412194013596,-0.16422416269779205,0.09714222699403763
1761379874109882000,1.909882080078125,-0.02792859822511673,-0.13684514164924622,0.05101091042160988
1761379874119907600,1.919907470703125,-0.026146629825234413,-0.11884226649999619,0.00866003055125475
1761379874129933000,1.92993310546875,-0.022399501875042915,-0.10273794084787369,-0.020734110847115517
1761379874139959000,1.939958984375,-0.01698698289692402,-0.07787366211414337,-0.027229133993387222
1761379874149985000,1.949985107421875,-0.018885528668761253,-0.040768757462501526,-0.01632082648575306
1761379874160011000,1.960010986328125,-0.03094295598566532,-0.009026416577398777,-0.0045298621989786625
1761379874170039600,1.97003955078125,-0.04854613170027733,-0.0021483537275344133,-0.006428407039493322
1761379874180062000,1.98006201171875,-0.07614165544509888,-0.014055895619094372,-0.02341539040207863
1761379874190088000,1.990087890625,-0.10207178443670273,-0.0296772588044405,-0.04275057464838028
1761379874200113700,2.00011376953125,-0.11601109802722931,-0.03807082772254944,-0.05497454106807709
1761379874210164700,2.010164794921875,-0.11091500520706177,-0.04285049811005592,-0.0555407740175724
1761379874220169000,2.0201689453125,-0.08874865621328354,-0.049079056829214096,-0.0456816591322422
1761379874230192400,2.0301923828125,-0.06003732606768608,-0.05589050427079201,-0.030076952651143074
1761379874240220400,2.040220458984375,-0.03577258810400963,-0.05995405837893486,-0.011957503855228424
1761379874250244600,2.05024462890625,-0.022815849632024765,-0.05777239426970482,0.004213437903672457
1761379874260268500,2.0602685546875,-0.021766653284430504,-0.052243299782276154,0.015138399787247181
1761379874270292500,2.07029248046875,-0.02901110239326954,-0.05106087401509285,0.010408690199255943
1761379874280318200,2.080318115234375,-0.037138208746910095,-0.05372549593448639,-0.003697166917845607
1761379874290345500,2.090345458984375,-0.041101835668087006,-0.05239318311214447,-0.019968030974268913
1761379874300371200,2.10037109375,-0.039136677980422974,-0.054874617606401443,-0.03553943336009979
1761379874310397000,2.11039697265625,-0.03182561323046684,-0.0544249601662159,-0.04733039811253548
1761379874320421400,2.12042138671875,-0.019135337322950363,-0.04759686067700386,-0.04180129989981651
1761379874330452000,2.130451904296875,-0.01284016016870737,-0.03488992899656296,-0.02258269488811493
1761379874340497200,2.1404970703125,-0.0168704055249691,-0.017253445461392403,0.002764548175036907
1761379874350496000,2.15049609375,-0.02543051354587078,-0.010425344109535217,0.018985452130436897
1761379874360504600,2.160504638671875,-0.03014356829226017,-0.028461523354053497,0.03344104066491127
1761379874370533000,2.170533203125,-0.023815084248781204,-0.048912517726421356,0.08535125851631165
1761379874380577500,2.18057763671875,-0.0037637825589627028,-0.05818874388933182,0.19293548166751862
1761379874390580000,2.190580078125,0.030076952651143074,-0.06170271709561348,0.34826645255088806
1761379874400627700,2.200627685546875,0.06987978518009186,-0.05349234119057655,0.5139561295509338
1761379874410653000,2.21065283203125,0.10691806674003601,-0.04864605516195297,0.6505348086357117
1761379874420679200,2.22067919921875,0.13069984316825867,-0.04296707361936569,0.737001895904541
1761379874430705200,2.230705078125,0.14262403547763824,-0.03828732669353485,0.7677949666976929
1761379874440731100,2.240731201171875,0.14788667857646942,-0.03733805567026138,0.7468942999839783
1761379874450756600,2.250756591796875,0.1488359421491623,-0.03502316027879715,0.6885557174682617
1761379874460781600,2.260781494140625,0.14763686060905457,-0.04726378247141838,0.6069515347480774
1761379874470785500,2.27078564453125,0.14284053444862366,-0.06818109005689621,0.5175367593765259
1761379874480834300,2.280834228515625,0.13366423547267914,-0.08072147518396378,0.43281832337379456
1761379874490859500,2.290859619140625,0.12019123136997223,-0.08793261647224426,0.35124751925468445
1761379874500885800,2.3008857421875,0.10653503239154816,-0.08923162519931793,0.2725411653518677
1761379874510910200,2.31091015625,0.09041404724121094,-0.08213705569505692,0.19769850373268127
1761379874520914400,2.32091455078125,0.07399329543113708,-0.0794224739074707,0.1234387457370758
1761379874530962700,2.330962646484375,0.05945444107055664,-0.08888188749551773,0.0580388568341732
1761379874540965600,2.340965576171875,0.04639777913689613,-0.10232159495353699,0.01966826245188713
1761379874551014700,2.3510146484375,0.03562270104885101,-0.09347836673259735,0.013872702606022358
1761379874561038600,2.36103857421875,0.026279861107468605,-0.08003866672515869,0.0218332689255476
1761379874571045400,2.37104541015625,0.02751225046813488,-0.0630350261926651,0.031292688101530075
1761379874581091300,2.38109130859375,0.04048564285039902,-0.03778770938515663,0.0436665378510952
1761379874591117600,2.39111767578125,0.05713954567909241,-0.010841691866517067,0.05369218811392784
1761379874601143800,2.401143798828125,0.0647004172205925,0.0017486599972471595,0.05497454106807709
1761379874611140000,2.41114013671875,0.06656565517187119,0.004180130083113909,0.049911752343177795
1761379874621195300,2.4211953125,0.06221899017691612,0.003447358263656497,0.043566614389419556
1761379874631222500,2.431222412109375,0.046447739005088806,-0.0115245021879673,0.0280118677765131
1761379874641248500,2.44124853515625,0.021267035976052284,-0.03319123387336731,0.003047664649784565
1761379874651271200,2.451271240234375,0.003713820828124881,-0.04296707361936569,-0.01665390469133854
1761379874661296400,2.46129638671875,-0.002814509905874729,-0.0341571569442749,-0.019718224182724953
1761379874671303000,2.471302978515625,-0.005629019811749458,-0.016687212511897087,-0.015704631805419922
1761379874681351700,2.4813515625,-0.0044632465578615665,-0.00481297867372632,-0.010825037956237793
1761379874691377400,2.49137744140625,0.0005162710440345109,0.002947741188108921,-0.014821975491940975
1761379874701404200,2.501404052734375,-0.002464778022840619,-0.004396630916744471,-0.031875573098659515
1761379874711424800,2.5114248046875,-0.014622128568589687,-0.015804555267095566,-0.05460815504193306
1761379874721457000,2.521456787109375,-0.029127679765224457,-0.025114089250564575,-0.07371018081903458
1761379874731481300,2.5314814453125,-0.04066883400082588,-0.02842821553349495,-0.0880325436592102
1761379874741493000,2.541492919921875,-0.04483231157064438,-0.016220903024077415,-0.08956470340490341
1761379874751505700,2.551505615234375,-0.044116195291280746,-0.0011324655497446656,-0.08375249058008194
1761379874761559300,2.561559326171875,-0.04261734336614609,0.010375382378697395,-0.07962232083082199
1761379874771582000,2.57158203125,-0.03963629528880119,0.011707695201039314,-0.07472606748342514
1761379874781605400,2.58160546875,-0.03395731374621391,0.0021316998172551394,-0.06781470030546188
1761379874791634200,2.59163427734375,-0.028195060789585114,-0.004063552711158991,-0.0531093031167984
1761379874801657000,2.601656982421875,-0.027828674763441086,-0.011541156098246574,-0.03240849822759628
1761379874811683300,2.611683349609375,-0.029627297073602676,-0.025830205529928207,-0.010658498853445053
1761379874821685800,2.621685791015625,-0.028294984251260757,-0.037970904260873795,0.003230857430025935
1761379874831733000,2.63173291015625,-0.018735643476247787,-0.039802830666303635,0.007077909540385008
1761379874841758500,2.641758544921875,-0.0045132082886993885,-0.03773774951696396,-0.0016820443561300635
1761379874851763700,2.651763671875,0.008909839205443859,-0.03683843836188316,-0.019734878093004227
1761379874861812500,2.6618125,0.017303407192230225,-0.02856144681572914,-0.033840734511613846
1761379874871837000,2.6718369140625,0.018236026167869568,-0.019568338990211487,-0.04071879759430885
1761379874881863400,2.681863525390625,0.014105857349932194,-0.021233728155493736,-0.0404023714363575
1761379874891889000,2.691888916015625,0.015071784146130085,-0.02659628540277481,-0.03444027528166771
1761379874901914600,2.70191455078125,0.01875229738652706,-0.03190888091921806,-0.02291577309370041
1761379874911939600,2.711939697265625,0.024781011044979095,-0.035839203745126724,-0.002914433367550373
1761379874921966000,2.721966064453125,0.028411561623215675,-0.03537289425730705,0.024397971108555794
1761379874931991300,2.7319912109375,0.024980857968330383,-0.036089010536670685,0.056306853890419006
1761379874942018000,2.74201806640625,0.012573698535561562,-0.037304747849702835,0.07838992774486542
1761379874952042500,2.75204248046875,-0.002814509905874729,-0.046580970287323,0.0901808962225914
1761379874962068200,2.762068115234375,-0.014388973824679852,-0.051377296447753906,0.0943443700671196
1761379874972094700,2.7720947265625,-0.016553981229662895,-0.044482581317424774,0.09680914878845215
1761379874982112800,2.78211279296875,-0.00799387414008379,-0.026396438479423523,0.10037308186292648
1761379874992146000,2.79214599609375,0.007727412041276693,-0.00841022189706564,0.10168874263763428
1761379875002174700,2.8021748046875,0.022949080914258957,0.0005329249543137848,0.09301205724477768
1761379875012197600,2.81219775390625,0.03222530707716942,-0.007394333835691214,0.07477603107690811
1761379875022201900,2.822201904296875,0.03324119374155998,-0.021949846297502518,0.05527431145310402
1761379875032251000,2.8322509765625,0.02451454848051071,-0.03520635515451431,0.03850382938981056
1761379875042275300,2.842275390625,0.009342840872704983,-0.047147203236818314,0.02213303931057453
1761379875052278300,2.8522783203125,-0.004346669185906649,-0.04862940311431885,0.005745597183704376
1761379875062325800,2.86232568359375,-0.010591883212327957,-0.045281969010829926,-0.014372319914400578
1761379875072351700,2.872351806640625,-0.010342074558138847,-0.03319123387336731,-0.034923236817121506
1761379875082378000,2.8823779296875,-0.0012823506258428097,-0.013056661002337933,-0.04634781554341316
1761379875092402700,2.892402587890625,0.003613897366449237,-0.004912902135401964,-0.051210757344961166
1761379875102429000,2.902428955078125,0.010891653597354889,-0.003613897366449237,-0.039053406566381454
1761379875112459500,2.91245947265625,0.02025114744901657,-0.0014655436389148235,-0.0074776033870875835
1761379875122487300,2.9224873046875,0.02601339854300022,-0.002847817726433277,0.03948640823364258
1761379875132496400,2.932496337890625,0.028328292071819305,-0.018652373924851418,0.09311198443174362
1761379875142509800,2.942509765625,0.025946782901883125,-0.03850382938981056,0.14012596011161804
1761379875152535800,2.952535888671875,0.021150458604097366,-0.05527431145310402,0.1754988431930542
1761379875162583000,2.9625830078125,0.01392266433686018,-0.04884590208530426,0.18775612115859985
1761379875172609300,2.972609375,0.002348200650885701,-0.0420677624642849,0.17253445088863373
1761379875182603300,2.982603271484375,-0.012040773406624794,-0.04196783900260925,0.14012596011161804
1761379875192660200,2.99266015625,-0.02166672982275486,-0.03961963951587677,0.1198248416185379
1761379875202683100,3.00268310546875,-0.020267801359295845,-0.04045233502984047,0.11091500520706177
1761379875212701000,3.012700927734375,-0.003430704353377223,-0.040518950670957565,0.10881661623716354
1761379875222738400,3.022738525390625,0.021700037643313408,-0.034007273614406586,0.1049695611000061
1761379875232743700,3.03274365234375,0.03715486079454422,-0.03635547310113907,0.09189624339342117
1761379875242789000,3.0427890625,0.0341571569442749,-0.04584819823503494,0.06903043389320374
1761379875252816000,3.05281591796875,0.027628827840089798,-0.06746497005224228,0.04171803221106529
1761379875262839800,3.06283984375,0.032092075794935226,-0.06729842722415924,0.03305800259113312
1761379875272866600,3.072866455078125,0.035805895924568176,-0.0440162718296051,0.0460980087518692
1761379875282891800,3.082891845703125,0.04131833836436272,-0.02914433367550373,0.07334379851818085
1761379875292917200,3.092917236328125,0.04713055118918419,-0.015121745876967907,0.09862442314624786
1761379875302943500,3.102943603515625,0.04559839144349098,-0.0003330780891701579,0.11013226956129074
1761379875312969000,3.112968994140625,0.03845386579632759,0.007227794732898474,0.09987346827983856
1761379875322995700,3.12299560546875,0.03144257143139839,-0.008376914076507092,0.07134532928466797
1761379875333020200,3.133020263671875,0.028461523354053497,-0.01292342972010374,0.05615696683526039
1761379875343045600,3.143045654296875,0.026912709698081017,0.0045798239298164845,0.06082006171345711
1761379875353049900,3.1530498046875,0.022899119183421135,0.017386676743626595,0.06994640082120895
1761379875363097900,3.163097900390625,0.013273161835968494,0.024814318865537643,0.07214471697807312
1761379875373123800,3.173123779296875,-0.0003164241788908839,0.03217534348368645,0.06075344607234001
1761379875383129000,3.183129150390625,-0.014205780811607838,0.036671899259090424,0.037054937332868576
1761379875393177600,3.193177490234375,-0.024031585082411766,0.044449273496866226,0.014538859017193317
1761379875403178200,3.20317822265625,-0.029494065791368484,0.04806317016482353,-0.003464012173935771
1761379875413226800,3.213226806640625,-0.02784532867372036,0.030110260471701622,-0.019435107707977295
1761379875423253000,3.2232529296875,-0.016587289050221443,0.007860642857849598,-0.028028521686792374
1761379875433279000,3.233279052734375,-0.003064318560063839,-0.006744831334799528,-0.02842821553349495
1761379875443304200,3.24330419921875,0.004046898800879717,-0.014921898953616619,-0.0288445632904768
1761379875453330200,3.253330078125,0.002931087277829647,-0.013539624400436878,-0.03469008207321167
1761379875463355600,3.263355712890625,-0.0021483537275344133,0.0008493491332046688,-0.044982198625802994
1761379875473381400,3.27338134765625,-0.010092265903949738,0.013789433054625988,-0.06639911979436874
1761379875483406600,3.283406494140625,-0.021133804693818092,0.018019525334239006,-0.10367055982351303
1761379875493432000,3.29343212890625,-0.03064318560063839,0.02133365161716938,-0.1478700190782547
1761379875503458600,3.30345849609375,-0.03900344669818878,0.016470711678266525,-0.2008460909128189
1761379875513485000,3.313485107421875,-0.046647585928440094,0.009825804270803928,-0.25473812222480774
1761379875523509000,3.323509033203125,-0.045898161828517914,0.006278522312641144,-0.2973554730415344
1761379875533535700,3.33353564453125,-0.0399860255420208,0.011907542124390602,-0.305382639169693
1761379875543562000,3.34356201171875,-0.029710566624999046,0.02446458674967289,-0.27598851919174194
1761379875553587500,3.35358740234375,-0.019385145977139473,0.029027756303548813,-0.20960605144500732
1761379875563613400,3.363613525390625,-0.020634187385439873,0.030326761305332184,-0.13782770931720734
1761379875573638700,3.373638671875,-0.02864471636712551,0.034423619508743286,-0.07465945184230804
1761379875583664600,3.38366455078125,-0.03200880438089371,0.030909648165106773,-0.036505360156297684
1761379875593689900,3.39368994140625,-0.03324119374155998,0.012507082894444466,-0.031709033995866776
1761379875603716400,3.40371630859375,-0.03573928028345108,-0.007311064284294844,-0.044482581317424774
1761379875613721000,3.41372119140625,-0.036505360156297684,-0.004146822262555361,-0.06360126286745071
1761379875623767600,3.423767578125,-0.04141826182603836,0.009575995616614819,-0.08528464287519455
1761379875633782000,3.433781982421875,-0.04689739644527435,0.023781776428222656,-0.10898315161466599
1761379875643818800,3.44381884765625,-0.04459915682673454,0.03818740323185921,-0.13063323497772217
1761379875653844700,3.4538447265625,-0.031875573098659515,0.05252641439437866,-0.14858613908290863
1761379875663870700,3.46387060546875,-0.019884763285517693,0.06333480030298233,-0.1615428775548935
1761379875673873400,3.473873291015625,-0.012723583728075027,0.06378445774316788,-0.17250114679336548
1761379875683902000,3.48390185546875,-0.010608537122607231,0.03477335348725319,-0.18096132576465607
1761379875693947600,3.49394775390625,-0.01244046725332737,0.0015155053697526455,-0.17659801244735718
1761379875703950300,3.503950439453125,-0.012723583728075027,-0.021267035976052284,-0.1493189036846161
1761379875713998600,3.51399853515625,-0.0038803599309176207,-0.026812786236405373,-0.0964261069893837
1761379875724025300,3.524025390625,0.005695635452866554,-0.02454785630106926,-0.03698832169175148
1761379875734032400,3.534032470703125,0.014455589465796947,-0.027295749634504318,0.011974157765507698
1761379875744076000,3.544075927734375,0.02363189123570919,-0.02684609405696392,0.04148487746715546
1761379875754102000,3.55410205078125,0.029943721368908882,-0.020983919501304626,0.054375000298023224
1761379875764127700,3.564127685546875,0.027079248800873756,-0.012207312509417534,0.04791328310966492
1761379875774153200,3.5741533203125,0.017669793218374252,-0.0020983919966965914,0.027295749634504318
1761379875784178200,3.58417822265625,0.00592879019677639,0.003097626380622387,-0.002997702918946743
1761379875794205200,3.594205078125,-0.006994639988988638,0.0021483537275344133,-0.03933652490377426
1761379875804231000,3.60423095703125,-0.01425574254244566,0.009309533052146435,-0.06455053389072418
1761379875814221800,3.614221923828125,-0.012174004688858986,0.023448698222637177,-0.0753922238945961
1761379875824282400,3.624282470703125,-0.006511676590889692,0.03360757976770401,-0.07207810133695602
1761379875834295600,3.634295654296875,-0.0005662327748723328,0.03963629528880119,-0.05857178196310997
1761379875844334000,3.644333984375,-0.0021816615480929613,0.02931087277829647,-0.03740467131137848
1761379875854359600,3.654359619140625,-0.015221669338643551,0.008426875807344913,-0.018402565270662308
1761379875864362500,3.664362548828125,-0.03310796245932579,-0.014888591133058071,-0.010125573724508286
1761379875874411800,3.674411865234375,-0.04959532991051674,-0.036338821053504944,-0.02011791616678238
1761379875884437000,3.68443701171875,-0.054375000298023224,-0.04429938644170761,-0.041018567979335785
1761379875894463500,3.69446337890625,-0.04566500708460808,-0.03184226527810097,-0.06298507004976273
1761379875904486700,3.704486572265625,-0.02931087277829647,-0.0218332689255476,-0.0735936090350151
1761379875914514200,3.71451416015625,-0.01342304702848196,-0.008143759332597256,-0.06120309978723526
1761379875924539600,3.72453955078125,0.005062786862254143,0.028827909380197525,-0.02543051354587078
1761379875934542300,3.734542236328125,0.02000133879482746,0.04964528977870941,0.011674387380480766
1761379875944590800,3.7445908203125,0.02479766495525837,0.03543950989842415,0.030093606561422348
1761379875954616800,3.754616943359375,0.019185299053788185,-0.003597243456169963,0.025647012516856194
1761379875964642000,3.76464208984375,0.012490428984165192,-0.0362388975918293,0.006928024347871542
1761379875974668000,3.77466796875,0.011974157765507698,-0.04639777913689613,-0.012040773406624794
1761379875984694300,3.7846943359375,0.010841691866517067,-0.04789663106203079,-0.027562212198972702
1761379875994696700,3.79469677734375,0.01350631657987833,-0.04451588913798332,-0.03247511386871338
1761379876004745000,3.804744873046875,0.02229957841336727,-0.031092841178178787,-0.021716691553592682
1761379876014771000,3.81477099609375,0.03523966297507286,-0.013273161835968494,0.0007161179091781378
1761379876024796400,3.82479638671875,0.04608135297894478,0.009109686128795147,0.02396496944129467
1761379876034801400,3.834801513671875,0.04738035798072815,0.019018759950995445,0.03717151656746864
1761379876044814800,3.84481494140625,0.04011925682425499,0.0010491959983482957,0.029194295406341553
1761379876054873600,3.85487353515625,0.03302469477057457,-0.02667955495417118,0.007977220229804516
1761379876064877000,3.864876953125,0.030360069125890732,-0.059637632220983505,-0.012756891548633575
1761379876074925800,3.87492578125,0.03052660822868347,-0.10152220726013184,-0.03465677425265312
1761379876084951600,3.88495166015625,0.03377411887049675,-0.146004781126976,-0.04856278747320175
1761379876094977000,3.89497705078125,0.0399194099009037,-0.1734171062707901,-0.047030627727508545
1761379876105002500,3.90500244140625,0.04336676746606827,-0.1966826170682907,-0.03142591938376427
1761379876115028000,3.915028076171875,0.04538189247250557,-0.21671725809574127,-0.010825037956237793
1761379876125053400,3.925053466796875,0.04738035798072815,-0.22461120784282684,0.014688744209706783
1761379876135079400,3.935079345703125,0.04591481387615204,-0.22532732784748077,0.050827719271183014
1761379876145106200,3.945106201171875,0.033174578100442886,-0.23482005298137665,0.08165409415960312
1761379876155131400,3.95513134765625,0.018469180911779404,-0.24621133506298065,0.10175535827875137
1761379876165157600,3.96515771484375,0.012507082894444466,-0.23385412991046906,0.12483767420053482
1761379876175160000,3.97516015625,0.009142993949353695,-0.19878101348876953,0.1472538262605667
1761379876185209000,3.985208984375,0.005545750260353088,-0.16339145600795746,0.15991079807281494
1761379876195234600,3.995234619140625,0.006644907873123884,-0.1452386975288391,0.1568964421749115
1761379876205260000,4.005260009765625,0.00737767992541194,-0.13652871549129486,0.13299807906150818
1761379876215285500,4.015285400390625,0.008693338371813297,-0.12938418984413147,0.09033077955245972
1761379876225311000,4.02531103515625,0.010408690199255943,-0.10536925494670868,0.04436600208282471
1761379876235314400,4.035314453125,0.00782733503729105,-0.060220520943403244,0.00592879019677639
1761379876245362700,4.04536279296875,0.0010658499086275697,-0.013572932220995426,-0.014555512927472591
1761379876255365000,4.055365234375,-0.006295176222920418,0.029843797907233238,-0.012723583728075027
1761379876265391000,4.06539111328125,-0.010741768404841423,0.06186925619840622,0.002448124112561345
1761379876275417300,4.075417236328125,-0.013123276643455029,0.07892285287380219,0.013156584464013577
1761379876285443300,4.085443359375,-0.013906010426580906,0.07654134929180145,0.008393567986786366
1761379876295453200,4.095453125,-0.017686447128653526,0.05698966234922409,-0.014155819080770016
1761379876305483800,4.10548388671875,-0.018102794885635376,0.036921706050634384,-0.04296707361936569
1761379876315510300,4.11551025390625,-0.018718989565968513,0.01883556693792343,-0.06833097338676453
1761379876325554200,4.12555419921875,-0.01875229738652706,0.014988514594733715,-0.08350268006324768
1761379876335579600,4.13557958984375,-0.01582120917737484,0.029244257137179375,-0.08420214056968689
1761379876345605000,4.145605224609375,-0.015687977895140648,0.04583154618740082,-0.07291079312562943
1761379876355646500,4.155646484375,-0.01632082648575306,0.06120309978723526,-0.05409188196063042
1761379876365649000,4.16564892578125,-0.01530493889003992,0.07041271030902863,-0.03727144002914429
1761379876375665000,4.175664794921875,-0.014355666004121304,0.07056259363889694,-0.03612231835722923
1761379876385722400,4.185722412109375,-0.013606240041553974,0.0567898154258728,-0.04931221157312393
1761379876395749000,4.1957490234375,-0.01450555119663477,0.036172281950712204,-0.06616596132516861
1761379876405774800,4.20577490234375,-0.01748660020530224,0.01252373680472374,-0.07780704647302628
1761379876415800000,4.215800048828125,-0.022266270592808723,-0.0016653904458507895,-0.0771242305636406
1761379876425826000,4.225825927734375,-0.02759552001953125,-0.006844754796475172,-0.06158614158630371
1761379876435828700,4.235828857421875,-0.03119276463985443,0.0020817380864173174,-0.036721859127283096
1761379876445877800,4.245877685546875,-0.02676282450556755,0.02817840687930584,-0.008476837538182735
1761379876455903200,4.2559033203125,-0.010825037956237793,0.06465046107769012,0.00874330010265112
1761379876465906400,4.265906494140625,0.0026313168928027153,0.10939949750900269,0.004163476172834635
1761379876475954700,4.27595458984375,0.012407159432768822,0.17663131654262543,-0.011624425649642944
1761379876485979400,4.2859794921875,0.018402565270662308,0.19703234732151031,-0.03490658476948738
1761379876496030000,4.296030029296875,0.014572166837751865,0.19789835810661316,-0.05620693042874336
1761379876506031600,4.306031494140625,0.01227392815053463,0.19013762474060059,-0.0597708635032177
1761379876516057600,4.3160576171875,0.015138399787247181,0.17538227140903473,-0.042733918875455856
1761379876526083800,4.326083740234375,0.01665390469133854,0.1548147052526474,-0.02003464661538601
1761379876536108500,4.336108642578125,0.018852220848202705,0.11875899881124496,0.0022982389200478792
1761379876546134500,4.346134521484375,0.014605474658310413,0.06083671376109123,0.029044410213828087
1761379876556159700,4.35615966796875,-0.004979517310857773,-0.01850248873233795,0.05875497683882713
1761379876566185200,4.366185302734375,-0.01983480155467987,-0.06491692364215851,0.0946274846792221
1761379876576211700,4.376211669921875,-0.021799961104989052,-0.07172837108373642,0.1285681426525116
1761379876586237400,4.386237548828125,-0.01773640885949135,-0.05865505337715149,0.1427239626646042
1761379876596263200,4.39626318359375,-0.011041538789868355,-0.036638591438531876,0.12853483855724335
1761379876606288400,4.406288330078125,0.004096860531717539,-0.011541156098246574,0.09269563108682632
1761379876616314600,4.416314697265625,0.019318530336022377,0.017836332321166992,0.052326567471027374
1761379876626341600,4.426341552734375,0.03177564963698387,0.04438265785574913,0.011407924816012383
1761379876636365300,4.436365234375,0.0354728177189827,0.05440830811858177,-0.02588016726076603
1761379876646392000,4.44639208984375,0.034090545028448105,0.05037806183099747,-0.041268374770879745
1761379876656416800,4.456416748046875,0.023765122517943382,0.047030627727508545,-0.033674195408821106
1761379876666426000,4.466426025390625,0.009142993949353695,0.040935296565294266,-0.014272396452724934
1761379876676450300,4.4764501953125,-0.0014988514594733715,0.0432501919567585,0.004196783993393183
1761379876686494500,4.486494384765625,-0.005112748593091965,0.05330915004014969,0.007061255630105734
1761379876696521000,4.49652099609375,-0.0045798239298164845,0.05895482376217842,-0.010775076225399971
1761379876706546200,4.506546142578125,-0.004979517310857773,0.04321688413619995,-0.04759686067700386
1761379876716572200,4.516572265625,-0.0038637060206383467,0.01284016016870737,-0.08456853032112122
1761379876726598100,4.52659814453125,-0.002764548175036907,-0.007943912409245968,-0.09382809698581696
1761379876736623900,4.536623779296875,-0.0019485069205984473,-0.007027947809547186,-0.07522568851709366
1761379876746649600,4.546649658203125,0.002931087277829647,0.0038303982000797987,-0.04358327016234398
1761379876756660000,4.556659912109375,0.006161944940686226,0.01707025244832039,-0.023648545145988464
1761379876766700500,4.566700439453125,0.007344372104853392,0.03603905066847801,-0.022316232323646545
1761379876776725800,4.576725830078125,0.01269027590751648,0.06048698350787163,-0.038970138877630234
1761379876786752300,4.586752197265625,0.016254210844635963,0.06301837414503098,-0.05812212824821472
1761379876796794600,4.596794677734375,0.010658498853445053,0.029860451817512512,-0.06027048081159592
1761379876806804000,4.606803955078125,0.0006828100886195898,-0.026779478415846825,-0.045281969010829926
1761379876816802800,4.616802734375,-0.006578292232006788,-0.10546918213367462,-0.02036772482097149
1761379876826836000,4.6268359375,-0.015338246710598469,-0.16917036473751068,0.01417247299104929
1761379876836881000,4.636880859375,-0.017986217513680458,-0.20935623347759247,0.053159262984991074
1761379876846892500,4.646892578125,-0.017852986231446266,-0.2093895524740219,0.08123774826526642
1761379876856932400,4.656932373046875,-0.01728675328195095,-0.1654232293367386,0.08676684647798538
1761379876866957600,4.66695751953125,-0.01916864514350891,-0.0783066600561142,0.07026282697916031
1761379876876983000,4.676983154296875,-0.02316558174788952,0.03142591938376427,0.03640543669462204
1761379876887009000,4.687009033203125,-0.025280628353357315,0.12075746059417725,-0.009725880809128284
1761379876897035000,4.697034912109375,-0.02513074316084385,0.16295845806598663,-0.052659645676612854
1761379876907060500,4.707060546875,-0.025980090722441673,0.16818778216838837,-0.08050497621297836
1761379876917086700,4.717086669921875,-0.026163283735513687,0.149468794465065,-0.08994773775339127
1761379876927112200,4.7271123046875,-0.03250842168927193,0.08461849391460419,-0.0880325436592102
1761379876937138400,4.737138427734375,-0.04048564285039902,0.005545750260353088,-0.06763150542974472
1761379876947163400,4.747163330078125,-0.05002833157777786,-0.06133633106946945,-0.027961906045675278
1761379876957190400,4.7571904296875,-0.05235987529158592,-0.10077277570962906,0.017103560268878937
1761379876967215400,4.76721533203125,-0.0444992333650589,-0.11840926110744476,0.048279669135808945
1761379876977241300,4.777241455078125,-0.03235853835940361,-0.11228062957525253,0.06090332940220833
1761379876987267300,4.787267333984375,-0.02429804764688015,-0.08744965493679047,0.05094429478049278
1761379876997269800,4.797269775390625,-0.024264739826321602,-0.057839009910821915,0.01665390469133854
1761379877007318500,4.807318603515625,-0.027628827840089798,-0.008676684461534023,-0.034790005534887314
1761379877017344300,4.81734423828125,-0.03125938028097153,0.06363456696271896,-0.09615964442491531
1761379877027361800,4.82736181640625,-0.03452354297041893,0.1345468908548355,-0.1591114103794098
1761379877037396000,4.83739599609375,-0.04346669092774391,0.19100363552570343,-0.21426914632320404
1761379877047420700,4.847420654296875,-0.056639932096004486,0.20239490270614624,-0.2568032145500183
1761379877057447700,4.85744775390625,-0.06343472003936768,0.1791793555021286,-0.2737402319908142
1761379877067472400,4.867472412109375,-0.05760585516691208,0.13119946420192719,-0.24899253249168396
1761379877077498000,4.877498046875,-0.050794411450624466,0.059354517608881,-0.18972128629684448
1761379877087523600,4.887523681640625,-0.04529862105846405,-0.018652373924851418,-0.11306335777044296
1761379877097549300,4.89754931640625,-0.03807082772254944,-0.08623392134904861,-0.03995271772146225
1761379877107576000,4.907576171875,-0.03447358310222626,-0.12380512803792953,0.012140696868300438
1761379877117601300,4.917601318359375,-0.032758232206106186,-0.12375516444444656,0.02951071970164776
1761379877127627300,4.927627197265625,-0.02687940187752247,-0.10230493545532227,0.010575229302048683
1761379877137636900,4.937636962890625,-0.020650841295719147,-0.07469276338815689,-0.03643874451518059
1761379877147679200,4.94767919921875,-0.013939318247139454,-0.03562270104885101,-0.0898311659693718
1761379877157681700,4.957681640625,-0.0018818912794813514,0.0094594182446599,-0.131066232919693
1761379877167707400,4.967707275390625,0.01014222763478756,0.05624023824930191,-0.15015161037445068
1761379877177755600,4.977755615234375,0.015171707607805729,0.08884858340024948,-0.1457882821559906
1761379877187780600,4.987780517578125,0.015138399787247181,0.10040639340877533,-0.1197582259774208
1761379877197798100,4.997798095703125,0.010575229302048683,0.08953139185905457,-0.08526799082756042
1761379877207827700,5.00782763671875,0.00048296325257979333,0.05540754273533821,-0.05942113324999809
1761379877217858600,5.017858642578125,-0.006678215693682432,0.005895482376217842,-0.04253407195210457
1761379877227877000,5.027877197265625,-0.0038970138411968946,-0.03289146348834038,-0.02563035860657692
1761379877237909200,5.0379091796875,0.0011657733703032136,-0.06111983209848404,-0.006428407039493322
1761379877247935200,5.047935302734375,0.007660796400159597,-0.07477603107690811,0.015921132639050484
1761379877257961000,5.0579609375,0.019052067771553993,-0.06103656068444252,0.03219199925661087
1761379877267973400,5.067973388671875,0.034173812717199326,-0.02942745015025139,0.036255549639463425
1761379877278013000,5.078012939453125,0.042484112083911896,0.0001498851488577202,0.02806182950735092
1761379877288038700,5.08803857421875,0.04275057464838028,0.013056661002337933,0.0156546700745821
1761379877298064000,5.09806396484375,0.033590927720069885,-0.0017486599972471595,0.020384378731250763
1761379877308070400,5.1080703125,0.013722817413508892,-0.025164050981402397,0.0399860255420208
1761379877318115800,5.11811572265625,-0.008393567986786366,-0.046780817210674286,0.06515007466077805
1761379877328133000,5.128133056640625,-0.030343415215611458,-0.06073679029941559,0.08595079928636551
1761379877338167300,5.138167236328125,-0.04015256464481354,-0.047113895416259766,0.08425210416316986
1761379877348193300,5.148193359375,-0.03175899758934975,-0.009359494782984257,0.0667821615934372
1761379877358218200,5.15821826171875,-0.016520673409104347,0.0584552064538002,0.04121841490268707
1761379877368244500,5.168244384765625,-0.0053125955164432526,0.12640313804149628,0.004413284827023745
1761379877378247200,5.1782470703125,0.0020484302658587694,0.1675216257572174,-0.04073544964194298
1761379877388296000,5.1882958984375,0.0018652373692020774,0.18547454476356506,-0.08072147518396378
1761379877398322200,5.198322265625,-0.006445060949772596,0.1768145114183426,-0.09674253314733505
1761379877408347100,5.20834716796875,-0.02396496944129467,0.11984150111675262,-0.09397798776626587
1761379877418342100,5.218342041015625,-0.03548946976661682,0.05672319978475571,-0.06976320594549179
1761379877428398600,5.228398681640625,-0.040102601051330566,0.02579689770936966,-0.03928656131029129
1761379877438424800,5.2384248046875,-0.0420677624642849,0.022899119183421135,-0.022449463605880737
1761379877448450000,5.248449951171875,-0.03966960310935974,0.030543262138962746,-0.017086906358599663
1761379877458476000,5.25847607421875,-0.03833729028701782,0.05122740939259529,-0.013139930553734303
1761379877468501800,5.268501708984375,-0.04270061105489731,0.0725444108247757,-0.013056661002337933
1761379877478505200,5.278505126953125,-0.04633116349577904,0.0790727436542511,-0.02667955495417118
1761379877488553700,5.2885537109375,-0.03945310041308403,0.08350268006324768,-0.04451588913798332
1761379877498543900,5.2985439453125,-0.024447932839393616,0.08445195108652115,-0.050461333245038986
1761379877508605200,5.308605224609375,-0.010741768404841423,0.07056259363889694,-0.04409953951835632
1761379877518587000,5.3185869140625,-0.0009492725948803127,0.047030627727508545,-0.01665390469133854
1761379877528655600,5.328655517578125,0.0011324655497446656,0.02654632367193699,0.024198124185204506
1761379877538681600,5.338681640625,-0.005995405837893486,0.015171707607805729,0.05780570209026337
1761379877548669700,5.348669677734375,-0.017719754949212074,0.010691806674003601,0.06934686005115509
1761379877558733000,5.358733154296875,-0.028628062456846237,0.005878828465938568,0.053375765681266785
1761379877568758800,5.3687587890625,-0.03269161656498909,0.009642611257731915,0.017753062769770622
1761379877578784500,5.378784423828125,-0.03240849822759628,0.009043070487678051,-0.01870233565568924
1761379877588810500,5.388810546875,-0.030093606561422348,-0.003647205187007785,-0.030010337010025978
1761379877598813200,5.398813232421875,-0.0350564680993557,-0.017170175909996033,0.006578292232006788
1761379877608861700,5.40886181640625,-0.042683959007263184,-0.02704594098031521,0.07840658724308014
1761379877618887400,5.418887451171875,-0.04446592554450035,-0.023898353800177574,0.15338246524333954
1761379877628913200,5.4289130859375,-0.04311696067452431,-0.006028713658452034,0.21443568170070648
1761379877638939400,5.438939453125,-0.043816424906253815,0.0019318530103191733,0.24133174121379852
1761379877648965400,5.44896533203125,-0.04499885067343712,0.01342304702848196,0.2352031022310257
1761379877658990600,5.458990478515625,-0.04223430156707764,0.0135895861312747,0.20547588169574738
1761379877669015300,5.469015380859375,-0.03590581938624382,0.027162518352270126,0.1675882488489151
1761379877679021800,5.479021728515625,-0.03125938028097153,0.04513208195567131,0.13414719700813293
1761379877689067300,5.4890673828125,-0.03190888091921806,0.05167706683278084,0.09834130853414536
1761379877699075600,5.49907568359375,-0.026995979249477386,0.04303368926048279,0.0564400851726532
1761379877709080800,5.509080810546875,-0.014139165170490742,0.03798755630850792,0.005645673722028732
1761379877719144200,5.519144287109375,-0.0009326186846010387,0.031958844512701035,-0.04488227516412735
1761379877729170200,5.529170166015625,0.004779670853167772,0.006561638321727514,-0.08110451698303223
1761379877739196000,5.53919580078125,0.00832695234566927,-0.004929556045681238,-0.08470176160335541
1761379877749222100,5.54922216796875,0.010825037956237793,0.0013656201772391796,-0.06062021479010582
1761379877759248000,5.559247802734375,0.013040007092058659,0.008709992282092571,-0.02588016726076603
1761379877769272800,5.56927294921875,0.014905245043337345,0.015438170172274113,0.015188361518085003
1761379877779298600,5.579298583984375,0.0045465161092579365,0.004246745724231005,0.0531759187579155
1761379877789324300,5.58932421875,-0.008776607923209667,-0.021100496873259544,0.07445960491895676
1761379877799350300,5.599350341796875,-0.019518377259373665,-0.033257849514484406,0.06729842722415924
1761379877809376000,5.6093759765625,-0.021799961104989052,-0.03560604900121689,0.03192553669214249
1761379877819402500,5.619402587890625,-0.01194084994494915,-0.030260145664215088,-0.014139165170490742
1761379877829427700,5.629427734375,0.015438170172274113,-0.010258805006742477,-0.04246745631098747
1761379877839431000,5.639430908203125,0.04499885067343712,0.021433575078845024,-0.029277564957737923
1761379877849479400,5.6494794921875,0.05898813158273697,0.04534858465194702,0.009759188629686832
1761379877859481000,5.659481201171875,0.05770577862858772,0.06070348247885704,0.06062021479010582
1761379877869530600,5.669530517578125,0.049112364649772644,0.06701531261205673,0.11213073879480362
1761379877879579100,5.6795791015625,0.02734571136534214,0.038637060672044754,0.14961868524551392
1761379877889582600,5.68958251953125,0.006761485245078802,-0.020134570077061653,0.17301741242408752
1761379877899585300,5.699585205078125,-0.012207312509417534,-0.09311198443174362,0.17714758217334747
1761379877909629700,5.709629638671875,-0.027612173929810524,-0.13747797906398773,0.17788036167621613
1761379877919659500,5.719659423828125,-0.03695501387119293,-0.15073449909687042,0.18191060423851013
1761379877929665000,5.7296650390625,-0.037471286952495575,-0.12353866547346115,0.175848588347435
1761379877939711700,5.739711669921875,-0.01678713597357273,-0.03169238194823265,0.1538487672805786
1761379877949736700,5.74973681640625,0.008376914076507092,0.061352986842393875,0.10215505212545395
1761379877959762200,5.75976220703125,0.028794601559638977,0.11043204367160797,0.020550917834043503
1761379877969787100,5.769787109375,0.05064452439546585,0.10801722854375839,-0.05129402503371239
1761379877979814000,5.77981396484375,0.07196152210235596,0.08779938519001007,-0.08791596442461014
1761379877989838800,5.7898388671875,0.08356929570436478,0.058971475809812546,-0.09519372135400772
1761379877999866000,5.7998662109375,0.0856010690331459,0.014455589465796947,-0.08296975493431091
1761379878009882600,5.809882568359375,0.07644142210483551,-0.026946017518639565,-0.07047932595014572
1761379878019890000,5.819889892578125,0.06158614158630371,-0.045814890414476395,-0.06405092030763626
1761379878029942800,5.82994287109375,0.037304747849702835,-0.06981316953897476,-0.0626852959394455
1761379878039949000,5.839948974609375,0.003630551276728511,-0.0865669995546341,-0.053708843886852264
1761379878049994500,5.849994384765625,-0.02451454848051071,-0.055840544402599335,-0.03199215233325958
1761379878060019200,5.860019287109375,-0.0440828874707222,0.005245979875326157,-0.01119142398238182
1761379878070046200,5.870046142578125,-0.05713954567909241,0.04688074067234993,-0.010808384045958519
1761379878080070400,5.8800703125,-0.05940447747707367,0.06230225786566734,-0.02543051354587078
1761379878090096000,5.89009619140625,-0.05620693042874336,0.05877162888646126,-0.04679747298359871
1761379878100123600,5.90012353515625,-0.05172702670097351,0.05494123324751854,-0.0699797049164772
1761379878110148000,5.910148193359375,-0.05097760260105133,0.03965294733643532,-0.09447760134935379
1761379878120174300,5.92017431640625,-0.0650501549243927,0.003563935635611415,-0.11754325777292252
1761379878130199300,5.93019921875,-0.08395233750343323,-0.06058690696954727,-0.13411389291286469
1761379878140225300,5.940225341796875,-0.09036409109830856,-0.06486696004867554,-0.11347971111536026
1761379878150251500,5.95025146484375,-0.08132101595401764,0.007960566319525242,-0.058055512607097626
1761379878160276500,5.9602763671875,-0.069280244410038,0.09477737545967102,-0.003247511340305209
1761379878170302700,5.970302734375,-0.059854134917259216,0.11116481572389603,0.022066423669457436
1761379878180328700,5.98032861328125,-0.055923812091350555,0.0910802036523819,0.01850248873233795
1761379878190354200,5.990354248046875,-0.05793893337249756,0.08083805441856384,0.0003164241788908839
1761379878200379600,6.000379638671875,-0.0671985074877739,0.06901378184556961,-0.03210872784256935
1761379878210384400,6.01038427734375,-0.07624157518148422,0.03720482438802719,-0.07755723595619202
1761379878220431600,6.020431640625,-0.07217802107334137,0.014705398119986057,-0.11093165725469589
1761379878230457000,6.03045703125,-0.057922281324863434,0.007361026015132666,-0.12220635265111923
1761379878240486100,6.040486083984375,-0.03953637182712555,0.013373085297644138,-0.10921631008386612
1761379878250508800,6.0505087890625,-0.015271631069481373,0.03513973951339722,-0.07357694953680038
1761379878260533800,6.06053369140625,0.003946975339204073,0.0354728177189827,-0.03693836182355881
1761379878270560300,6.070560302734375,0.015071784146130085,0.017020290717482567,-0.011308001354336739
1761379878280572400,6.080572509765625,0.016603942960500717,-0.0010658499086275697,0.0010491959983482957
1761379878290612700,6.09061279296875,0.0168704055249691,-0.0022649310994893312,0.010292112827301025
1761379878300638000,6.100637939453125,0.016803789883852005,-0.002414816292002797,0.014638782478868961
1761379878310662400,6.110662353515625,0.01756986975669861,-0.00584552064538002,0.014022587798535824
1761379878320667600,6.120667724609375,0.017636485397815704,-0.006661561783403158,0.015088438056409359
1761379878330713900,6.1307138671875,0.012207312509417534,-0.005029479041695595,0.02454785630106926
1761379878340740000,6.140739990234375,0.010858345776796341,-0.0053125955164432526,0.06534992158412933
1761379878350766000,6.15076611328125,0.012207312509417534,0.005795558914542198,0.14533862471580505
1761379878360751400,6.16075146484375,0.013239854015409946,0.014871937222778797,0.25017496943473816
1761379878370835200,6.170835205078125,0.006228560581803322,0.0017986217280849814,0.3367086350917816
1761379878380842500,6.180842529296875,-0.0003497319994494319,-0.019385145977139473,0.38179075717926025
1761379878390868000,6.190867919921875,-0.01110815443098545,-0.057006314396858215,0.37526243925094604
1761379878400894000,6.20089404296875,-0.020800726488232613,-0.06346803158521652,0.3381575345993042
1761379878410920200,6.210920166015625,-0.02075076475739479,-0.050328101962804794,0.28752967715263367
1761379878420946000,6.22094580078125,-0.01612097956240177,-0.03598908707499504,0.23247185349464417
1761379878430971600,6.2309716796875,-0.012257274240255356,-0.027062594890594482,0.18004536628723145
1761379878440996900,6.240996826171875,-0.018152756616473198,-0.018052833154797554,0.12875133752822876
1761379878451022800,6.25102294921875,-0.032958079129457474,-0.004080206621438265,0.07965562492609024
1761379878461048600,6.261048583984375,-0.043766461312770844,0.0103087667375803,0.029027756303548813
1761379878471074000,6.271073974609375,-0.04576493054628372,0.018335949629545212,-0.015155053697526455
1761379878481100500,6.2811005859375,-0.03660528361797333,0.02141692116856575,-0.04183460772037506
1761379878491121700,6.29112158203125,-0.02438131719827652,0.02571362815797329,-0.050078291445970535
1761379878501152300,6.30115234375,-0.014522205106914043,0.025080781430006027,-0.0407521054148674
1761379878511177200,6.31117724609375,-0.011124808341264725,0.014405627734959126,-0.019851455464959145
1761379878521162000,6.321161865234375,-0.015088438056409359,0.005495788529515266,0.004796324763447046
1761379878531228400,6.331228515625,-0.02191653847694397,0.0019818146247416735,0.02053426392376423
1761379878541210400,6.34121044921875,-0.021350305527448654,-0.0022649310994893312,0.020933957770466805
1761379878551280400,6.3512802734375,-0.01202411949634552,-0.003230857430025935,0.007893950678408146
1761379878561282800,6.36128271484375,-0.0026313168928027153,-0.0015987749211490154,-0.006528330501168966
1761379878571333000,6.3713330078125,-0.002897779457271099,-0.00039969373028725386,-0.021433575078845024
1761379878581362000,6.38136181640625,-0.009692572988569736,-0.006977986078709364,-0.03469008207321167
1761379878591386000,6.39138623046875,-0.015837863087654114,-0.00687806261703372,-0.04608135297894478
1761379878601409500,6.401409423828125,-0.01723679155111313,-0.002348200650885701,-0.054341692477464676
1761379878611435000,6.41143505859375,-0.01665390469133854,-0.004046898800879717,-0.06241883710026741
1761379878621446400,6.4214462890625,-0.01450555119663477,-0.009093032218515873,-0.06355129927396774
1761379878631485200,6.431485107421875,-0.014122511260211468,-0.008809915743768215,-0.0544249601662159
1761379878641512200,6.44151220703125,-0.018885528668761253,-0.0054458267986774445,-0.04155149310827255
1761379878651538400,6.451538330078125,-0.022616002708673477,0.005495788529515266,-0.02696267142891884
1761379878661527000,6.461527099609375,-0.028628062456846237,0.010725114494562149,-0.02263265661895275
1761379878671566600,6.471566650390625,-0.03545616194605827,0.008709992282092571,-0.027478942647576332
1761379878681615400,6.481615478515625,-0.03800421208143234,0.012157350778579712,-0.026246553286910057
1761379878691640000,6.49164013671875,-0.048279669135808945,0.013772779144346714,-0.010775076225399971
1761379878701666800,6.501666748046875,-0.07076244056224823,0.004363323096185923,0.004796324763447046
1761379878711691800,6.51169189453125,-0.090530626475811,-0.01284016016870737,0.015754593536257744
1761379878721717500,6.521717529296875,-0.09789165109395981,-0.03522300720214844,0.03399062156677246
1761379878731743200,6.5317431640625,-0.10188858956098557,-0.06663227081298828,0.047946590930223465
1761379878741768700,6.541768798828125,-0.10203847289085388,-0.11066519469022751,0.05415849760174751
1761379878751794700,6.551794677734375,-0.09076378494501114,-0.1430070847272873,0.05257637798786163
1761379878761820400,6.5618203125,-0.07034609466791153,-0.16802124679088593,0.048779286444187164
1761379878771846400,6.571846435546875,-0.05064452439546585,-0.1869567334651947,0.049661945551633835
1761379878781872000,6.5818720703125,-0.04166806861758232,-0.20031316578388214,0.05252641439437866
1761379878791897900,6.59189794921875,-0.03907006233930588,-0.20342744886875153,0.048579439520835876
1761379878801924400,6.60192431640625,-0.037254784256219864,-0.18940486013889313,0.044399309903383255
1761379878811949300,6.61194921875,-0.03632216528058052,-0.17638149857521057,0.03857044503092766
1761379878821974800,6.621974853515625,-0.03970291092991829,-0.15471477806568146,0.0189188364893198
1761379878832000000,6.632,-0.0415848009288311,-0.1378776729106903,-0.01135796308517456
1761379878842005200,6.642005126953125,-0.03205876797437668,-0.12027449905872345,-0.04738035798072815
1761379878852052500,6.652052490234375,-0.016004402190446854,-0.08766615390777588,-0.07549215108156204
1761379878862077200,6.6620771484375,-0.004829632584005594,-0.0662325769662857,-0.07474272698163986
1761379878872080600,6.67208056640625,-0.0021816615480929613,-0.07284417748451233,-0.04391634836792946
1761379878882129700,6.682129638671875,-0.013489662669599056,-0.06410087645053864,-0.021949846297502518
1761379878892154000,6.692154052734375,-0.01836925745010376,-0.04559839144349098,-0.009725880809128284
1761379878902181000,6.70218115234375,-0.019884763285517693,-0.04656431823968887,-0.011807618662714958
1761379878912207000,6.71220703125,-0.022232962772250175,-0.06348468363285065,-0.013522970490157604
1761379878922231800,6.722231689453125,-0.018236026167869568,-0.09086370468139648,0.0045298621989786625
1761379878932257800,6.7322578125,-0.013706163503229618,-0.09977354109287262,0.023531967774033546
1761379878942283500,6.742283447265625,-0.009842458181083202,-0.08530130237340927,0.02897779457271099
1761379878952308700,6.752308837890625,-0.0018818912794813514,-0.058971475809812546,0.028794601559638977
1761379878962334700,6.762334716796875,0.0018485834589228034,-0.025913475081324577,0.024098200723528862
1761379878972360400,6.7723603515625,0.0021316998172551394,0.007061255630105734,0.025247320532798767
1761379878982386000,6.782385986328125,0.0004163476114626974,0.027562212198972702,0.03224195912480354
1761379878992411400,6.792411376953125,0.0009825803572311997,0.03670520707964897,0.04180129989981651
1761379879002419500,6.80241943359375,0.004629785660654306,0.03490658476948738,0.05335910990834236
1761379879012463900,6.8124638671875,0.004846286494284868,0.017669793218374252,0.060886677354574203
1761379879022489300,6.8224892578125,0.0045298621989786625,-0.0019485069205984473,0.06967993825674057
1761379879032515600,6.832515625,0.00551244243979454,-0.01210738904774189,0.07998870313167572
1761379879042506800,6.8425068359375,0.004046898800879717,-0.018402565270662308,0.09607637673616409
1761379879052550700,6.852550537109375,-0.005778905004262924,-0.025413859635591507,0.11219735443592072
1761379879062592300,6.86259228515625,-0.021483536809682846,-0.03765447810292244,0.13296477496623993
1761379879072618500,6.872618408203125,-0.0333244651556015,-0.051743682473897934,0.1602272242307663
1761379879082643700,6.882643798828125,-0.051327332854270935,-0.05835528299212456,0.18087805807590485
1761379879092669200,6.892669189453125,-0.06433403491973877,-0.04751358926296234,0.1907038688659668
1761379879102695400,6.9026953125,-0.06281852722167969,-0.03274157643318176,0.1899377852678299
1761379879112721400,6.912721435546875,-0.05885490030050278,-0.05240983888506889,0.18144428730010986
1761379879122745900,6.922745849609375,-0.05490792542695999,-0.06679881364107132,0.17150190472602844
1761379879132772000,6.932772216796875,-0.045232005417346954,-0.06728177517652512,0.16122645139694214
1761379879142797000,6.942797119140625,-0.03377411887049675,-0.0716450959444046,0.14159150421619415
1761379879152808700,6.95280859375,-0.02020118571817875,-0.08135432749986649,0.11511179059743881
1761379879162849500,6.962849609375,-0.009226263500750065,-0.08618395775556564,0.08112116903066635
1761379879172865500,6.972865478515625,0.0005162710440345109,-0.07679115235805511,0.047696784138679504
1761379879182901000,6.98290087890625,0.006728177424520254,-0.05952105671167374,0.013123276643455029
1761379879192929800,6.9929296875,0.013389739207923412,-0.028861217200756073,-0.017170175909996033
1761379879202952000,7.002951904296875,0.02404823899269104,0.0076108346693217754,-0.03410719707608223
1761379879212978400,7.012978515625,0.03180895745754242,0.03607235848903656,-0.035422854125499725
1761379879222981400,7.0229814453125,0.03340773284435272,0.04976186901330948,-0.024731049314141273
1761379879233029400,7.033029296875,0.02709590271115303,0.048196401447057724,-0.011208077892661095
1761379879243054800,7.043054931640625,0.018052833154797554,0.03199215233325958,-0.0075941807590425014
1761379879253081000,7.0530810546875,0.010242151096463203,0.01878560520708561,-0.012373851612210274
1761379879263105800,7.063105712890625,0.005629019811749458,0.008709992282092571,-0.01995137706398964
1761379879273132000,7.073132080078125,0.004013590980321169,0.0020484302658587694,-0.02662959322333336
1761379879283158800,7.08315869140625,0.006211906671524048,-0.0001332312385784462,-0.030376723036170006
1761379879293184000,7.09318408203125,0.009692572988569736,0.003497319994494319,-0.021949846297502518
1761379879303210200,7.103210205078125,0.007893950678408146,0.02543051354587078,-0.00016653904458507895
1761379879313234200,7.113234130859375,0.0002997702977154404,0.045115429908037186,0.026529669761657715
1761379879323241700,7.12324169921875,-0.015005168505012989,0.04666424170136452,0.04743032157421112
1761379879333287200,7.133287109375,-0.030743109062314034,0.04479900375008583,0.05302603170275688
1761379879343313700,7.143313720703125,-0.04466577246785164,0.04186791554093361,0.04300038143992424
1761379879353315300,7.1533154296875,-0.05392534285783768,0.041018567979335785,0.03039337694644928
1761379879363363800,7.16336376953125,-0.060853369534015656,0.04959532991051674,0.024447932839393616
1761379879373389800,7.173389892578125,-0.06138629466295242,0.06891385465860367,0.020301109179854393
1761379879383414300,7.183414306640625,-0.053792111575603485,0.0848349928855896,0.010891653597354889
1761379879393424000,7.193423828125,-0.04155149310827255,0.09319525212049484,-0.007111217360943556
1761379879403466500,7.203466552734375,-0.023498659953475,0.09093032032251358,-0.033008038997650146
1761379879413492000,7.213491943359375,-0.006828100886195898,0.07745730876922607,-0.06365122646093369
1761379879423506200,7.223506103515625,0.003347434801980853,0.06684877723455429,-0.08796592801809311
1761379879433545200,7.233545166015625,0.012623660266399384,0.061935871839523315,-0.09720884263515472
1761379879443570200,7.243570068359375,0.019185299053788185,0.05607369914650917,-0.09043070673942566
1761379879453595400,7.253595458984375,0.020017992705106735,0.043066997081041336,-0.06688208132982254
1761379879463621400,7.263621337890625,0.01317323837429285,0.027162518352270126,-0.03177564963698387
1761379879473647600,7.273647705078125,0.0020650841761380434,0.007660796400159597,-0.0006495022680610418
1761379879483673000,7.283673095703125,-0.005695635452866554,-0.006145291030406952,0.02274923399090767
1761379879493697800,7.29369775390625,-0.004230091813951731,-0.006128637120127678,0.04120175912976265
1761379879503724000,7.30372412109375,0.0011657733703032136,0.003480666084215045,0.0523432232439518
1761379879513748500,7.31374853515625,0.00979249645024538,0.013989279977977276,0.05177699029445648
1761379879523754500,7.32375439453125,0.02025114744901657,0.018569104373455048,0.0440162718296051
1761379879533779000,7.333779052734375,0.024348009377717972,0.01761983148753643,0.0283949077129364
1761379879543804200,7.34380419921875,0.02083403430879116,-0.004829632584005594,0.005245979875326157
1761379879553827600,7.35382763671875,0.017086906358599663,-0.02233288623392582,-0.011341309174895287
1761379879563864000,7.363864013671875,0.014289050363004208,-0.023615237325429916,-0.015238323248922825
1761379879573881900,7.3738818359375,0.007794027682393789,-0.019801493734121323,-0.00559571199119091
1761379879583902000,7.38390185546875,-0.0010491959983482957,-0.025980090722441673,0.007977220229804516
1761379879593922600,7.393922607421875,-0.005279287695884705,-0.03349100425839424,0.015338246710598469
1761379879603958000,7.4039580078125,-0.005062786862254143,-0.022432809695601463,0.009159647859632969
1761379879613992700,7.41399267578125,-0.004746363032609224,-0.00592879019677639,-0.010008996352553368
1761379879624018000,7.424017822265625,-0.011874234303832054,-0.008060489781200886,-0.03344104066491127
1761379879634059500,7.4340595703125,-0.021550152450799942,0.0020317763555794954,-0.04333345964550972
1761379879644084700,7.444084716796875,-0.026313168928027153,0.017186829820275307,-0.04175134003162384
1761379879654099700,7.454099609375,-0.02518070489168167,0.020767418667674065,-0.029377488419413567
1761379879664124400,7.46412451171875,-0.017519908025860786,0.010508613660931587,-0.011058192700147629
1761379879674151000,7.47415087890625,-0.004679747391492128,-0.004113514441996813,0.004163476172834635
1761379879684182800,7.484182861328125,0.009842458181083202,-0.016137633472681046,0.013889356516301632
1761379879694212600,7.494212646484375,0.020883996039628983,-0.027828674763441086,0.013456354849040508
1761379879704238300,7.50423828125,0.0230490043759346,-0.030843032523989677,0.008393567986786366
1761379879714263800,7.514263916015625,0.015837863087654114,-0.02997702918946743,-0.0037304747384041548
1761379879724277500,7.524277587890625,0.004629785660654306,-0.020101262256503105,-0.019718224182724953
1761379879734316000,7.53431591796875,-0.0010825038189068437,-0.015721285715699196,-0.029627297073602676
1761379879744341500,7.544341552734375,-0.0010991577291861176,-0.019684916362166405,-0.03190888091921806
1761379879754353400,7.554353515625,0.003314126981422305,-0.02617993764579296,-0.023482006043195724
1761379879764393000,7.56439306640625,0.013572932220995426,-0.021350305527448654,-0.009859112091362476
1761379879774420000,7.574419921875,0.026496361941099167,-0.012723583728075027,0.01102488487958908
1761379879784444700,7.584444580078125,0.03031010739505291,-0.022899119183421135,0.03344104066491127
1761379879794466600,7.594466552734375,0.02479766495525837,-0.033674195408821106,0.04588150605559349
1761379879804496400,7.604496337890625,0.01986810937523842,-0.027728751301765442,0.04213437810540199
1761379879814521600,7.614521484375,0.016004402190446854,-0.030626531690359116,0.04463246464729309
1761379879824536000,7.6245361328125,0.005978751927614212,-0.02822836861014366,0.0638677254319191
1761379879834573000,7.634572998046875,-0.01911868341267109,-0.03728809207677841,0.058222051709890366
1761379879844599000,7.64459912109375,-0.022599348798394203,-0.030959609895944595,0.03842055797576904
1761379879854624500,7.65462451171875,-0.007077909540385008,-0.013456354849040508,0.020883996039628983
1761379879864639000,7.664638916015625,0.00048296325257979333,0.017270099371671677,0.00874330010265112
1761379879874664400,7.67466455078125,0.0013489662669599056,0.06793127954006195,0.0267961323261261
1761379879884690200,7.684690185546875,-0.0020650841761380434,0.06075344607234001,0.058555129915475845
1761379879894728200,7.694728271484375,-0.0038137442898005247,-0.005179364234209061,0.08655034005641937
1761379879904764400,7.704764404296875,-0.004096860531717539,-0.07725746184587479,0.10566902905702591
1761379879914779100,7.714779052734375,0.010491959750652313,-0.15739604830741882,0.10540256649255753
1761379879924805000,7.72480517578125,0.025313936173915863,-0.17778043448925018,0.09049732238054276
1761379879934830800,7.734830810546875,0.041018567979335785,-0.13358096778392792,0.0707457885146141
1761379879944856300,7.744856201171875,0.054924577474594116,-0.07149521261453629,0.03620558977127075
1761379879954882000,7.754882080078125,0.06195252761244774,-0.010175535455346107,-0.007361026015132666
1761379879964896300,7.764896240234375,0.05672319978475571,0.0481797456741333,-0.0531093031167984
1761379879974933200,7.774933349609375,0.042600687593221664,0.0831696018576622,-0.0955934152007103
1761379879984955400,7.784955322265625,0.01678713597357273,0.09209609031677246,-0.12680283188819885
1761379879994985000,7.79498486328125,-0.023148927837610245,0.08415218442678452,-0.13404728472232819
