time,seconds_elapsed,z,y,x
1761379564279387600,0.1223876953125,0.006045367568731308,0.26911044120788574,0.07848985493183136
1761379564289391900,0.132391845703125,-0.013139930553734303,0.13088303804397583,0.15822875499725342
1761379564299439000,0.142439208984375,-0.017586523666977882,-0.03562270104885101,0.2563702166080475
1761379564309435600,0.152435546875,0.002348200650885701,-0.16340811550617218,0.3648037910461426
1761379564319490800,0.16249072265625,0.0238816998898983,-0.2295740842819214,0.4749194085597992
1761379564329499600,0.172499755859375,0.036305513232946396,-0.24892590939998627,0.57359379529953
1761379564339544800,0.182544921875,0.03289146348834038,-0.270809143781662,0.6548648476600647
1761379564349549000,0.192549072265625,0.020883996039628983,-0.35299617052078247,0.7187825441360474
1761379564359597000,0.20259716796875,0.010591883212327957,-0.4530361592769623,0.784548819065094
1761379564369622800,0.212622802734375,0.006661561783403158,-0.5442162752151489,0.8559940457344055
1761379564379648800,0.222648681640625,0.011624425649642944,-0.6028713583946228,0.9191456437110901
1761379564389675300,0.23267529296875,0.043566614389419556,-0.621057391166687,0.9866772294044495
1761379564399701200,0.242701171875,0.08909839391708374,-0.603437602519989,1.049962043762207
1761379564409727500,0.2527275390625,0.12976722419261932,-0.5445826649665833,1.0994741916656494
1761379564419754800,0.262754638671875,0.15741270780563354,-0.3922993838787079,1.1509346961975098
1761379564429778700,0.27277880859375,0.17603176832199097,-0.19551683962345123,1.1770646572113037
1761379564439806000,0.282805908203125,0.197715163230896,-0.04190122336149216,1.1647907495498657
1761379564449831400,0.29283154296875,0.18684016168117523,-0.03364088758826256,1.0865507125854492
1761379564459857700,0.302857666015625,0.1526663452386856,-0.18680685758590698,0.9916067719459534
1761379564469884400,0.312884521484375,0.0951770693063736,-0.41787979006767273,0.9523202180862427
1761379564479884000,0.322884033203125,0.00937614869326353,-0.605419397354126,0.9687243103981018
1761379564489935600,0.332935546875,-0.0841355249285698,-0.6107486486434937,1.0195354223251343
1761379564499964700,0.342964599609375,-0.1432901918888092,-0.44356009364128113,1.0409356355667114
1761379564509967600,0.352967529296875,-0.1464044749736786,-0.21408595144748688,0.940545916557312
1761379564520017700,0.363017578125,-0.10018989443778992,-0.050994258373975754,0.6716852784156799
1761379564530017000,0.37301708984375,-0.045198697596788406,-0.04346669092774391,0.30922970175743103
1761379564540044500,0.38304443359375,-0.022699272260069847,-0.2392999529838562,-0.016087671741843224
1761379564550071600,0.393071533203125,-0.03840390592813492,-0.5017988085746765,-0.18197721242904663
1761379564560096000,0.403095947265625,-0.08082140237092972,-0.630183756351471,-0.1775139719247818
1761379564570122500,0.41312255859375,-0.11939184367656708,-0.5460981726646423,-0.14115849137306213
1761379564580149200,0.423149169921875,-0.06598277390003204,-0.25302278995513916,-0.13744467496871948
1761379564590163200,0.4331630859375,0.14135834574699402,0.1257869452238083,-0.0930953249335289
1761379564600208100,0.4432080078125,0.43623238801956177,0.4280053675174713,0.0324917696416378
1761379564610239200,0.4532392578125,0.7054260969161987,0.4672253131866455,0.19769850373268127
1761379564620267500,0.463267578125,0.8725813627243042,0.23288820683956146,0.3325285315513611
1761379564630282000,0.473281982421875,0.9030579924583435,-0.06971324235200882,0.33227869868278503
1761379564640326000,0.483325927734375,0.7785201072692871,-0.3526797294616699,0.0923292487859726
1761379564650352000,0.49335205078125,0.5312928557395935,-0.5835195183753967,-0.4554176926612854
1761379564660379600,0.503379638671875,0.22707599401474,-0.6844921708106995,-1.2848321199417114
1761379564670404900,0.51340478515625,-0.044149503111839294,-0.6034875512123108,-2.177065134048462
1761379564680430600,0.5234306640625,-0.2578190863132477,-0.28236696124076843,-2.906506061553955
1761379564690434600,0.5334345703125,-0.4070214331150055,0.2501915991306305,-3.3337786197662354
1761379564700483600,0.543483642578125,-0.4850616455078125,0.8945145606994629,-3.3895859718322754
1761379564710510300,0.55351025390625,-0.4749027490615845,1.5061458349227905,-3.0798399448394775
1761379564720513500,0.563513427734375,-0.3855212330818176,1.8706997632980347,-2.4889094829559326
1761379564730561300,0.573561279296875,-0.2626154124736786,1.89283287525177,-1.7559877634048462
1761379564740587000,0.5835869140625,-0.11754325777292252,1.6109155416488647,-0.9716054797172546
1761379564750613200,0.59361328125,0.025896821171045303,1.1402595043182373,-0.2547048330307007
1761379564760641300,0.603641357421875,0.13083307445049286,0.6541486978530884,0.3030844032764435
1761379564770668800,0.613668701171875,0.13972626626491547,0.2438797801733017,0.7606837749481201
1761379564780695000,0.623695068359375,0.15331584215164185,-0.01110815443098545,0.8712490200996399
1761379564790718500,0.633718505859375,0.22134704887866974,-0.06288514286279678,0.7373183369636536
1761379564800726800,0.643726806640625,0.359274685382843,0.13229861855506897,0.552526593208313
1761379564810770200,0.653770263671875,0.5528263449668884,0.4603305757045746,0.4006263315677643
1761379564820795400,0.66379541015625,0.7027115225791931,0.6705028414726257,0.36428752541542053
1761379564830822000,0.67382177734375,0.7836328148841858,0.6450390219688416,0.4782501757144928
1761379564840825900,0.683825927734375,0.7901111841201782,0.35118088126182556,0.7253775000572205
1761379564850875100,0.693875244140625,0.683842658996582,-0.12741902470588684,1.0822373628616333
1761379564860878000,0.703878173828125,0.4842455983161926,-0.6105487942695618,1.4828970432281494
1761379564870930200,0.71393017578125,0.2034107893705368,-0.9930390119552612,1.8095799684524536
1761379564880917000,0.7239169921875,-0.11088170111179352,-1.221280813217163,1.927889347076416
1761379564890981400,0.7339814453125,-0.37024959921836853,-1.2133535146713257,1.7611005306243896
1761379564901006000,0.744006103515625,-0.5156881809234619,-0.8388738632202148,1.40177583694458
1761379564910997500,0.75399755859375,-0.55142742395401,-0.31744009256362915,0.9272727370262146
1761379564921058300,0.764058349609375,-0.5074445009231567,0.347133994102478,0.4813145101070404
1761379564931083500,0.77408349609375,-0.4410453736782074,0.9799657464027405,0.13299807906150818
1761379564941107000,0.78410693359375,-0.4846286177635193,1.1940350532531738,-0.12911772727966309
1761379564951123200,0.794123291015625,-0.6032876968383789,1.2016957998275757,-0.22967399656772614
1761379564961159200,0.8041591796875,-0.7525899410247803,1.0925960540771484,-0.1829930990934372
1761379564971161900,0.814161865234375,-0.8863374590873718,0.7563371062278748,-0.06040371209383011
1761379564981201700,0.82420166015625,-0.8705495595932007,0.22046439349651337,0.14059226214885712
1761379564991218200,0.83421826171875,-0.6062687635421753,-0.08713322877883911,0.5215003490447998
1761379565001263900,0.844263916015625,-0.2243780642747879,-0.1615428775548935,0.9316527247428894
1761379565011290000,0.8542900390625,0.18990448117256165,-0.2761050760746002,1.2381179332733154
1761379565021316400,0.86431640625,0.5554909706115723,-0.1539819985628128,1.3398232460021973
1761379565031341600,0.874341552734375,0.8258338570594788,0.07985547184944153,1.3446528911590576
1761379565041357600,0.884357666015625,0.9317860007286072,0.2198648452758789,1.253922462463379
1761379565051383000,0.894383056640625,0.8128604292869568,0.1299670785665512,1.0469310283660889
1761379565061420800,0.9044208984375,0.5438665747642517,-0.06579957902431488,0.8001701831817627
1761379565071436500,0.9144365234375,0.33411064743995667,-0.2159844934940338,0.5997737050056458
1761379565081453600,0.92445361328125,0.29953712224960327,-0.5270461440086365,0.46279534697532654
1761379565091509800,0.934509765625,0.11001569777727127,-1.2018623352050781,0.1845918744802475
1761379565101528000,0.944528076171875,-0.4114846885204315,-1.9605642557144165,-0.3365088105201721
1761379565111552300,0.95455224609375,-0.8152586221694946,-2.1889891624450684,-0.9275558590888977
1761379565121575700,0.96457568359375,-0.8800755739212036,-1.8567272424697876,-1.3979787826538086
1761379565131601400,0.974601318359375,-0.7290579676628113,-1.0428009033203125,-1.6022388935089111
1761379565141621000,0.98462109375,-0.6070848107337952,-0.010708460584282875,-1.4557011127471924
1761379565151653600,0.994653564453125,-0.5149387121200562,0.7889121174812317,-0.994054913520813
1761379565161659600,1.00465966796875,-0.39060068130493164,1.0436168909072876,-0.4370151162147522
1761379565171717000,1.014717041015625,-0.24835968017578125,0.8486663103103638,-0.019268568605184555
1761379565181735400,1.0247353515625,-0.18968798220157623,0.4367486536502838,0.15068453550338745
1761379565191751000,1.0347509765625,-0.23915007710456848,-0.03147587925195694,0.11099827289581299
1761379565201777400,1.04477734375,-0.3693336546421051,-0.40199196338653564,-0.034839969128370285
1761379565211787800,1.054787841796875,-0.5038971900939941,-0.48669371008872986,-0.15916137397289276
1761379565221844200,1.06484423828125,-0.5739268660545349,-0.1812611073255539,-0.20594218373298645
1761379565231864000,1.074864013671875,-0.5224996209144592,0.33179575204849243,-0.21841596066951752
1761379565241879300,1.08487939453125,-0.27190831303596497,0.769310474395752,-0.17093567550182343
1761379565251915300,1.094915283203125,0.08430206775665283,1.0505449771881104,-0.16007733345031738
1761379565261930500,1.104930419921875,0.4940214455127716,1.0031147003173828,-0.22925765812397003
1761379565271967200,1.11496728515625,0.8726646304130554,0.6330315470695496,-0.3850049674510956
1761379565281992700,1.12499267578125,1.0213173627853394,0.10180532187223434,-0.6587119102478027
1761379565292019000,1.13501904296875,0.9024417996406555,-0.3884190320968628,-0.9223431944847107
1761379565302045700,1.145045654296875,0.5883657932281494,-0.6784467697143555,-1.1071349382400513
1761379565312071700,1.15507177734375,0.17303407192230225,-0.6854580640792847,-1.2265766859054565
1761379565322098200,1.16509814453125,-0.23690178990364075,-0.4681079685688019,-1.3349770307540894
1761379565332123400,1.175123291015625,-0.5386372208595276,-0.11414586007595062,-1.4299209117889404
1761379565342149400,1.1851494140625,-0.6886889338493347,0.2868468463420868,-1.450954794883728
1761379565352181000,1.195180908203125,-0.6976487040519714,0.5902143716812134,-1.325217843055725
1761379565362202000,1.2052021484375,-0.5898979902267456,0.6516672968864441,-1.0090601444244385
1761379565372217900,1.2152177734375,-0.42440810799598694,0.40214183926582336,-0.5370717644691467
1761379565382253800,1.22525390625,-0.30644848942756653,-0.15198352932929993,-0.044449273496866226
1761379565392280800,1.23528076171875,-0.30416691303253174,-0.8954471349716187,0.30181872844696045
1761379565402306000,1.24530615234375,-0.43310144543647766,-1.67206871509552,0.4615796208381653
1761379565412321500,1.255321533203125,-0.6180763840675354,-2.1337316036224365,0.49368834495544434
1761379565422358000,1.26535791015625,-0.7928923964500427,-2.020801544189453,0.4552677869796753
1761379565432366300,1.275366455078125,-0.9048899412155151,-1.551877498626709,0.4147488474845886
1761379565442390800,1.285390869140625,-0.8973124027252197,-0.9565170407295227,0.42678961157798767
1761379565452426800,1.2954267578125,-0.8103956580162048,-0.23591922223567963,0.3459182679653168
1761379565462465800,1.3054658203125,-0.6201913952827454,0.4796491265296936,0.15767917037010193
1761379565472490200,1.315490234375,-0.41281700134277344,0.9530863165855408,-0.09216270595788956
1761379565482507000,1.325507080078125,-0.33417725563049316,1.0759755373001099,-0.34430283308029175
1761379565492530700,1.33553076171875,-0.4119010269641876,0.7846153974533081,-0.5270461440086365
1761379565502563300,1.345563232421875,-0.5905807614326477,0.19266901910305023,-0.6798290610313416
1761379565512593000,1.355593017578125,-0.8705662488937378,-0.5903975963592529,-0.8686843514442444
1761379565522625000,1.365625,-1.1217737197875977,-1.4269065856933594,-1.0401363372802734
1761379565532645000,1.37564501953125,-1.2024118900299072,-2.2036778926849365,-1.025680661201477
1761379565542666000,1.385666015625,-1.1735007762908936,-2.576575517654419,-0.7703596949577332
1761379565552697600,1.395697509765625,-0.9960867166519165,-1.998968243598938,-0.35039815306663513
1761379565562725600,1.4057255859375,-0.712237536907196,-1.0883992910385132,0.2775539755821228
1761379565572753700,1.415753662109375,-0.41171783208847046,-0.3182228207588196,0.9735040068626404
1761379565582757000,1.425757080078125,-0.25627028942108154,0.1533491611480713,1.360807180404663
1761379565592781000,1.435781005859375,-0.1678047478199005,0.2895781099796295,1.3659698963165283
1761379565602846000,1.445845947265625,-0.11298009008169174,0.16897052526474,1.062585711479187
1761379565612843000,1.455843017578125,-0.14782005548477173,-0.11927526444196701,0.5619527101516724
1761379565622879500,1.46587939453125,-0.21794965863227844,-0.4272226095199585,0.033674195408821106
1761379565632906000,1.475906005859375,-0.2552543878555298,-0.6314327716827393,-0.36851760745048523
1761379565642920700,1.485920654296875,-0.1680045872926712,-0.6808615922927856,-0.5370551347732544
1761379565652957400,1.49595751953125,0.03552277758717537,-0.4962197542190552,-0.4490392506122589
1761379565662984200,1.505984130859375,0.29195961356163025,-0.23976626992225647,-0.1639077365398407
1761379565672999700,1.515999755859375,0.5542086362838745,-0.10290447622537613,0.22964069247245789
1761379565683036400,1.526036376953125,0.7856646180152893,-0.09311198443174362,0.619825005531311
1761379565693040400,1.536040283203125,0.9260570406913757,-0.08625057339668274,0.789145290851593
1761379565703078400,1.546078369140625,0.9807151556015015,0.08618395775556564,0.6488527655601501
1761379565713104000,1.556103759765625,0.9804486632347107,0.4854779839515686,0.2628319263458252
1761379565723140000,1.56614013671875,0.9382809996604919,0.9110851883888245,-0.2745562791824341
1761379565733167600,1.576167724609375,0.8705162405967712,1.248376727104187,-0.8791763186454773
1761379565743186400,1.5861865234375,0.8002035021781921,1.5218504667282104,-1.5287951231002808
1761379565753218300,1.59621826171875,0.7210974097251892,1.7963734865188599,-2.221930742263794
1761379565763244800,1.606244873046875,0.6230392456054688,2.108167886734009,-2.9064061641693115
1761379565773265200,1.61626513671875,0.5221831798553467,2.4332354068756104,-3.4398140907287598
1761379565783296000,1.6262958984375,0.4579657316207886,2.714719772338867,-3.6907718181610107
1761379565793323000,1.636322998046875,0.4486062228679657,2.776472330093384,-3.6312341690063477
1761379565803349000,1.646348876953125,0.45365238189697266,2.4535365104675293,-3.3217711448669434
1761379565813377300,1.656377197265625,0.504446804523468,1.9201619625091553,-2.829814910888672
1761379565823403300,1.6664033203125,0.6523334383964539,1.3666694164276123,-2.109766721725464
1761379565833433000,1.67643310546875,0.9235256314277649,0.9278723001480103,-1.1739670038223267
1761379565843442700,1.686442626953125,1.2541389465332031,0.6320157051086426,-0.074143186211586
1761379565853481000,1.69648095703125,1.4586656093597412,0.4976186752319336,1.0268298387527466
1761379565863506700,1.706506591796875,1.421444058418274,0.596992552280426,1.7918102741241455
1761379565873531400,1.716531494140625,1.2265766859054565,0.7276257276535034,2.153449773788452
1761379565883558100,1.72655810546875,0.9753859043121338,0.6912036538124084,2.2266438007354736
1761379565893582800,1.736582763671875,0.6247379183769226,0.586350679397583,2.0198521614074707
1761379565903598300,1.746598388671875,0.2130534052848816,0.4148154556751251,1.656630516052246
1761379565913635000,1.756635009765625,-0.11061523854732513,0.14340677857398987,1.373081088066101
1761379565923661600,1.76666162109375,-0.33980628848075867,-0.15409858524799347,1.2033778429031372
1761379565933687600,1.7766875,-0.4707392752170563,-0.4527696967124939,1.1860411167144775
1761379565943702800,1.786702880859375,-0.5298439860343933,-0.7117046117782593,1.2876466512680054
1761379565953744100,1.796744140625,-0.5244314670562744,-0.9503883719444275,1.4176303148269653
1761379565963771100,1.806771240234375,-0.4206443428993225,-1.1422913074493408,1.5340911149978638
1761379565973778000,1.81677783203125,-0.20775745809078217,-1.2282087802886963,1.6125975847244263
1761379565983820800,1.82682080078125,0.04768012836575508,-1.2132536172866821,1.6402097940444946
1761379565993853000,1.83685302734375,0.2742232084274292,-1.2090401649475098,1.6900382041931152
1761379566003860700,1.84686083984375,0.40339088439941406,-1.1552814245224,1.7840495109558105
1761379566013895700,1.856895751953125,0.3607901930809021,-1.0006998777389526,1.7435638904571533
1761379566023921700,1.866921630859375,0.2580356001853943,-0.8262501955032349,1.5821542739868164
1761379566033948700,1.87694873046875,0.18905512988567352,-0.6660562753677368,1.3914836645126343
1761379566043961600,1.886961669921875,0.15274961292743683,-0.4856944680213928,1.24123215675354
1761379566054000600,1.897000732421875,0.16530665755271912,-0.3340606689453125,1.2235124111175537
1761379566064017700,1.907017578125,0.2823503017425537,-0.29800498485565186,1.2811015844345093
1761379566074039000,1.9170390625,0.46809130907058716,-0.4119509756565094,1.3366256952285767
1761379566084078600,1.92707861328125,0.62312251329422,-0.5699465870857239,1.3845889568328857
1761379566094104800,1.937104736328125,0.632931649684906,-0.7024950385093689,1.3180400133132935
1761379566104109300,1.947109375,0.39976033568382263,-0.8546950221061707,1.1081675291061401
1761379566114156800,1.95715673828125,0.05892151594161987,-1.0932456254959106,0.8544619083404541
1761379566124182800,1.967182861328125,-0.1579289734363556,-1.3725981712341309,0.6324320435523987
1761379566134201000,1.977201171875,-0.20594218373298645,-1.6085174083709717,0.4337009787559509
1761379566144234500,1.987234375,-0.2308231145143509,-1.6925530433654785,0.28759628534317017
1761379566154256100,1.997256103515625,-0.2912101745605469,-1.4968363046646118,0.15756259858608246
1761379566164287000,2.007286865234375,-0.3341273069381714,-0.7853648662567139,-0.16920366883277893
1761379566174302700,2.017302734375,-0.3328116238117218,-0.29099369049072266,-0.769177258014679
1761379566184340200,2.02734033203125,-0.7474772334098816,-0.5565901398658752,-1.3936153650283813
1761379566194354400,2.0373544921875,-1.3711659908294678,-0.16429077088832855,-1.5587888956069946
1761379566204380700,2.047380615234375,-1.5285453796386719,0.6096661686897278,-1.4736207723617554
1761379566214406700,2.05740673828125,-1.1259372234344482,1.131466269493103,-1.3941650390625
1761379566224443100,2.067443115234375,-0.5000501275062561,1.3296977281570435,-1.261966347694397
1761379566234482700,2.077482666015625,0.06843089312314987,1.1161613464355469,-1.0219502449035645
1761379566244493300,2.087493408203125,0.3874531090259552,0.7624323964118958,-0.7163177728652954
1761379566254524200,2.097524169921875,0.5159212946891785,0.4831964075565338,-0.4466743767261505
1761379566264548900,2.107548828125,0.5208008885383606,0.22143031656742096,-0.3053160309791565
1761379566274563300,2.117563232421875,0.390733927488327,0.0345735065639019,-0.2695600986480713
1761379566284612400,2.1276123046875,0.10533595085144043,-0.0074942572973668575,-0.3136596381664276
1761379566294625300,2.137625244140625,-0.2343703955411911,0.0890650823712349,-0.4117511510848999
1761379566304651800,2.14765185546875,-0.4690738916397095,0.23821745812892914,-0.5101757049560547
1761379566314678000,2.157677978515625,-0.5620526075363159,0.2949239909648895,-0.5610034465789795
1761379566324704000,2.1677041015625,-0.5440164804458618,0.2751391530036926,-0.5316759347915649
1761379566334720000,2.177719970703125,-0.40837040543556213,0.20547588169574738,-0.3956468105316162
1761379566344760800,2.1877607421875,-0.21668395400047302,-0.00004996171628590673,-0.19496726989746094
1761379566354779000,2.19777880859375,-0.05987078696489334,-0.24141500890254974,-0.006994639988988638
1761379566364814800,2.20781494140625,-0.0007660796400159597,-0.3458682894706726,0.14728713035583496
1761379566374848800,2.217848876953125,-0.030193530023097992,-0.2523399591445923,0.2758219838142395
1761379566384847600,2.22784765625,-0.10598544776439667,0.045065466314554214,0.37339720129966736
1761379566394886000,2.237885986328125,-0.19137002527713776,0.46879076957702637,0.41478216648101807
1761379566404917000,2.2479169921875,-0.24411293864250183,0.8609402775764465,0.43531641364097595
1761379566414938000,2.257938232421875,-0.23939988017082214,1.062918782234192,0.5220999121665955
1761379566424953300,2.267953369140625,-0.23448698222637177,1.0119411945343018,0.6726845502853394
1761379566434979600,2.2779794921875,-0.2583187222480774,0.7310731410980225,0.8594747185707092
1761379566445022500,2.2880224609375,-0.2997869551181793,0.26364797353744507,1.0430673360824585
1761379566455021300,2.298021240234375,-0.36235564947128296,-0.3022017478942871,1.1798958778381348
1761379566465068000,2.308068115234375,-0.45253655314445496,-0.7612000107765198,1.213853120803833
1761379566475094000,2.318093994140625,-0.48725995421409607,-0.9456753134727478,1.117959976196289
1761379566485120300,2.328120361328125,-0.36470386385917664,-0.8545618057250977,0.9245914816856384
1761379566495146000,2.33814599609375,-0.10498621314764023,-0.5565568208694458,0.6843588948249817
1761379566505172200,2.348172119140625,0.18685680627822876,-0.1608600616455078,0.4399462044239044
1761379566515198200,2.3581982421875,0.3858543336391449,0.18928828835487366,0.2263931781053543
1761379566525224200,2.36822412109375,0.5150219798088074,0.4290378987789154,0.07810681313276291
1761379566535237000,2.378237060546875,0.576807975769043,0.5591049194335938,0.015138399787247181
1761379566545276200,2.388276123046875,0.5505781173706055,0.5653334259986877,0.08791596442461014
1761379566555273200,2.398273193359375,0.43581604957580566,0.43351778388023376,0.2554209530353546
1761379566565341400,2.408341552734375,0.2564701437950134,0.19786503911018372,0.4027913510799408
1761379566575355100,2.418355224609375,0.055674005299806595,-0.04679747298359871,0.48168089985847473
1761379566585380900,2.428380859375,-0.12085738778114319,-0.2131200134754181,0.5067616701126099
1761379566595406600,2.438406494140625,-0.23337116837501526,-0.29370826482772827,0.4749860167503357
1761379566605444400,2.4484443359375,-0.25745272636413574,-0.2709423899650574,0.3603905141353607
1761379566615458600,2.45845849609375,-0.17240121960639954,-0.13006699085235596,0.1993805468082428
1761379566625484800,2.46848486328125,-0.012124042958021164,0.06266864389181137,0.08088801801204681
1761379566635511000,2.478510986328125,0.1381441354751587,0.19296880066394806,0.039186637848615646
1761379566645537000,2.488537109375,0.21578463912010193,0.17456622421741486,0.05657331645488739
1761379566655563000,2.49856298828125,0.22432810068130493,0.0559571199119091,0.08854880928993225
1761379566665589000,2.508589111328125,0.19045405089855194,-0.08463514596223831,0.0777570828795433
1761379566675594200,2.51859423828125,0.14025919139385223,-0.2398495376110077,-0.03615562617778778
1761379566685641500,2.528641357421875,0.1034374013543129,-0.3960631787776947,-0.2811512351036072
1761379566695647000,2.53864697265625,0.09381144493818283,-0.48134779930114746,-0.610365629196167
1761379566705695200,2.5486953125,0.10888323187828064,-0.4719217121601105,-0.9246414303779602
1761379566715698200,2.5586982421875,0.1465543657541275,-0.47162193059921265,-1.1038874387741089
1761379566725745700,2.56874560546875,0.13622894883155823,-0.48572778701782227,-1.0414352416992188
1761379566735752200,2.578752197265625,0.02254938706755638,-0.5477802157402039,-0.7516573667526245
1761379566745797000,2.588797119140625,-0.05502450093626976,-0.7341374158859253,-0.2933085858821869
1761379566755824000,2.59882421875,0.10505282878875732,-1.0374549627304077,0.2007628232240677
1761379566765849600,2.608849609375,0.5156714916229248,-1.3151922225952148,0.6149954199790955
1761379566775862800,2.61886279296875,1.017453670501709,-1.3445863723754883,0.9386640191078186
1761379566785901800,2.62890185546875,1.36342191696167,-1.0601708889007568,1.1424412727355957
1761379566805954800,2.648954833984375,1.2614166736602783,-0.031375955790281296,1.0956437587738037
1761379566815980000,2.65897998046875,1.0136066675186157,0.454668253660202,0.9426943063735962
1761379566826008000,2.669008056640625,0.8170905113220215,0.8205545544624329,0.7469443082809448
1761379566836024600,2.679024658203125,0.6901711225509644,0.9649272561073303,0.39816156029701233
1761379566846058200,2.689058349609375,0.6014391183853149,0.8617729544639587,-0.11194755136966705
1761379566856084000,2.699083984375,0.5098759531974792,0.5782235860824585,-0.5779238343238831
1761379566866110500,2.7091103515625,0.432368665933609,0.21841596066951752,-0.8255507349967957
1761379566876135700,2.7191357421875,0.3805250823497772,-0.0461646243929863,-0.8527299165725708
1761379566886162400,2.729162353515625,0.30216845870018005,-0.13944314420223236,-0.7618662118911743
1761379566896188400,2.7391884765625,0.1296839565038681,-0.049611981958150864,-0.6035374999046326
1761379566906194700,2.749194580078125,-0.051876913756132126,0.12633651494979858,-0.35734283924102783
1761379566916244000,2.759243896484375,-0.1255204826593399,0.2686774432659149,-0.04145156964659691
1761379566926272500,2.7692724609375,-0.11136466264724731,0.3612897992134094,0.2363189160823822
1761379566936272600,2.779272705078125,-0.07947243750095367,0.44316041469573975,0.40748775005340576
1761379566946341400,2.78934130859375,-0.057339392602443695,0.448323130607605,0.4760185480117798
1761379566956348000,2.799347900390625,-0.03185892105102539,0.376977801322937,0.42532408237457275
1761379566966370800,2.809370849609375,-0.005828866735100746,0.2620158791542053,0.22740906476974487
1761379566976397000,2.81939697265625,0.014072549529373646,0.19878101348876953,-0.07156182825565338
1761379566986423000,2.829423095703125,0.023915007710456848,0.2881791591644287,-0.35311275720596313
1761379566996449000,2.839448974609375,0.028611408546566963,0.5216502547264099,-0.5100924372673035
1761379567006475300,2.849475341796875,0.019851455464959145,0.8554278016090393,-0.496652752161026
1761379567016501000,2.8595009765625,0.022149693220853806,1.1835263967514038,-0.3262999653816223
1761379567026527200,2.86952734375,0.029327526688575745,1.3747798204421997,-0.012157350778579712
1761379567036553200,2.87955322265625,-0.030126914381980896,1.276888132095337,0.4100857377052307
1761379567046579500,2.889579345703125,-0.20066289603710175,0.9006431698799133,0.837708055973053
1761379567056605400,2.89960546875,-0.4580323398113251,0.34013935923576355,1.1254541873931885
1761379567066611200,2.909611083984375,-0.7442296743392944,-0.2279086858034134,1.2019456624984741
1761379567076657700,2.91965771484375,-0.9816311001777649,-0.7187991738319397,1.0872001647949219
1761379567086687000,2.92968701171875,-1.1293845176696777,-1.0760420560836792,0.8568600416183472
1761379567096715800,2.9397158203125,-1.169004201889038,-1.2020288705825806,0.5794060230255127
1761379567106715400,2.94971533203125,-1.1022886037826538,-1.056207299232483,0.3064984679222107
1761379567116744200,2.959744140625,-0.9567168951034546,-0.7253941297531128,0.07950574159622192
1761379567126768600,2.9697685546875,-0.7874465584754944,-0.329913854598999,-0.11341309547424316
1761379567136817000,2.97981689453125,-0.623605489730835,0.0005329249543137848,-0.25716960430145264
1761379567146843100,2.989843017578125,-0.50917649269104,0.11089835315942764,-0.3222697079181671
1761379567156867600,2.99986767578125,-0.46829116344451904,-0.0690803974866867,-0.2851148545742035
1761379567166892500,3.009892578125,-0.46919044852256775,-0.39026761054992676,-0.1112813949584961
1761379567176918500,3.01991845703125,-0.45650017261505127,-0.70339435338974,0.17851319909095764
1761379567186934500,3.0299345703125,-0.4130501449108124,-0.9457919001579285,0.48452872037887573
1761379567196962600,3.039962646484375,-0.3333612084388733,-1.037155270576477,0.7239618897438049
1761379567206996000,3.049995849609375,-0.22386178374290466,-0.9112017750740051,0.8333613872528076
1761379567217011500,3.060011474609375,-0.16194257140159607,-0.6412086486816406,0.7974056005477905
1761379567227039000,3.0700390625,-0.20189528167247772,-0.4142325818538666,0.6457384824752808
1761379567237075500,3.080075439453125,-0.28841233253479004,-0.28787940740585327,0.4894416034221649
1761379567247110100,3.090110107421875,-0.3571929633617401,-0.18370921909809113,0.42072761058807373
1761379567257117400,3.100117431640625,-0.36630263924598694,-0.049079056829214096,0.4355662167072296
1761379567267140600,3.110140625,-0.20990581810474396,0.02341539040207863,0.4721381962299347
1761379567277179600,3.1201796875,0.14200784265995026,-0.1321154236793518,0.4409621059894562
1761379567287195100,3.130195068359375,0.5385206937789917,-0.7365022897720337,0.22496095299720764
1761379567297220900,3.140220947265625,0.812460720539093,-1.6964999437332153,-0.15752927958965302
1761379567307258000,3.150258056640625,1.0169707536697388,-2.331113576889038,-0.4330514967441559
1761379567327304200,3.17030419921875,0.9147656559944153,-1.8678853511810303,-0.5846686363220215
1761379567337337300,3.18033740234375,0.38895195722579956,-0.8893185257911682,-0.7863807082176208
1761379567347348700,3.1903486328125,-0.15333250164985657,0.4745196998119354,-1.0079442262649536
1761379567357390000,3.20039013671875,-0.43886369466781616,1.5936954021453857,-1.2359695434570312
1761379567367416300,3.210416259765625,-0.4659762680530548,2.023283004760742,-1.4926562309265137
1761379567377442000,3.220442138671875,-0.36991652846336365,1.7628990411758423,-1.6635918617248535
1761379567387479800,3.230479736328125,-0.15841194987297058,0.9962365627288818,-1.592146635055542
1761379567397493800,3.24049365234375,0.2081238478422165,0.07351033389568329,-1.2475106716156006
1761379567407520300,3.250520263671875,0.5703296065330505,-0.5709125399589539,-0.7702764272689819
1761379567417541000,3.260541015625,0.7823171615600586,-0.6813778877258301,-0.35880836844444275
1761379567427572200,3.270572265625,0.8138096928596497,-0.37950918078422546,-0.18497492372989655
1761379567437598200,3.28059814453125,0.631832480430603,0.14535528421401978,-0.3135264217853546
1761379567447624700,3.290624755859375,0.2929588258266449,0.7810181975364685,-0.6071513891220093
1761379567457646300,3.300646240234375,-0.047030627727508545,1.3911839723587036,-0.9030746221542358
1761379567467652400,3.31065234375,-0.2638145089149475,1.8680351972579956,-1.1315995454788208
1761379567477702700,3.32070263671875,-0.35153061151504517,2.05790638923645,-1.2949576377868652
1761379567487728600,3.330728759765625,-0.3083803653717041,1.88020920753479,-1.3900681734085083
1761379567497754600,3.340754638671875,-0.11591117829084396,1.4142495393753052,-1.3900182247161865
1761379567507780000,3.350780029296875,0.19673258066177368,0.7781703472137451,-1.2293412685394287
1761379567517784800,3.360784912109375,0.5432837009429932,0.13206546008586884,-0.8875032663345337
1761379567527832300,3.370832275390625,0.8048665523529053,-0.381807416677475,-0.41776320338249207
1761379567537858800,3.38085888671875,0.887786328792572,-0.6444061994552612,0.10566902905702591
1761379567547873500,3.39087353515625,0.8058491349220276,-0.6160445809364319,0.5809547901153564
1761379567557911000,3.4009111328125,0.6500851511955261,-0.3677848279476166,0.93904709815979
1761379567567937000,3.41093701171875,0.5099925398826599,-0.041767992079257965,1.1609103679656982
1761379567577963000,3.420962890625,0.4156148433685303,0.2712421417236328,1.2430140972137451
1761379567587990300,3.430990234375,0.3598242700099945,0.5281785726547241,1.1873234510421753
1761379567598015200,3.44101513671875,0.296572744846344,0.744546115398407,1.0355397462844849
1761379567608041200,3.451041259765625,0.1521833837032318,0.8757789134979248,0.8599743247032166
1761379567618048500,3.461048583984375,-0.055340927094221115,0.81232750415802,0.7446460723876953
1761379567628093200,3.47109326171875,-0.19261907041072845,0.4741533100605011,0.7565202713012695
1761379567638117600,3.48111767578125,-0.1738334596157074,-0.09367821365594864,0.8636548519134521
1761379567648146200,3.491146240234375,0.025313936173915863,-0.7355530261993408,0.990074634552002
1761379567658172400,3.50117236328125,0.33610910177230835,-1.277321219444275,1.0707794427871704
1761379567668198100,3.5111982421875,0.6702863574028015,-1.519752025604248,1.0798225402832031
1761379567678225200,3.52122509765625,0.9634950160980225,-1.357593059539795,1.0305436849594116
1761379567688255000,3.5312548828125,1.1499687433242798,-0.853212833404541,0.9134167432785034
1761379567698264300,3.541264404296875,1.186823844909668,-0.17691442370414734,0.7343039512634277
1761379567708301600,3.551301513671875,1.0860011577606201,0.49217283725738525,0.5047298669815063
1761379567718316300,3.56131640625,0.9014425873756409,1.0104091167449951,0.2504247725009918
1761379567728346000,3.57134619140625,0.684725284576416,1.270792841911316,0.025746935978531837
1761379567738381600,3.581381591796875,0.4628619849681854,1.2552380561828613,-0.11969161033630371
1761379567748394500,3.59139453125,0.24892590939998627,0.9816144704818726,-0.16485700011253357
1761379567758431500,3.601431396484375,0.05377545952796936,0.5025482177734375,-0.08498487621545792
1761379567768457500,3.61145751953125,-0.09436102211475372,0.0018152756383642554,0.08923162519931793
1761379567778484000,3.62148388671875,-0.1772974729537964,-0.36970004439353943,0.25876837968826294
1761379567788507400,3.63150732421875,-0.1935516744852066,-0.5460649132728577,0.3167572617530823
1761379567798536400,3.641536376953125,-0.1444726288318634,-0.5399528741836548,0.19498391449451447
1761379567808562200,3.651562255859375,-0.07156182825565338,-0.3101290166378021,-0.10318759083747864
1761379567818588400,3.66158837890625,-0.028994448482990265,0.12105723470449448,-0.497885137796402
1761379567828625400,3.67162548828125,-0.06691539287567139,0.5819041132926941,-0.8548449277877808
1761379567838640600,3.681640625,-0.1900043934583664,0.8302304744720459,-1.0699135065078735
1761379567848658200,3.691658203125,-0.3458016812801361,0.7488095164299011,-1.0543087720870972
1761379567858692600,3.701692626953125,-0.4724379777908325,0.2467276006937027,-0.8014358878135681
1761379567868716500,3.711716552734375,-0.5048797726631165,-0.5680480599403381,-0.386270672082901
1761379567878729200,3.721729248046875,-0.41864585876464844,-1.4225932359695435,-0.02646305412054062
1761379567888770300,3.731770263671875,-0.27320730686187744,-2.0368058681488037,0.0735936090350151
1761379567898797300,3.74179736328125,-0.10631852596998215,-2.1573967933654785,-0.08806584775447845
1761379567908823000,3.751822998046875,0.08401895314455032,-1.7053931951522827,-0.3610899746417999
1761379567918849000,3.76184912109375,0.31126147508621216,-0.8310465216636658,-0.574476420879364
1761379567928875000,3.771875,0.5855513215065002,0.16655570268630981,-0.6428573727607727
1761379567938901800,3.78190185546875,0.8417382836341858,0.9893085360527039,-0.6264532804489136
1761379567948927000,3.791927001953125,1.0434170961380005,1.5434006452560425,-0.6696535348892212
1761379567958953200,3.801953125,1.1419415473937988,1.860440969467163,-0.879076361656189
1761379567968968400,3.811968505859375,1.0741769075393677,1.9836632013320923,-1.24219810962677
1761379567979005400,3.82200537109375,0.852330207824707,1.8671026229858398,-1.6080178022384644
1761379567989031400,3.832031494140625,0.5530261993408203,1.5175703763961792,-1.8696839809417725
1761379567999049700,3.8420498046875,0.22309571504592896,1.0549416542053223,-2.013040781021118
1761379568009083400,3.85208349609375,-0.09277890622615814,0.6492691040039062,-2.035423517227173
1761379568019109400,3.862109375,-0.3151251971721649,0.42004477977752686,-1.9072052240371704
1761379568029124600,3.87212451171875,-0.41401606798171997,0.35472816228866577,-1.6263370513916016
1761379568039161600,3.88216162109375,-0.39644619822502136,0.4191621243953705,-1.2516409158706665
1761379568049187300,3.892187255859375,-0.2987377345561981,0.533807635307312,-0.8636714816093445
1761379568059214600,3.902214599609375,-0.1870899647474289,0.6565635204315186,-0.5126238465309143
1761379568069228500,3.912228515625,-0.10292112827301025,0.7541720867156982,-0.21366959810256958
1761379568079266600,3.9222666015625,-0.054541539400815964,0.744063138961792,0.03817075118422508
1761379568089292300,3.932292236328125,-0.029527373611927032,0.5373382568359375,0.2515072822570801
1761379568099317000,3.94231689453125,0.014772013761103153,0.1611265242099762,0.4586985111236572
1761379568109344500,3.952344482421875,0.07847320288419724,-0.24024923145771027,0.6755989789962769
1761379568119370500,3.96237060546875,0.16715523600578308,-0.47357043623924255,0.8822405934333801
1761379568129373700,3.972373779296875,0.29382485151290894,-0.5445160865783691,1.0352733135223389
1761379568139389700,3.9823896484375,0.45595061779022217,-0.5073944926261902,1.098275065422058
1761379568149427000,3.992427001953125,0.6368619799613953,-0.4005597233772278,1.055790901184082
1761379568159453200,4.002453125,0.8065652847290039,-0.24717725813388824,0.92415851354599
1761379568169478400,4.012478515625,0.9357162714004517,-0.07602507621049881,0.709489643573761
1761379568179502800,4.0225029296875,0.9984848499298096,0.08901511877775192,0.44635796546936035
1761379568189537800,4.032537841796875,0.9829634428024292,0.24244754016399384,0.20359398424625397
1761379568199566600,4.042566650390625,0.9195453524589539,0.37512919306755066,0.04190122336149216
1761379568209605000,4.052605224609375,0.8255007266998291,0.41205090284347534,-0.007794027682393789
1761379568219630300,4.06263037109375,0.6907539963722229,0.39318203926086426,0.05054460093379021
1761379568229629200,4.072629150390625,0.5163043737411499,0.2895447909832001,0.1664724349975586
1761379568239683300,4.082683349609375,0.320854127407074,0.05142725631594658,0.2659628689289093
1761379568249697300,4.092697265625,0.14996841549873352,-0.26418089866638184,0.28757962584495544
1761379568259735000,4.102735107421875,0.02133365161716938,-0.5702130198478699,0.21906545758247375
1761379568269751600,4.11275146484375,-0.05627354606986046,-0.780085563659668,0.1156613677740097
1761379568279787000,4.122787109375,-0.07855647057294846,-0.7813345789909363,0.08605072647333145
1761379568289813500,4.1328134765625,-0.04729709029197693,-0.5658164024353027,0.1699530929327011
1761379568299828000,4.142827880859375,0.017603177577257156,-0.24351339042186737,0.32916441559791565
1761379568309865500,4.152865478515625,0.06709858030080795,0.057422664016485214,0.5287448167800903
1761379568319891700,4.1628916015625,0.10540256649255753,0.24932560324668884,0.7623158097267151
1761379568329917200,4.172917236328125,0.17240121960639954,0.3043501079082489,1.0266965627670288
1761379568339944000,4.18294384765625,0.28584763407707214,0.18614070117473602,1.316624402999878
1761379568349972700,4.19297265625,0.4679913818836212,-0.10939949750900269,1.6169276237487793
1761379568359988700,4.20298876953125,0.684592068195343,-0.5326585173606873,1.7973060607910156
1761379568370022000,4.21302197265625,0.8828734755516052,-1.007644534111023,1.6583125591278076
1761379568380048400,4.22304833984375,1.0240652561187744,-1.3984949588775635,1.0861510038375854
1761379568390073600,4.233073486328125,1.1377781629562378,-1.3752461671829224,0.3693169951438904
1761379568400086800,4.243086669921875,1.068497896194458,-1.0564404726028442,-0.2530560791492462
1761379568410114800,4.25311474609375,0.48619410395622253,-1.0911471843719482,-1.0056626796722412
1761379568420151800,4.26315185546875,-0.3169737756252289,-1.0060456991195679,-1.8019524812698364
1761379568430185700,4.273185791015625,-0.8892019391059875,-0.5066450834274292,-2.204427480697632
1761379568440204000,4.2832041015625,-0.9776508212089539,0.5071613788604736,-1.9366992712020874
1761379568450230000,4.29322998046875,-0.7333380579948425,1.4466913938522339,-1.2853816747665405
1761379568460256800,4.3032568359375,-0.44342687726020813,1.3447362184524536,-0.6980317831039429
1761379568470270700,4.313270751953125,-0.31479209661483765,0.41524845361709595,-0.32353541254997253
1761379568480308500,4.32330859375,-0.32923105359077454,-0.56728196144104,-0.18982121348381042
1761379568490323000,4.333322998046875,-0.3818906843662262,-1.0380046367645264,-0.2947075068950653
1761379568500349200,4.34334912109375,-0.40782082080841064,-0.8335612416267395,-0.5849018096923828
1761379568510387200,4.35338720703125,-0.39374828338623047,-0.19280225038528442,-0.998518168926239
1761379568520413000,4.363412841796875,-0.3360091745853424,0.4727877080440521,-1.4757192134857178
1761379568530430000,4.373429931640625,-0.2984379827976227,0.8638380169868469,-1.9356334209442139
1761379568540465200,4.383465087890625,-0.3435700535774231,1.0679649114608765,-2.2193660736083984
1761379568550491100,4.3934912109375,-0.47586867213249207,1.1840260028839111,-2.263132333755493
1761379568560502300,4.403502197265625,-0.5948441624641418,1.0601043701171875,-2.0187363624572754
1761379568570542600,4.41354248046875,-0.6060189604759216,0.5337076783180237,-1.5509282350540161
1761379568580569000,4.423569091796875,-0.5174868106842041,-0.24283058941364288,-0.9927392601966858
1761379568590595000,4.433594970703125,-0.44942227005958557,-0.8988112211227417,-0.4367986023426056
1761379568600622300,4.443622314453125,-0.5234655141830444,-1.3322291374206543,0.004346669185906649
1761379568610627600,4.453627685546875,-0.7042436599731445,-1.5614367723464966,0.2592346966266632
1761379568620673500,4.463673583984375,-0.8545284867286682,-1.3958803415298462,0.2717750668525696
1761379568630688000,4.47368798828125,-0.8398064374923706,-0.9027582406997681,0.08633384108543396
1761379568640726000,4.48372607421875,-0.6399429440498352,-0.26418089866638184,-0.1710522621870041
1761379568650751700,4.493751708984375,-0.3216368556022644,0.37331393361091614,-0.38095808029174805
1761379568660778000,4.503778076171875,0.015071784146130085,0.937531590461731,-0.4567832946777344
1761379568670796300,4.51379638671875,0.28972798585891724,1.3774278163909912,-0.3550446033477783
1761379568680834800,4.523834716796875,0.459364652633667,1.6018059253692627,-0.05422511324286461
1761379568690825200,4.5338251953125,0.5356228947639465,1.546231746673584,0.42470788955688477
1761379568700870700,4.54387060546875,0.5525765419006348,1.2333215475082397,0.9531196355819702
1761379568710907400,4.553907470703125,0.5247145891189575,0.7819674611091614,1.4224599599838257
1761379568720933600,4.56393359375,0.4403625428676605,0.37206488847732544,1.785548448562622
1761379568730948900,4.573948974609375,0.3119109869003296,0.14663763344287872,2.00681209564209
1761379568740985600,4.583985595703125,0.20031316578388214,0.16435739398002625,2.0674989223480225
1761379568751012000,4.59401220703125,0.15499788522720337,0.3988277018070221,2.0061960220336914
1761379568761027300,4.60402734375,0.18470846116542816,0.7740235328674316,1.9144662618637085
1761379568771063800,4.614063720703125,0.2587184011936188,1.1725847721099854,1.8394737243652344
1761379568781090300,4.62409033203125,0.34485241770744324,1.4680416584014893,1.7720420360565186
1761379568791116000,4.634115966796875,0.4015922546386719,1.5553914308547974,1.6893720626831055
1761379568801126400,4.64412646484375,0.3877861797809601,1.3986282348632812,1.5382546186447144
1761379568811168300,4.654168212890625,0.2822836935520172,1.0242650508880615,1.2746899127960205
1761379568821194200,4.6641943359375,0.11874233931303024,0.5622524619102478,0.9482733607292175
1761379568831212800,4.674212890625,-0.012124042958021164,0.1869567334651947,0.6481866240501404
1761379568841247000,4.6842470703125,-0.0688638985157013,-0.048745978623628616,0.4357161223888397
1761379568851261200,4.69426123046875,-0.08675018697977066,-0.1489192098379135,0.3298472464084625
1761379568861299000,4.704298828125,-0.05564069747924805,-0.13566270470619202,0.32263609766960144
1761379568871311000,4.71431103515625,0.06300172209739685,-0.02199980802834034,0.45884838700294495
1761379568881351200,4.72435107421875,0.2472771853208542,0.1941678822040558,0.7366188764572144
1761379568891377200,4.734377197265625,0.3486495018005371,0.37852659821510315,0.9795327186584473
1761379568901403000,4.74440283203125,0.32375189661979675,0.3914167284965515,1.0742101669311523
1761379568911428600,4.7544287109375,0.2089565396308899,0.16822108626365662,1.0290781259536743
1761379568921455400,4.764455322265625,0.028494831174612045,-0.3398895561695099,0.8348602652549744
1761379568931469300,4.77446923828125,-0.18887193500995636,-1.096676230430603,0.5159546136856079
1761379568941507000,4.784507080078125,-0.3743131756782532,-1.82518470287323,0.1296839565038681
1761379568951533300,4.794533203125,-0.49260586500167847,-2.1170942783355713,-0.34353673458099365
1761379568961559300,4.804559326171875,-0.5607536435127258,-1.9246917963027954,-0.8780438303947449
1761379568971585300,4.814585205078125,-0.5834528803825378,-1.5046136379241943,-1.3574930429458618
1761379568981611300,4.824611328125,-0.5778238773345947,-0.9617630243301392,-1.5448328256607056
1761379568991625700,4.834625732421875,-0.47140541672706604,-0.41977831721305847,-1.3136266469955444
1761379569001655000,4.844655029296875,-0.20775745809078217,-0.2221464365720749,-0.8594413995742798
1761379569011689500,4.854689453125,0.18877200782299042,-0.49543702602386475,-0.446124792098999
1761379569021715700,4.8647158203125,0.584635317325592,-0.9990177750587463,-0.16788801550865173
1761379569031732500,4.874732421875,0.8330283164978027,-1.4413788318634033,0.015837863087654114
1761379569041767200,4.88476708984375,0.8384075164794922,-1.6379448175430298,0.08924827724695206
1761379569051794200,4.894794189453125,0.6314994096755981,-1.407671332359314,-0.028378253802657127
1761379569061808000,4.90480810546875,0.34854957461357117,-0.8283818960189819,-0.3180895745754242
1761379569071848400,4.914848388671875,0.1037871316075325,-0.046147968620061874,-0.6613931655883789
1761379569081860900,4.92486083984375,0.021650075912475586,0.7519571185112,-1.0015825033187866
1761379569091897900,4.93489794921875,0.1651567667722702,1.3425378799438477,-1.3338278532028198
1761379569101920800,4.944920654296875,0.4263233244419098,1.6557811498641968,-1.5787068605422974
1761379569111950300,4.954950439453125,0.621057391166687,1.7717756032943726,-1.6497358083724976
1761379569121976300,4.964976318359375,0.7220134139060974,1.6845757961273193,-1.5357232093811035
1761379569131990500,4.974990478515625,0.7940748333930969,1.2760554552078247,-1.2635983228683472
1761379569142028300,4.9850283203125,0.9215105175971985,0.6432570815086365,-0.8381744027137756
1761379569152054800,4.9950546875,1.1055861711502075,0.11216405034065247,-0.32466787099838257
1761379569162069500,5.005069580078125,1.2322057485580444,-0.14921899139881134,0.09757522493600845
1761379569172106200,5.015106201171875,1.2694772481918335,-0.12140696495771408,0.3429538607597351
1761379569182133000,5.025133056640625,1.2115216255187988,0.21754996478557587,0.4210440218448639
1761379569192136400,5.035136474609375,1.0486130714416504,0.8270828723907471,0.34040582180023193
1761379569202185000,5.04518505859375,0.8171904683113098,1.513123869895935,0.1861906498670578
1761379569212211200,5.055211181640625,0.5845354199409485,1.9676755666732788,0.10047300904989243
1761379569222237000,5.06523681640625,0.3819739520549774,1.9674923419952393,0.19853119552135468
1761379569232254000,5.07525390625,0.18229363858699799,1.5119414329528809,0.48397913575172424
1761379569242288600,5.08528857421875,-0.023482006043195724,0.8289148211479187,0.8816244006156921
1761379569252315100,5.095315185546875,-0.21418586373329163,0.16983652114868164,1.2954906225204468
1761379569262331100,5.1053310546875,-0.36581966280937195,-0.35581067204475403,1.6219404935836792
1761379569272367900,5.115367919921875,-0.42489108443260193,-0.7119377851486206,1.8286486864089966
1761379569282393000,5.12539306640625,-0.4012092351913452,-0.8714155554771423,1.9009599685668945
1761379569292039000,5.135038818359375,-0.3695501387119293,-0.8825070858001709,1.8343276977539062
1761379569307436000,5.15043603515625,-0.38400572538375854,-0.7723248600959778,1.5754261016845703
1761379569317462500,5.160462646484375,-0.4146655797958374,-0.7227128744125366,1.438131332397461
1761379569327487500,5.170487548828125,-0.4693736433982849,-0.7129703164100647,1.3712825775146484
1761379569337536500,5.18053662109375,-0.5398196578025818,-0.7396998405456543,1.3643378019332886
1761379569347562500,5.1905625,-0.5867336988449097,-0.778236985206604,1.3505151271820068
1761379569357588000,5.200587890625,-0.5755922794342041,-0.8090466856956482,1.2997206449508667
1761379569367614500,5.210614501953125,-0.5052128434181213,-0.8053162097930908,1.2220802307128906
1761379569377640400,5.220640380859375,-0.3998102843761444,-0.7869136333465576,1.1708028316497803
1761379569387667200,5.230667236328125,-0.2790195345878601,-0.7972057461738586,1.1768814325332642
1761379569397692700,5.240692626953125,-0.14823640882968903,-0.8592915534973145,1.2740403413772583
1761379569407696100,5.250696044921875,-0.04566500708460808,-1.0016157627105713,1.3963966369628906
1761379569417745700,5.26074560546875,-0.029460757970809937,-1.222496509552002,1.4261738061904907
1761379569427770600,5.2707705078125,-0.11494524776935577,-1.4277892112731934,1.331313133239746
1761379569437797400,5.28079736328125,-0.29119351506233215,-1.498634934425354,1.176065444946289
1761379569447800300,5.29080029296875,-0.48829248547554016,-1.4135668277740479,1.0669656991958618
1761379569457850600,5.3008505859375,-0.6049864292144775,-1.207558035850525,1.0856014490127563
1761379569467875300,5.310875244140625,-0.6485363841056824,-1.0423179864883423,1.2186495065689087
1761379569477878300,5.320878173828125,-0.6825602650642395,-0.9987513422966003,1.4402130842208862
1761379569487926300,5.33092626953125,-0.7630985975265503,-0.9475405812263489,1.5561574697494507
1761379569497953300,5.340953369140625,-0.7895949482917786,-0.7873466610908508,1.4210277795791626
1761379569507980500,5.35098046875,-0.6517172455787659,-0.5117411613464355,1.0569733381271362
1761379569518005500,5.361005615234375,-0.32944753766059875,-0.3154416084289551,0.5212838649749756
1761379569528032300,5.3710322265625,0.023198889568448067,-0.44650784134864807,-0.14423947036266327
1761379569538059000,5.38105908203125,0.1164274513721466,-1.0012993812561035,-0.7869469523429871
1761379569548085000,5.3910849609375,-0.24754364788532257,-1.5825872421264648,-1.3148090839385986
1761379569558109700,5.401109619140625,-0.6447892189025879,-1.6147292852401733,-1.6916370391845703
1761379569568136400,5.411136474609375,-0.6233223676681519,-0.9037408232688904,-1.9709396362304688
1761379569578161400,5.421161376953125,-0.11587786674499512,0.4100691080093384,-2.156813859939575
1761379569588188400,5.4311884765625,0.4837959408760071,1.7336548566818237,-2.282667398452759
1761379569598214100,5.441214111328125,0.812677264213562,2.370983123779297,-2.396280288696289
1761379569608200200,5.4512001953125,0.8478170037269592,2.1858415603637695,-2.45135498046875
1761379569618267000,5.461266845703125,0.695367157459259,1.468258261680603,-2.3844895362854004
1761379569628298800,5.471298828125,0.5004831552505493,0.7395666241645813,-2.206725597381592
1761379569638318000,5.481318115234375,0.27648812532424927,0.2066083401441574,-2.099940776824951
1761379569648324600,5.49132470703125,-0.04726378247141838,-0.1543317288160324,-2.2144365310668945
1761379569658348000,5.50134814453125,-0.4101690351963043,-0.25044143199920654,-2.4203286170959473
1761379569668396500,5.511396484375,-0.6867237687110901,-0.10838361084461212,-2.473621129989624
1761379569678415600,5.52141552734375,-0.8050164580345154,0.09139662981033325,-2.2701103687286377
1761379569688426000,5.531426025390625,-0.7862308621406555,0.29467418789863586,-1.8551284074783325
1761379569698475500,5.5414755859375,-0.6446393728256226,0.4641110301017761,-1.3082808256149292
1761379569708501200,5.551501220703125,-0.3937815725803375,0.5270627737045288,-0.7560040354728699
1761379569718504200,5.561504150390625,-0.07482599467039108,0.41185107827186584,-0.30494964122772217
1761379569728552700,5.571552734375,0.2615828812122345,0.10322090238332748,0.038470521569252014
1761379569738578700,5.58157861328125,0.5331747531890869,-0.258185476064682,0.2885788679122925
1761379569748605700,5.591605712890625,0.6933187246322632,-0.4218267500400543,0.43511655926704407
1761379569758631000,5.601630859375,0.76053386926651,-0.2887120842933655,0.46197932958602905
1761379569768657000,5.611656982421875,0.7660130262374878,0.027828674763441086,0.40593892335891724
1761379569778686700,5.621686767578125,0.7056259512901306,0.41991156339645386,0.2978217899799347
1761379569788709400,5.63170947265625,0.6110317707061768,0.8186227083206177,0.18379248678684235
1761379569798735000,5.641735107421875,0.5153051018714905,1.1153286695480347,0.1049695611000061
1761379569808724000,5.651723876953125,0.41449904441833496,1.2294079065322876,0.07336045056581497
1761379569818787300,5.661787353515625,0.30528274178504944,1.1356464624404907,0.1013556644320488
1761379569828770300,5.671770263671875,0.19426779448986053,0.8468344211578369,0.21560145914554596
1761379569838839800,5.68183984375,0.10766749829053879,0.43899694085121155,0.4172302782535553
1761379569848865800,5.69186572265625,0.05390869081020355,0.06971324235200882,0.6431071758270264
1761379569858891500,5.7018916015625,0.028444869443774223,-0.1627252995967865,0.8180065155029297
1761379569868918500,5.71191845703125,-0.003547281725332141,-0.2592180371284485,0.8998438119888306
1761379569878943500,5.721943603515625,-0.037221476435661316,-0.1772974729537964,0.8868370652198792
1761379569888969000,5.731968994140625,-0.056756507605314255,0.03760451823472977,0.7962231636047363
1761379569898995700,5.74199560546875,-0.05948774889111519,0.28181737661361694,0.6405425071716309
1761379569909021700,5.752021728515625,-0.059354517608881,0.4866604208946228,0.46516022086143494
1761379569919048200,5.762048095703125,-0.08978120237588882,0.63801109790802,0.3314793109893799
1761379569929073700,5.77207373046875,-0.15756259858608246,0.7418481707572937,0.2731073796749115
1761379569939101000,5.782100830078125,-0.22690945863723755,0.758335530757904,0.2623489499092102
1761379569949126000,5.7921259765625,-0.26847758889198303,0.6366288065910339,0.2842321991920471
1761379569959152400,5.80215234375,-0.2692270278930664,0.40955281257629395,0.33312806487083435
1761379569969178600,5.8121787109375,-0.26821112632751465,0.18530799448490143,0.38527143001556396
1761379569979172400,5.82217236328125,-0.28085145354270935,0.06290179491043091,0.4098859131336212
1761379569989230600,5.832230712890625,-0.29237595200538635,0.029527373611927032,0.3752124607563019
1761379569999255800,5.842255859375,-0.2915266156196594,0.07487595826387405,0.2928922176361084
1761379570009257200,5.85225732421875,-0.2751224935054779,0.2299904227256775,0.18052832782268524
1761379570019309000,5.86230908203125,-0.2556207776069641,0.4595145285129547,0.07109551876783371
1761379570029334800,5.872334716796875,-0.24676090478897095,0.6899712681770325,0.00023315467115025967
1761379570039360300,5.8823603515625,-0.2553543150424957,0.8445861339569092,-0.007960566319525242
1761379570049387000,5.892386962890625,-0.2954069674015045,0.8508979678153992,0.05162710323929787
1761379570059413500,5.90241357421875,-0.3596910238265991,0.7253274917602539,0.17375019192695618
1761379570069439200,5.912439208984375,-0.4440264105796814,0.579156219959259,0.3438698351383209
1761379570079464700,5.922464599609375,-0.5463313460350037,0.4354330003261566,0.5380876660346985
1761379570089491500,5.932491455078125,-0.6241050958633423,0.2480432540178299,0.7131368517875671
1761379570099517700,5.942517578125,-0.6054360270500183,0.04546516016125679,0.8226363062858582
1761379570109544000,5.9525439453125,-0.48114797472953796,-0.08493491262197495,0.8168740272521973
1761379570119570000,5.96256982421875,-0.30959609150886536,-0.05802220478653908,0.6757655143737793
1761379570129595600,5.972595703125,-0.16670559346675873,0.10002335160970688,0.38908517360687256
1761379570139622000,5.982621826171875,-0.14080876111984253,0.24029919505119324,-0.045315276831388474
1761379570149648000,5.99264794921875,-0.22664299607276917,0.31694045662879944,-0.5177698731422424
1761379570159673900,6.002673828125,-0.33166250586509705,0.31292685866355896,-0.8041171431541443
1761379570169699300,6.01269921875,-0.34042248129844666,0.1402425318956375,-0.6825103163719177
1761379570179702800,6.022702880859375,-0.17568203806877136,-0.1680045872926712,-0.10735107213258743
1761379570189729300,6.032729248046875,0.1274689882993698,-0.5114747285842896,0.743047297000885
1761379570199778000,6.042778076171875,0.4489726126194,-0.8154584765434265,1.4955040216445923
1761379570209803500,6.052803466796875,0.6261035799980164,-0.9851617217063904,1.808230996131897
1761379570219830500,6.06283056640625,0.7052096128463745,-0.943843424320221,1.6233060359954834
1761379570229856300,6.072856201171875,0.7875964641571045,-0.7438966035842896,1.0275626182556152
1761379570239882000,6.082882080078125,0.9197118878364563,-0.46279534697532654,0.17373353242874146
1761379570249908000,6.092907958984375,1.0237154960632324,-0.13949310779571533,-0.7516739964485168
1761379570259935000,6.10293505859375,1.0095763206481934,0.23163916170597076,-1.4969695806503296
1761379570269960700,6.112960693359375,0.8914002776145935,0.7126538753509521,-1.862173080444336
1761379570279976700,6.122976806640625,0.7365689277648926,1.1596113443374634,-1.8369756937026978
1761379570290013200,6.13301318359375,0.6122308373451233,1.3697004318237305,-1.4893254041671753
1761379570300038700,6.14303857421875,0.5622857809066772,1.3310467004776,-0.9604140520095825
1761379570310063900,6.15306396484375,0.5526764988899231,1.0875998735427856,-0.3916165828704834
1761379570320090400,6.16309033203125,0.5043967962265015,0.7082073092460632,0.12650306522846222
1761379570330093800,6.17309375,0.39476415514945984,0.38845232129096985,0.5464978814125061
1761379570340135200,6.18313525390625,0.2654798924922943,0.26433077454566956,0.8149255514144897
1761379570350169300,6.19316943359375,0.16374118626117706,0.36553657054901123,0.8621227145195007
1761379570360194800,6.20319482421875,0.11551148444414139,0.6053527593612671,0.7066751718521118
1761379570370220800,6.213220703125,0.1074010357260704,0.9272227883338928,0.42878809571266174
1761379570380247000,6.2232470703125,0.1285681426525116,1.2827171087265015,0.12820175290107727
1761379570390250500,6.23325048828125,0.166122704744339,1.5205681324005127,-0.10287117213010788
1761379570400299000,6.243299072265625,0.23570270836353302,1.4653271436691284,-0.22044773399829865
1761379570410325200,6.2533251953125,0.3105953335762024,1.1169440746307373,-0.24849291145801544
1761379570420351200,6.263351318359375,0.34540197253227234,0.66860431432724,-0.1977817714214325
1761379570430376700,6.273376708984375,0.3250509202480316,0.3181728422641754,-0.05687308311462402
1761379570440403500,6.283403564453125,0.2717750668525696,0.12177335470914841,0.15331584215164185
1761379570450428700,6.2934287109375,0.19859781861305237,-0.005545750260353088,0.3655698597431183
1761379570460455200,6.303455078125,0.14395634829998016,-0.12483767420053482,0.5909638404846191
1761379570470482000,6.31348193359375,0.10741768777370453,-0.24967534840106964,0.8471841216087341
1761379570480507400,6.32350732421875,0.06280187517404556,-0.368567556142807,1.093661904335022
1761379570490533600,6.33353369140625,0.026979325339198112,-0.5240983963012695,1.2623493671417236
1761379570500560100,6.34356005859375,0.022366194054484367,-0.7356196045875549,1.3294812440872192
1761379570510562800,6.353562744140625,0.041767992079257965,-0.9791996479034424,1.3139598369598389
1761379570520611600,6.363611572265625,0.04726378247141838,-1.1760987043380737,1.228408694267273
1761379570530638600,6.373638671875,0.03307465463876724,-1.2510247230529785,1.0700633525848389
1761379570540643600,6.3836435546875,0.014805321581661701,-1.1903212070465088,0.8693005442619324
1761379570550694700,6.393694580078125,0.0016653904458507895,-0.967158854007721,0.6710191369056702
1761379570560716000,6.403716064453125,0.004763016942888498,-0.6436234712600708,0.5073944926261902
1761379570570741800,6.41374169921875,0.030160222202539444,-0.33645883202552795,0.40367400646209717
1761379570580768300,6.423768310546875,0.04641443118453026,-0.1381607949733734,0.327682226896286
1761379570590793500,6.43379345703125,0.04608135297894478,-0.06286849081516266,0.2748394012451172
1761379570600820000,6.443820068359375,0.06508345901966095,-0.05544085055589676,0.28882867097854614
1761379570610846000,6.453845947265625,0.08311963826417923,-0.15033480525016785,0.3416215479373932
1761379570620874500,6.46387451171875,0.04904574900865555,-0.466808944940567,0.3373914659023285
1761379570630901800,6.47390185546875,-0.04061887413263321,-1.0041139125823975,0.24967534840106964
1761379570640924400,6.48392431640625,-0.11193089187145233,-1.4976357221603394,0.09589318186044693
1761379570650950400,6.493950439453125,0.025114089250564575,-1.5729279518127441,-0.027961906045675278
1761379570660977000,6.503976806640625,0.2732406258583069,-1.4221101999282837,-0.20039643347263336
1761379570671002400,6.51400244140625,0.16089338064193726,-1.5921965837478638,-0.5818041563034058
1761379570681029000,6.524029052734375,-0.1723679155111313,-1.397179365158081,-0.9341341853141785
1761379570691032300,6.5340322265625,-0.24441270530223846,-0.47461962699890137,-1.1166609525680542
1761379570701080800,6.544080810546875,0.03139261156320572,0.45350247621536255,-1.2764718532562256
1761379570711084000,6.554083984375,0.3293309807777405,0.8625223636627197,-1.5241320133209229
1761379570721133600,6.564133544921875,0.46327832341194153,0.9324188232421875,-1.7296411991119385
1761379570731158800,6.57415869140625,0.46995654702186584,0.816657543182373,-1.8227698802947998
1761379570741185300,6.584185302734375,0.3741965889930725,0.6023218035697937,-1.8562442064285278
1761379570751210800,6.594210693359375,0.20630857348442078,0.4189789295196533,-1.8613402843475342
1761379570761236700,6.60423681640625,0.03936983272433281,0.27259111404418945,-1.8810752630233765
1761379570771244500,6.61424462890625,-0.1292676031589508,0.14062556624412537,-1.9668761491775513
1761379570781289000,6.6242890625,-0.3286314904689789,0.026529669761657715,-2.0646512508392334
1761379570791315200,6.634315185546875,-0.5121575593948364,0.019135337322950363,-2.0486466884613037
1761379570801312000,6.64431201171875,-0.6020719408988953,0.13035011291503906,-1.8590087890625
1761379570811368000,6.654367919921875,-0.587932825088501,0.286180704832077,-1.5139732360839844
1761379570821384400,6.664384521484375,-0.49493739008903503,0.42387518286705017,-1.0668158531188965
1761379570831420000,6.674419921875,-0.3854213058948517,0.4486728608608246,-0.6483198404312134
1761379570841445000,6.684445068359375,-0.2982381284236908,0.32133710384368896,-0.3465011417865753
1761379570851472000,6.694471923828125,-0.2062586098909378,0.16344141960144043,-0.13401396572589874
1761379570861499000,6.704498779296875,-0.0967758372426033,0.07319391518831253,0.0010658499086275697
1761379570871523800,6.71452392578125,0.012557044625282288,0.0861506462097168,0.0719948336482048
1761379570881533700,6.72453369140625,0.11051531136035919,0.17201818525791168,0.11386274546384811
1761379570891564500,6.734564453125,0.18630723655223846,0.267345130443573,0.17013628780841827
1761379570901601300,6.744601318359375,0.2036106437444687,0.35179707407951355,0.25114089250564575
1761379570911616000,6.754615966796875,0.15434838831424713,0.3709157705307007,0.35514453053474426
1761379570921654300,6.764654296875,0.07181163877248764,0.305865615606308,0.4545183777809143
1761379570931680000,6.774679931640625,-0.01135796308517456,0.18335948884487152,0.48924174904823303
1761379570941706200,6.784706298828125,-0.0708124041557312,0.03990275412797928,0.4534858167171478
1761379570951740400,6.794740478515625,-0.08448526263237,-0.09162978082895279,0.40067631006240845
1761379570961757400,6.80475732421875,-0.04666424170136452,-0.17095233500003815,0.36242228746414185
1761379570971784700,6.81478466796875,0.03217534348368645,-0.21373622119426727,0.32556718587875366
1761379570981810200,6.82481005859375,0.1395430713891983,-0.20932292938232422,0.26266539096832275
1761379570991830800,6.834830810546875,0.2730241119861603,-0.07237786799669266,0.1492689549922943
1761379571001855700,6.844855712890625,0.42280933260917664,0.22647644579410553,-0.02033441700041294
1761379571011891700,6.8548916015625,0.5678815245628357,0.5936784148216248,-0.23078981041908264
1761379571021898200,6.864898193359375,0.6664392948150635,0.8920164704322815,-0.4406123459339142
1761379571031929300,6.874929443359375,0.7005298733711243,1.056490421295166,-0.606385350227356
1761379571041966300,6.88496630859375,0.6594113707542419,1.06999671459198,-0.707507848739624
1761379571051992300,6.894992431640625,0.5379877686500549,0.968407928943634,-0.7554211020469666
1761379571062009300,6.90500927734375,0.35942456126213074,0.7506914138793945,-0.7474439144134521
1761379571072044500,6.91504443359375,0.14455589652061462,0.442144513130188,-0.660926878452301
1761379571082064600,6.925064697265625,-0.07838992774486542,0.15438169240951538,-0.4950706362724304
1761379571092084700,6.935084716796875,-0.2774707078933716,0.0038137442898005247,-0.2773541212081909
1761379571102123800,6.945123779296875,-0.3996104598045349,-0.015271631069481373,-0.07392667979001999
1761379571112148700,6.955148681640625,-0.41671401262283325,0.09006431698799133,0.04073544964194298
1761379571122164700,6.965164794921875,-0.3284982740879059,0.3076309263706207,0.05967094004154205
1761379571132190200,6.975190185546875,-0.19766519963741302,0.5351399183273315,0.011990811675786972
1761379571142227500,6.9852275390625,-0.11366289854049683,0.6336977481842041,-0.07757388800382614
1761379571152246000,6.99524609375,-0.10310432314872742,0.49114030599594116,-0.20532599091529846
1761379571162279200,7.005279052734375,-0.15296611189842224,0.16770482063293457,-0.3387071192264557
1761379571172301600,7.015301513671875,-0.2646472156047821,-0.20727449655532837,-0.4360325336456299
1761379571182332200,7.025332275390625,-0.4121508300304413,-0.4475736916065216,-0.4666590690612793
1761379571192334300,7.035334228515625,-0.5178531408309937,-0.45163723826408386,-0.41191768646240234
1761379571202383400,7.04538330078125,-0.5222331285476685,-0.3077641725540161,-0.3007528781890869
1761379571212398600,7.055398681640625,-0.4304201602935791,-0.14055895805358887,-0.17819678783416748
1761379571222425600,7.065425537109375,-0.31619104743003845,-0.04504881426692009,-0.05978751927614212
1761379571232461800,7.0754619140625,-0.2642808258533478,-0.04330015182495117,-0.012290582060813904
1761379571242488300,7.08548828125,-0.24764356017112732,-0.10821707546710968,-0.04846286401152611
1761379571252513800,7.095513671875,-0.21788303554058075,-0.1583453267812729,-0.12895119190216064
1761379571262537000,7.105536865234375,-0.17068587243556976,-0.10658498853445053,-0.2254772186279297
1761379571272554500,7.115554443359375,-0.10976588726043701,0.05340907350182533,-0.31520846486091614
1761379571282592300,7.12559228515625,-0.023998277261853218,0.2391001135110855,-0.3855046033859253
1761379571292607500,7.135607421875,0.07669123262166977,0.39434781670570374,-0.45232006907463074
1761379571302644500,7.14564453125,0.1789795160293579,0.5311430096626282,-0.5509111881256104
1761379571312670000,7.155669921875,0.30120253562927246,0.6516339778900146,-0.6693370938301086
1761379571322674700,7.1656748046875,0.4209940731525421,0.7330049872398376,-0.7259936928749084
1761379571332722200,7.17572216796875,0.48820921778678894,0.733154833316803,-0.6533493399620056
1761379571342748200,7.185748046875,0.496036559343338,0.6457884907722473,-0.4712555408477783
1761379571352763400,7.195763427734375,0.44885605573654175,0.5557075142860413,-0.26661235094070435
1761379571362800400,7.20580029296875,0.35394543409347534,0.490823894739151,-0.10856680572032928
1761379571372826600,7.21582666015625,0.2450622022151947,0.3807748854160309,0.050161562860012054
1761379571382852600,7.2258525390625,0.20416021347045898,0.10430340468883514,0.11196420341730118
1761379571392871400,7.235871337890625,0.22101397812366486,-0.098024882376194,0.14777009189128876
1761379571402893600,7.2458935546875,0.22855818271636963,-0.19078713655471802,0.21943184733390808
1761379571412930600,7.2559306640625,0.20885662734508514,-0.24734379351139069,0.3154749274253845
1761379571422949600,7.26594970703125,0.19443434476852417,-0.2804017961025238,0.4599308967590332
