time,seconds_elapsed,z,y,x
1761378663509221000,0.15622119140625,0.0006328483577817678,-0.003047664649784565,0.0011657733703032136
1761378663519248400,0.166248291015625,0.0002997702977154404,0.0022316232789307833,-0.0006161945057101548
1761378663529294000,0.176294189453125,0,0.0009825803572311997,-0.0003330780891701579
1761378663539319300,0.1863193359375,0.0003663859097287059,-0.0016154287150129676,-0.0011824272805824876
1761378663549344800,0.1963447265625,0.00024980856687761843,-0.00003330780964461155,-0.0016320826252922416
1761378663559371300,0.206371337890625,0.00018319295486435294,0.0011324655497446656,-0.00018319295486435294
1761378663569399000,0.21639892578125,0.00004996171628590673,-0.002348200650885701,-0.00009992343257181346
1761378663579382800,0.2263828125,-0.0007327718194574118,-0.0020317763555794954,0.0011657733703032136
1761378663589427200,0.23642724609375,0.0001332312385784462,0.0008993108640424907,-0.00011657733557512984
1761378663599474400,0.246474365234375,0.0003164241788908839,-0.0008493491332046688,-0.0003497319994494319
1761378663609477400,0.256477294921875,0.00044965543202124536,-0.0007827335502952337,-0.00024980856687761843
1761378663619524400,0.2665244140625,0.0009992342675104737,0.0006661561783403158,-0.0003164241788908839
1761378663629529300,0.276529296875,0.0003164241788908839,-0.0005162710440345109,0.0000666156192892231
1761378663639575600,0.286575439453125,0.0009659265051595867,-0.0007993874605745077,0.0001498851488577202
1761378663649601800,0.296601806640625,-0.0003164241788908839,-0.0003330780891701579,0.00038303982000797987
1761378663659627800,0.306627685546875,-0.0005995405954308808,-0.0005995405954308808,0.0004330015217419714
1761378663669652700,0.31665283203125,-0.0007494257297366858,-0.0011657733703032136,0.0008493491332046688
1761378663679679500,0.326679443359375,-0.0007161179091781378,-0.0010491959983482957,-0.00024980856687761843
1761378663689708000,0.3367080078125,-0.00039969373028725386,-0.0007161179091781378,0.0005495788645930588
1761378663699730200,0.346730224609375,-0.0002831163874361664,-0.0015987749211490154,0.00016653904458507895
1761378663709736200,0.356736083984375,0.0005329249543137848,0.000016653904822305776,0.00009992343257181346
1761378663719791900,0.3667919921875,-0.000016653904822305776,0.0006994639988988638,-0.0005329249543137848
1761378663729806600,0.376806640625,0.00048296325257979333,0.00023315467115025967,-0.00018319295486435294
1761378663739832300,0.386832275390625,-0.0000666156192892231,-0.0004996171337552369,-0.00039969373028725386
1761378663749857800,0.39685791015625,-0.0004163476114626974,-0.0009825803572311997,0.0002997702977154404
1761378663759883800,0.4068837890625,-0.0002997702977154404,-0.0009326186846010387,0.0010158881777897477
1761378663769909200,0.4169091796875,0.00009992343257181346,-0.0010491959983482957,0.00039969373028725386
1761378663779947000,0.426947021484375,0.00011657733557512984,0.0000666156192892231,-0.00008326952229253948
1761378663789960700,0.436960693359375,0.0002165007608709857,0.0005495788645930588,0.0005495788645930588
1761378663799986200,0.446986083984375,0.00016653904458507895,0.0008826569537632167,-0.00008326952229253948
1761378663810013400,0.457013427734375,0.0006161945057101548,-0.0008160413126461208,0.00039969373028725386
1761378663820037400,0.467037353515625,0.0003164241788908839,-0.00009992343257181346,-0.0003330780891701579
1761378663830063600,0.477063720703125,-0.0002165007608709857,-0.0006661561783403158,0.0007660796400159597
1761378663840088800,0.4870888671875,0.00019984686514362693,-0.0002831163874361664,0.0007161179091781378
1761378663850115300,0.497115234375,0.0006661561783403158,0.0004996171337552369,-0.0003663859097287059
1761378663860140000,0.50714013671875,0.0008160413126461208,0.00044965543202124536,-0.00023315467115025967
1761378663870166000,0.517166015625,-0.000016653904822305776,-0.0003663859097287059,-0.0005662327748723328
1761378663880171000,0.5271708984375,-0.0002997702977154404,-0.0005495788645930588,0.00003330780964461155
1761378663890217200,0.53721728515625,-0.0009492725948803127,-0.0012323890114203095,0.0007494257297366858
1761378663900242700,0.54724267578125,-0.0006328483577817678,-0.0011824272805824876,0.0010158881777897477
1761378663910268400,0.557268310546875,-0.0005828866851516068,-0.0007327718194574118,0.0005495788645930588
1761378663920294400,0.56729443359375,-0.0004330015217419714,-0.0009825803572311997,0.00023315467115025967
1761378663930320100,0.577320068359375,0.0000666156192892231,-0.0003497319994494319,-0.00024980856687761843
1761378663940345300,0.587345458984375,0.00023315467115025967,0.00024980856687761843,-0.0006994639988988638
1761378663950371600,0.59737158203125,0.00048296325257979333,-0.0005995405954308808,-0.0009159647743217647
1761378663960399400,0.6073994140625,0.0006661561783403158,-0.0007660796400159597,0.00016653904458507895
1761378663970424300,0.61742431640625,0.0003330780891701579,-0.0004996171337552369,0.0003330780891701579
1761378663980427500,0.627427490234375,0.00008326952229253948,-0.0000666156192892231,0.00008326952229253948
1761378663990475800,0.637475830078125,-0.0009825803572311997,-0.0009992342675104737,-0.0003330780891701579
1761378664000474000,0.64747412109375,-0.00039969373028725386,-0.0008160413126461208,0.00024980856687761843
1761378664010491400,0.657491455078125,-0.00046630934230051935,-0.00039969373028725386,0.00023315467115025967
1761378664020551400,0.667551513671875,0.000016653904822305776,-0.0002664624771568924,0.0006828100886195898
1761378664030577200,0.6775771484375,0.0007494257297366858,-0.0009492725948803127,0.0002664624771568924
1761378664040602000,0.68760205078125,0.0013489662669599056,0.0006328483577817678,0.0006161945057101548
1761378664050627300,0.69762744140625,0.0008160413126461208,0.0011657733703032136,-0.00023315467115025967
1761378664060653600,0.707653564453125,0.0011324655497446656,0.0006161945057101548,0.0005162710440345109
1761378664070679600,0.717679443359375,0.0019151991000398993,-0.0005995405954308808,-0.0005828866851516068
1761378664080709600,0.727709716796875,0.0001498851488577202,-0.0006328483577817678,0.00044965543202124536
1761378664090729500,0.7377294921875,-0.0008326952229253948,-0.0007660796400159597,0.0007660796400159597
1761378664100736300,0.747736328125,-0.0005162710440345109,-0.0013822740875184536,0.0005662327748723328
1761378664110791700,0.757791748046875,-0.0011324655497446656,-0.0010158881777897477,0.0007494257297366858
1761378664120807400,0.767807373046875,-0.0006828100886195898,-0.0009326186846010387,-0.00009992343257181346
1761378664130833000,0.7778330078125,-0.0008993108640424907,-0.0006161945057101548,-0.0003497319994494319
1761378664140841500,0.787841552734375,-0.0003164241788908839,0.00023315467115025967,-0.0001332312385784462
1761378664160913000,0.807912841796875,0.00048296325257979333,-0.00038303982000797987,0.00016653904458507895
1761378664170937900,0.817937744140625,0.00016653904458507895,-0.0004163476114626974,-0.00008326952229253948
1761378664180970000,0.827969970703125,0.0006828100886195898,0.0004163476114626974,0.0004330015217419714
1761378664190987000,0.837987060546875,-0.0005662327748723328,-0.0005495788645930588,-0.0001498851488577202
1761378664201012500,0.848012451171875,0.0003663859097287059,-0.0005995405954308808,-0.0008993108640424907
1761378664211038500,0.85803857421875,0.00046630934230051935,0.0000666156192892231,-0.00024980856687761843
1761378664221064200,0.868064208984375,0.0008160413126461208,-0.0002997702977154404,-0.0003164241788908839
1761378664231090000,0.87808984375,0.00046630934230051935,-0.00016653904458507895,0.0005995405954308808
1761378664241117000,0.888116943359375,-0.0003164241788908839,-0.00024980856687761843,0.0005495788645930588
1761378664251143200,0.89814306640625,-0.0005495788645930588,-0.0006661561783403158,0.00023315467115025967
1761378664261166000,0.908166015625,-0.0004163476114626974,-0.0008493491332046688,-0.0002165007608709857
1761378664271192000,0.918192138671875,-0.0003663859097287059,-0.00019984686514362693,0.0004330015217419714
1761378664281218000,0.928218017578125,-0.0006495022680610418,-0.0013323123566806316,0.00038303982000797987
1761378664291243300,0.9382431640625,0.000016653904822305776,-0.0005662327748723328,0.000016653904822305776
1761378664301269200,0.948269287109375,0.0003497319994494319,0.00011657733557512984,0.00038303982000797987
1761378664311312600,0.958312744140625,0.0006661561783403158,-0.0001332312385784462,-0.0006994639988988638
1761378664321320400,0.968320556640625,0.0002664624771568924,-0.0002664624771568924,-0.0007494257297366858
1761378664331346400,0.978346435546875,0.0011324655497446656,0.0000666156192892231,-0.00004996171628590673
1761378664341363200,0.98836328125,0.0009492725948803127,-0.00018319295486435294,-0.00044965543202124536
1761378664351398000,0.99839794921875,0.0010158881777897477,-0.0005995405954308808,-0.0001498851488577202
1761378664361424400,1.00842431640625,0.0014155819080770016,-0.00046630934230051935,-0.00024980856687761843
1761378664371450000,1.0184501953125,0.0011657733703032136,-0.00016653904458507895,-0.0006661561783403158
1761378664381476900,1.028476806640625,0.0005495788645930588,-0.0008826569537632167,0.00003330780964461155
1761378664391500000,1.0385,0.00038303982000797987,-0.00011657733557512984,-0.00048296325257979333
1761378664401525500,1.048525390625,0.0005495788645930588,-0.00003330780964461155,0.00048296325257979333
1761378664411551700,1.0585517578125,0.0009159647743217647,-0.0008160413126461208,-0.00016653904458507895
1761378664421577000,1.068576904296875,0.0008493491332046688,-0.0006828100886195898,0.00009992343257181346
1761378664431603200,1.078603271484375,0.0015821210108697414,0.0009659265051595867,0.00019984686514362693
1761378664441628400,1.08862841796875,0.0014988514594733715,0.0011491194600239396,-0.0009159647743217647
1761378664451654100,1.098654052734375,0.0018152756383642554,0.0002997702977154404,-0.0000666156192892231
1761378664461684000,1.10868408203125,0.00024980856687761843,0.0006328483577817678,-0.0002664624771568924
1761378664471709000,1.118708984375,-0.00023315467115025967,-0.0010325420880690217,0.0002165007608709857
1761378664481729800,1.128729736328125,-0.0009159647743217647,-0.0013822740875184536,0.0005662327748723328
1761378664491736600,1.138736572265625,-0.0007161179091781378,-0.0006994639988988638,0.0001332312385784462
1761378664501792000,1.1487919921875,-0.00023315467115025967,-0.0004330015217419714,0.00023315467115025967
1761378664511787000,1.158787109375,-0.0003663859097287059,-0.00024980856687761843,-0.0002165007608709857
1761378664521833500,1.16883349609375,0.00046630934230051935,0.0002664624771568924,-0.0002165007608709857
1761378664531859700,1.178859619140625,0.0007494257297366858,-0.0006328483577817678,-0.0003663859097287059
1761378664541884700,1.188884765625,0.00046630934230051935,-0.0008826569537632167,0.0005162710440345109
1761378664551910100,1.19891015625,0.0006828100886195898,0.0002997702977154404,-0.0002165007608709857
1761378664561936100,1.20893603515625,0.0015321592800319195,-0.00044965543202124536,0.0002165007608709857
1761378664571961900,1.2189619140625,0.0011657733703032136,-0.0008826569537632167,-0.0003497319994494319
1761378664581988400,1.22898828125,0.0009825803572311997,-0.00016653904458507895,0.00024980856687761843
1761378664592013000,1.239012939453125,0.0012990045361220837,-0.00003330780964461155,-0.000016653904822305776
1761378664602038800,1.249038818359375,0.0004330015217419714,-0.00044965543202124536,0.0005828866851516068
1761378664612064500,1.259064453125,-0.0002831163874361664,-0.0003330780891701579,0.0006661561783403158
1761378664622069500,1.269069580078125,-0.0006828100886195898,-0.0004163476114626974,0.00039969373028725386
1761378664632116500,1.279116455078125,-0.0007327718194574118,-0.0009326186846010387,0.0007660796400159597
1761378664642141400,1.289141357421875,0.00003330780964461155,-0.0007494257297366858,0.00011657733557512984
1761378664652167000,1.2991669921875,-0.0006495022680610418,-0.0006161945057101548,-0.00019984686514362693
1761378664662171600,1.309171630859375,-0.0004996171337552369,-0.00019984686514362693,-0.0003497319994494319
1761378664672234800,1.31923486328125,-0.0004163476114626974,0.0005828866851516068,-0.00016653904458507895
1761378664682223000,1.32922314453125,0.00024980856687761843,0.00023315467115025967,0.00011657733557512984
1761378664692249900,1.339249755859375,0.00016653904458507895,0.00008326952229253948,-0.00008326952229253948
1761378664702275600,1.349275634765625,0.00038303982000797987,0.0002831163874361664,0.0007327718194574118
1761378664712301800,1.3593017578125,0.0008326952229253948,-0.0004163476114626974,0.0000666156192892231
1761378664722347300,1.36934716796875,0.0009492725948803127,-0.0007494257297366858,-0.00008326952229253948
1761378664732372700,1.379372802734375,0.0004330015217419714,-0.00019984686514362693,0.00003330780964461155
1761378664742400000,1.38939990234375,0.00011657733557512984,-0.00024980856687761843,-0.00016653904458507895
1761378664752425000,1.399425048828125,0.0002664624771568924,-0.0003164241788908839,0.0004330015217419714
1761378664762451000,1.409450927734375,0.0008826569537632167,-0.0007827335502952337,-0.00044965543202124536
1761378664772477000,1.419476806640625,-0.0000666156192892231,-0.00009992343257181346,-0.00039969373028725386
1761378664782501000,1.429501220703125,-0.0008326952229253948,0.0002165007608709857,-0.0002997702977154404
1761378664792519400,1.43951953125,-0.0003663859097287059,-0.0006994639988988638,0.00044965543202124536
1761378664802551800,1.4495517578125,-0.00004996171628590673,-0.0005662327748723328,0.0002664624771568924
1761378664812577300,1.459577392578125,-0.00039969373028725386,-0.0006661561783403158,0.0007327718194574118
1761378664822587100,1.469587158203125,-0.0006161945057101548,-0.0006161945057101548,0.0007494257297366858
1761378664832607200,1.479607177734375,-0.0006328483577817678,-0.00011657733557512984,0.00018319295486435294
1761378664842634000,1.489634033203125,0.00004996171628590673,0.00024980856687761843,-0.00009992343257181346
1761378664852684300,1.499684326171875,-0.000016653904822305776,0.00011657733557512984,0.0002165007608709857
1761378664862710300,1.509710205078125,0.0005495788645930588,0.0002165007608709857,0.0004996171337552369
1761378664872729600,1.5197294921875,0.0006828100886195898,-0.0002165007608709857,-0.0004996171337552369
1761378664882736400,1.529736328125,0.0003497319994494319,-0.00038303982000797987,-0.0003330780891701579
1761378664892763400,1.539763427734375,0.0008326952229253948,-0.0007660796400159597,0.0000666156192892231
1761378664902808600,1.54980859375,0.0002664624771568924,-0.0000666156192892231,-0.0004163476114626974
1761378664912834300,1.559834228515625,0.0005329249543137848,-0.00003330780964461155,-0.00048296325257979333
1761378664922859500,1.569859619140625,0.0002831163874361664,-0.00039969373028725386,-0.00046630934230051935
1761378664932886000,1.579885986328125,-0.0000666156192892231,-0.0008160413126461208,-0.0005162710440345109
1761378664942910700,1.58991064453125,0.00011657733557512984,-0.0006828100886195898,0.00016653904458507895
1761378664952936700,1.599936767578125,-0.0006328483577817678,-0.0005329249543137848,0.00016653904458507895
1761378664962962000,1.6099619140625,-0.0010825038189068437,-0.0008326952229253948,0.00016653904458507895
1761378664972990500,1.619990478515625,-0.00038303982000797987,-0.0006495022680610418,0.0003497319994494319
1761378664983015000,1.630014892578125,-0.000016653904822305776,-0.0007494257297366858,0.0002831163874361664
1761378664993030100,1.640030029296875,0.0003663859097287059,0.0002165007608709857,0.0003663859097287059
1761378665003065900,1.65006591796875,0.000016653904822305776,-0.0002664624771568924,0.00023315467115025967
1761378665013092600,1.660092529296875,0.00016653904458507895,0.0004330015217419714,0.0005162710440345109
1761378665023096300,1.670096435546875,0.0000666156192892231,-0.0002165007608709857,-0.00046630934230051935
1761378665033145300,1.680145263671875,-0.00011657733557512984,-0.0009159647743217647,-0.0002831163874361664
1761378665043169800,1.690169677734375,0.00018319295486435294,-0.0001332312385784462,0.00023315467115025967
1761378665053195000,1.700195068359375,0.000016653904822305776,0.0002165007608709857,0.0005162710440345109
1761378665063221500,1.710221435546875,-0.00004996171628590673,-0.00018319295486435294,0.00038303982000797987
1761378665073246200,1.72024609375,0.0003330780891701579,-0.00038303982000797987,-0.0006828100886195898
1761378665083273000,1.73027294921875,-0.00008326952229253948,-0.000016653904822305776,-0.0007660796400159597
1761378665093297200,1.740297119140625,-0.00016653904458507895,-0.00003330780964461155,0.00024980856687761843
1761378665103323400,1.750323486328125,0.0000666156192892231,-0.0004163476114626974,-0.00044965543202124536
1761378665113350000,1.760349853515625,-0.0004330015217419714,0.0003497319994494319,0.0003330780891701579
1761378665123374600,1.77037451171875,-0.0008326952229253948,-0.0005995405954308808,0.0003497319994494319
1761378665133405700,1.78040576171875,0.000016653904822305776,-0.0005162710440345109,0.0002664624771568924
1761378665143427600,1.790427490234375,0.0001332312385784462,-0.00018319295486435294,-0.0002664624771568924
1761378665153454000,1.8004541015625,0,-0.0008826569537632167,-0.00016653904458507895
1761378665163479600,1.8104794921875,-0.00039969373028725386,-0.0002664624771568924,0.0007660796400159597
1761378665173502200,1.820502197265625,0.0005662327748723328,0.0002165007608709857,-0.0002997702977154404
1761378665183527700,1.830527587890625,0.0007327718194574118,0.00003330780964461155,0
1761378665193561300,1.840561279296875,0.00039969373028725386,0.00039969373028725386,-0.000016653904822305776
1761378665203557000,1.85055712890625,0.00024980856687761843,-0.00048296325257979333,-0.0005662327748723328
1761378665213605400,1.86060546875,-0.0004330015217419714,-0.00046630934230051935,-0.0001498851488577202
1761378665223632400,1.87063232421875,0.000016653904822305776,-0.0003330780891701579,-0.00018319295486435294
1761378665233657300,1.8806572265625,-0.0002997702977154404,0.00008326952229253948,0.0006994639988988638
1761378665243686700,1.890686767578125,-0.0005662327748723328,0.000016653904822305776,-0.00004996171628590673
1761378665253715700,1.9007158203125,-0.0006328483577817678,0.0003330780891701579,0.0006161945057101548
1761378665263733200,1.910733154296875,-0.00044965543202124536,-0.0005662327748723328,-0.00004996171628590673
1761378665273743600,1.92074365234375,-0.0008326952229253948,-0.0001498851488577202,0.000016653904822305776
1761378665283801000,1.930801025390625,-0.00023315467115025967,-0.0007161179091781378,0.0002997702977154404
1761378665293813000,1.94081298828125,0.00023315467115025967,-0.0004163476114626974,0.0003330780891701579
1761378665303836400,1.95083642578125,0.0005329249543137848,-0.0005995405954308808,-0.00024980856687761843
1761378665313862000,1.96086181640625,0.0004330015217419714,-0.00019984686514362693,-0.0002165007608709857
1761378665323887400,1.970887451171875,0.0001498851488577202,0.00003330780964461155,0.00004996171628590673
1761378665333912600,1.98091259765625,-0.0000666156192892231,-0.00009992343257181346,0.0002997702977154404
1761378665343939800,1.99093994140625,-0.00011657733557512984,0.00039969373028725386,0.0001332312385784462
1761378665353934800,2.000934814453125,0.0002165007608709857,-0.00023315467115025967,-0.00003330780964461155
1761378665363991000,2.010990966796875,-0.00038303982000797987,0.00004996171628590673,-0.0008493491332046688
1761378665374016000,2.02101611328125,0.00009992343257181346,-0.0002165007608709857,-0.0006495022680610418
1761378665384041200,2.031041259765625,0.00024980856687761843,-0.0008493491332046688,-0.0007327718194574118
1761378665394068200,2.041068115234375,-0.0002997702977154404,0.0002664624771568924,0.0002831163874361664
1761378665404093000,2.051093017578125,-0.00008326952229253948,0.00018319295486435294,0.0010325420880690217
1761378665414119000,2.061118896484375,0.0003663859097287059,-0.0010991577291861176,0.00016653904458507895
1761378665424144600,2.07114453125,0.000016653904822305776,-0.00011657733557512984,0.0008326952229253948
1761378665434169900,2.081169921875,0.00038303982000797987,0.0004996171337552369,0.0005828866851516068
1761378665444195300,2.0911953125,-0.00046630934230051935,-0.00004996171628590673,-0.00008326952229253948
1761378665454221000,2.101220947265625,-0.00011657733557512984,0.0007161179091781378,0.0004996171337552369
1761378665464246500,2.11124658203125,-0.0003330780891701579,0.00024980856687761843,0.00039969373028725386
1761378665474272000,2.12127197265625,0.00004996171628590673,-0.0007993874605745077,-0.0000666156192892231
1761378665484298200,2.13129833984375,0.00018319295486435294,-0.00011657733557512984,-0.00048296325257979333
1761378665494324200,2.14132421875,0.0000666156192892231,0.0001332312385784462,-0.0000666156192892231
1761378665504349200,2.15134912109375,0.0003164241788908839,-0.0005828866851516068,-0.00046630934230051935
1761378665514376200,2.161376220703125,0.00016653904458507895,-0.0006495022680610418,0.00003330780964461155
1761378665524379400,2.17137939453125,-0.0002165007608709857,-0.0003164241788908839,-0.0006495022680610418
1761378665534429200,2.18142919921875,-0.0005162710440345109,-0.0010658499086275697,-0.0005662327748723328
1761378665544454000,2.191453857421875,-0.0002997702977154404,-0.0008493491332046688,0.00023315467115025967
1761378665554480600,2.201480712890625,-0.00038303982000797987,-0.0005662327748723328,0.0004163476114626974
1761378665564503600,2.211503662109375,-0.0003663859097287059,-0.0014322358183562756,0.00011657733557512984
1761378665574529500,2.221529541015625,-0.00046630934230051935,-0.0009992342675104737,0.0005662327748723328
1761378665584555000,2.231554931640625,-0.00038303982000797987,0.00009992343257181346,0.00038303982000797987
1761378665594580200,2.241580322265625,-0.00038303982000797987,-0.0005995405954308808,0.0006161945057101548
1761378665604606000,2.25160595703125,0.0001332312385784462,-0.00048296325257979333,0.00003330780964461155
1761378665614631700,2.261631591796875,0.00018319295486435294,0.00008326952229253948,0.0002997702977154404
1761378665624657200,2.2716572265625,-0.00019984686514362693,-0.0007660796400159597,0.0002831163874361664
1761378665634687000,2.28168701171875,0.0003164241788908839,-0.0011324655497446656,0.00019984686514362693
1761378665644716800,2.291716796875,0.00011657733557512984,0.00019984686514362693,0.0002664624771568924
1761378665654718500,2.301718505859375,-0.0004163476114626974,0.000016653904822305776,-0.0002831163874361664
1761378665664742400,2.311742431640625,-0.00011657733557512984,-0.00048296325257979333,0
1761378665674771700,2.321771728515625,-0.0005162710440345109,-0.0002165007608709857,-0.0000666156192892231
1761378665684813300,2.331813232421875,-0.0000666156192892231,-0.000016653904822305776,-0.0006161945057101548
1761378665694837500,2.34183740234375,-0.0006328483577817678,-0.0010158881777897477,-0.0001332312385784462
1761378665704841500,2.351841552734375,-0.0007827335502952337,0.0002997702977154404,-0.0003663859097287059
1761378665714888400,2.361888427734375,-0.00024980856687761843,0.0002664624771568924,0.00039969373028725386
1761378665724914700,2.371914794921875,-0.0006495022680610418,0.0003663859097287059,-0.0003330780891701579
1761378665734939400,2.381939453125,-0.00018319295486435294,0.0005662327748723328,-0.0007660796400159597
1761378665744964900,2.39196484375,-0.0003164241788908839,0.0001332312385784462,0.0004996171337552369
1761378665754991000,2.4019912109375,-0.0003497319994494319,-0.0002831163874361664,-0.0009992342675104737
1761378665765016800,2.412016845703125,-0.00004996171628590673,0.00018319295486435294,0.0006161945057101548
1761378665775042600,2.42204248046875,-0.0003330780891701579,-0.0002997702977154404,0.00023315467115025967
1761378665785067800,2.43206787109375,-0.0003330780891701579,0.0001332312385784462,0
1761378665795093800,2.44209375,0.0001332312385784462,0.0002997702977154404,0.0002831163874361664
1761378665805119700,2.45211962890625,-0.00011657733557512984,0.0002997702977154404,-0.0001498851488577202
1761378665815145500,2.4621455078125,0.00024980856687761843,0.00011657733557512984,0.00023315467115025967
1761378665825170000,2.472169921875,-0.0002664624771568924,0.00046630934230051935,0.0007327718194574118
1761378665835195400,2.4821953125,0.00024980856687761843,-0.0003663859097287059,0.0003663859097287059
1761378665845222400,2.492222412109375,-0.0002664624771568924,-0.00048296325257979333,-0.00004996171628590673
1761378665855248400,2.502248291015625,-0.00024980856687761843,-0.0008660030434839427,-0.0002165007608709857
1761378665865273600,2.512273681640625,-0.0005162710440345109,-0.00019984686514362693,-0.0003330780891701579
1761378665875283000,2.522282958984375,-0.0003330780891701579,-0.0002997702977154404,-0.0003164241788908839
1761378665885302300,2.53230224609375,-0.0002997702977154404,0.00004996171628590673,-0.0003663859097287059
1761378665895351000,2.54235107421875,-0.00003330780964461155,-0.00039969373028725386,0.00008326952229253948
1761378665905377000,2.552376953125,0.00024980856687761843,0.00019984686514362693,-0.00004996171628590673
1761378665915406000,2.562406005859375,-0.000016653904822305776,0.0002664624771568924,-0.00008326952229253948
1761378665925429000,2.572428955078125,-0.00018319295486435294,0.0004330015217419714,0.00003330780964461155
1761378665935456000,2.5824560546875,0.000016653904822305776,0.0000666156192892231,0.0008660030434839427
1761378665945481200,2.592481201171875,0.0001498851488577202,0.00023315467115025967,0.0004996171337552369
1761378665955503900,2.60250390625,0.00003330780964461155,0.0002831163874361664,0.00004996171628590673
1761378665965529300,2.612529296875,0.00011657733557512984,0.0005162710440345109,-0.0007827335502952337
1761378665975554600,2.622554443359375,-0.0003497319994494319,0.000016653904822305776,0.00009992343257181346
1761378665985581000,2.6325810546875,0.0002664624771568924,0.00008326952229253948,0.00011657733557512984
1761378665995606500,2.6426064453125,-0.0002997702977154404,0.0003497319994494319,0.0005162710440345109
1761378666005610800,2.65261083984375,-0.0002997702977154404,0.0005662327748723328,0.0003663859097287059
1761378666015657700,2.66265771484375,-0.0007827335502952337,-0.0006661561783403158,-0.0002831163874361664
1761378666025689000,2.672689208984375,0.0001498851488577202,0.00016653904458507895,-0.00038303982000797987
1761378666035720400,2.682720458984375,-0.00024980856687761843,0.00009992343257181346,0.00046630934230051935
1761378666045733400,2.6927333984375,0.00009992343257181346,0.00016653904458507895,0.0002831163874361664
1761378666055764700,2.7027646484375,-0.00038303982000797987,-0.00048296325257979333,-0.0003497319994494319
1761378666065805000,2.71280517578125,-0.0001332312385784462,0.00046630934230051935,-0.00039969373028725386
1761378666075815400,2.7228154296875,-0.0000666156192892231,0.00023315467115025967,0.0004163476114626974
1761378666085837300,2.73283740234375,-0.0001498851488577202,-0.0002165007608709857,-0.0007827335502952337
1761378666095863300,2.74286328125,-0.0002165007608709857,0.0009159647743217647,0.00023315467115025967
1761378666105888300,2.75288818359375,-0.00046630934230051935,-0.0007161179091781378,0.0007660796400159597
1761378666115913700,2.762913818359375,-0.0002831163874361664,-0.0004330015217419714,0.00018319295486435294
1761378666125940200,2.772940185546875,0.00003330780964461155,-0.00018319295486435294,-0.00018319295486435294
1761378666135965200,2.782965087890625,-0.00016653904458507895,0.00039969373028725386,0.0001498851488577202
1761378666145990700,2.79299072265625,0.00024980856687761843,-0.0005162710440345109,-0.00039969373028725386
1761378666156017700,2.803017578125,0.00016653904458507895,-0.0002165007608709857,-0.0006161945057101548
1761378666166043100,2.813043212890625,0.00004996171628590673,-0.0003663859097287059,0.00038303982000797987
1761378666176068400,2.823068359375,-0.00023315467115025967,-0.00048296325257979333,-0.000016653904822305776
1761378666186093800,2.83309375,0.00011657733557512984,0.0002664624771568924,0.0001498851488577202
1761378666196119800,2.843119873046875,0.0002831163874361664,0.0002997702977154404,-0.0000666156192892231
1761378666206110200,2.853110107421875,-0.0006495022680610418,-0.0003164241788908839,-0.0005329249543137848
1761378666216172000,2.863172119140625,-0.0005662327748723328,0.000016653904822305776,-0.000016653904822305776
1761378666226197200,2.873197265625,-0.0008993108640424907,0.0003330780891701579,0.0005495788645930588
1761378666236200400,2.883200439453125,-0.0010158881777897477,-0.0010158881777897477,0.00004996171628590673
1761378666246247200,2.8932470703125,-0.0006328483577817678,-0.00038303982000797987,0.0003663859097287059
1761378666256273000,2.90327294921875,0.00003330780964461155,0.0004163476114626974,0.00038303982000797987
1761378666266300000,2.9132998046875,0.0003164241788908839,0.00009992343257181346,-0.00011657733557512984
1761378666276325600,2.92332568359375,-0.0009992342675104737,-0.0003330780891701579,0.00024980856687761843
1761378666286350300,2.933350341796875,0.00018319295486435294,0.00039969373028725386,0.0005162710440345109
1761378666296378000,2.943378173828125,0.00018319295486435294,0.0000666156192892231,0.0011657733703032136
1761378666306406100,2.95340625,0.00004996171628590673,0.00016653904458507895,0.0008160413126461208
1761378666316429600,2.9634296875,-0.0001332312385784462,0.00016653904458507895,-0.0002831163874361664
1761378666326454500,2.97345458984375,-0.0008326952229253948,0.00011657733557512984,-0.0002165007608709857
1761378666336479500,2.9834794921875,-0.0005995405954308808,-0.000016653904822305776,-0.00019984686514362693
1761378666346504700,2.993504638671875,-0.0007993874605745077,0.00024980856687761843,0.00039969373028725386
1761378666356531200,3.00353125,-0.0005162710440345109,-0.0005162710440345109,-0.0005162710440345109
1761378666366556700,3.013556640625,-0.00024980856687761843,-0.00038303982000797987,-0.0009492725948803127
1761378666376581600,3.02358154296875,-0.0003164241788908839,0.0002831163874361664,0.00048296325257979333
1761378666386608000,3.033608154296875,-0.0003663859097287059,0.0010658499086275697,0.0003330780891701579
1761378666396632300,3.04363232421875,0.00008326952229253948,-0.0005995405954308808,-0.0005329249543137848
1761378666406644200,3.053644287109375,-0.0002165007608709857,0.0007161179091781378,-0.00011657733557512984
1761378666416661800,3.063661865234375,-0.0000666156192892231,0.0008160413126461208,0.000016653904822305776
1761378666426715100,3.073715087890625,-0.0005662327748723328,0.00039969373028725386,0.0003330780891701579
1761378666436714200,3.08371435546875,-0.00044965543202124536,-0.00004996171628590673,0.00046630934230051935
1761378666446742800,3.09374267578125,-0.0003663859097287059,0.00011657733557512984,-0.0002997702977154404
1761378666456802600,3.103802490234375,0.00023315467115025967,-0.00018319295486435294,0.000016653904822305776
1761378666466811600,3.113811767578125,0.0006161945057101548,-0.00024980856687761843,-0.00018319295486435294
1761378666476838400,3.12383837890625,-0.00038303982000797987,-0.00008326952229253948,-0.0000666156192892231
1761378666486864400,3.133864501953125,-0.0008160413126461208,-0.0010825038189068437,-0.0004330015217419714
1761378666496889600,3.1438896484375,-0.0003164241788908839,-0.0003330780891701579,0.00011657733557512984
1761378666506915000,3.1539150390625,-0.00024980856687761843,-0.00008326952229253948,-0.0001498851488577202
1761378666516940800,3.16394091796875,0,0.00038303982000797987,-0.0005662327748723328
1761378666526966800,3.173966796875,0.00024980856687761843,-0.00009992343257181346,-0.0005329249543137848
1761378666536980200,3.183980224609375,0.0008993108640424907,-0.00024980856687761843,-0.0007993874605745077
1761378666547017700,3.194017822265625,0.0003164241788908839,-0.0006328483577817678,-0.0002664624771568924
1761378666557044200,3.204044189453125,-0.0005662327748723328,-0.0002165007608709857,0.00019984686514362693
1761378666567049200,3.21404931640625,0.0006328483577817678,-0.00019984686514362693,0.0005828866851516068
1761378666577095000,3.224094970703125,-0.0001332312385784462,-0.00016653904458507895,0.00011657733557512984
1761378666587099100,3.23409912109375,0.0006161945057101548,0.000016653904822305776,0.00008326952229253948
1761378666597146600,3.244146728515625,0.0009992342675104737,0.0008493491332046688,0.0006828100886195898
1761378666607145200,3.254145263671875,0.0005995405954308808,0.007011293899267912,0.0011491194600239396
1761378666617197300,3.264197265625,-0.00009992343257181346,0.011790964752435684,-0.0002165007608709857
1761378666627224000,3.27422412109375,-0.00046630934230051935,-0.002364854561164975,0
1761378666637249000,3.2842490234375,-0.00008326952229253948,-0.0002664624771568924,0.0002831163874361664
1761378666647275800,3.29427587890625,-0.0008993108640424907,0.007344372104853392,-0.0005662327748723328
1761378666657300200,3.30430029296875,-0.0008160413126461208,0.00009992343257181346,0.0008326952229253948
1761378666667325700,3.31432568359375,-0.00048296325257979333,-0.0003497319994494319,-0.0000666156192892231
1761378666677351200,3.32435107421875,-0.0008993108640424907,0.00704460171982646,-0.0002831163874361664
1761378666687378200,3.334378173828125,-0.00008326952229253948,0.007777373772114515,-0.00008326952229253948
1761378666697403600,3.344403564453125,-0.00024980856687761843,0.007327718194574118,-0.0010825038189068437
1761378666707428400,3.354428466796875,-0.0004996171337552369,0.006694869603961706,-0.00023315467115025967
1761378666717454300,3.364454345703125,0.0005995405954308808,0.0044465926475822926,0.0001332312385784462
1761378666727480000,3.37447998046875,0.00019984686514362693,0.004779670853167772,0.00024980856687761843
1761378666737505500,3.384505615234375,-0.00016653904458507895,0.002431470202282071,-0.0005828866851516068
1761378666747531300,3.39453125,-0.00018319295486435294,0.0003497319994494319,0.0004996171337552369
1761378666757556700,3.404556640625,0.0000666156192892231,-0.0003497319994494319,-0.00019984686514362693
1761378666767556600,3.414556640625,-0.0006328483577817678,-0.0008160413126461208,-0.0000666156192892231
1761378666777608200,3.424608154296875,-0.0006828100886195898,-0.0002165007608709857,0.00024980856687761843
1761378666787633700,3.434633544921875,-0.0004330015217419714,-0.0016320826252922416,0.00003330780964461155
1761378666797660400,3.444660400390625,-0.00011657733557512984,-0.0017486599972471595,0.0007494257297366858
1761378666807685000,3.45468505859375,-0.00016653904458507895,-0.005046132951974869,-0.0005329249543137848
1761378666817710800,3.4647109375,0.0002997702977154404,-0.011074846610426903,-0.0006828100886195898
1761378666827736600,3.474736572265625,-0.0002997702977154404,-0.009093032218515873,0.0000666156192892231
1761378666837761800,3.48476171875,-0.0003164241788908839,-0.007327718194574118,-0.00048296325257979333
1761378666847787500,3.49478759765625,0.00018319295486435294,-0.01102488487958908,0.0003164241788908839
1761378666857813500,3.5048134765625,-0.0003663859097287059,-0.009925727732479572,0.0010491959983482957
1761378666867839200,3.514839111328125,-0.0009492725948803127,0.006611600052565336,-0.00019984686514362693
1761378666877864400,3.524864501953125,-0.0010158881777897477,0.0004163476114626974,0.0007827335502952337
1761378666887891000,3.534890869140625,-0.0005828866851516068,-0.0075608729384839535,0.0009492725948803127
1761378666897916700,3.544916748046875,-0.0010491959983482957,0.003264165250584483,0.00004996171628590673
1761378666907941400,3.55494140625,-0.0021316998172551394,0.0025313934311270714,0.0016154287150129676
1761378666917968000,3.5649677734375,-0.0015987749211490154,-0.005745597183704376,0.0001332312385784462
1761378666927993000,3.5749931640625,-0.0010325420880690217,0.0003164241788908839,0.00038303982000797987
1761378666938018600,3.5850185546875,-0.0005162710440345109,0.003680513007566333,0.00004996171628590673
1761378666948028400,3.5950283203125,0.00019984686514362693,-0.0021816615480929613,0.0005162710440345109
1761378666958081300,3.605081298828125,0.0007327718194574118,-0.00038303982000797987,0.00011657733557512984
1761378666968071700,3.61507177734375,0.0005662327748723328,0.003347434801980853,0.0002165007608709857
1761378666978120200,3.6251201171875,0.0006661561783403158,-0.00039969373028725386,0.0007327718194574118
1761378666988145000,3.635144775390625,0.0009492725948803127,-0.0011990811908617616,0.0006994639988988638
1761378666998170600,3.645170654296875,0.0006328483577817678,0.0020650841761380434,0.0002165007608709857
1761378667008175000,3.655175048828125,-0.00009992343257181346,-0.0008993108640424907,-0.0002831163874361664
1761378667018221800,3.665221923828125,0,-0.0017486599972471595,-0.00039969373028725386
1761378667028247600,3.67524755859375,-0.0003497319994494319,0.0015654671005904675,0.00024980856687761843
1761378667038273000,3.68527294921875,-0.00018319295486435294,0.0006328483577817678,0.0006828100886195898
1761378667048298800,3.695298828125,-0.0006828100886195898,-0.0013156584464013577,0.00008326952229253948
1761378667058324200,3.70532421875,-0.0013323123566806316,0.0009326186846010387,-0.0002997702977154404
1761378667068350000,3.715349853515625,-0.0005662327748723328,0.0011491194600239396,0.0004996171337552369
1761378667078375700,3.725375732421875,0.00023315467115025967,-0.0011657733703032136,-0.00048296325257979333
1761378667088401400,3.7354013671875,0.0002165007608709857,0,-0.00004996171628590673
1761378667098410500,3.745410400390625,0.0007327718194574118,0.0016487365355715156,0.0012656967155635357
1761378667108452600,3.75545263671875,0.0002165007608709857,0.0003497319994494319,-0.0002664624771568924
1761378667118436600,3.7654365234375,0.00009992343257181346,0.00003330780964461155,-0.0006661561783403158
1761378667128503800,3.77550390625,-0.00038303982000797987,0.0009992342675104737,0.00016653904458507895
1761378667138530000,3.785530029296875,-0.0010658499086275697,-0.0011824272805824876,0.0006328483577817678
1761378667148556000,3.79555615234375,-0.0016487365355715156,-0.0014821975491940975,0.0010158881777897477
1761378667158581000,3.8055810546875,-0.0022482771892100573,-0.0005329249543137848,0.0008493491332046688
1761378667168607200,3.815607177734375,-0.0018319295486435294,-0.0012490428052842617,0.0007660796400159597
1761378667178633200,3.82563330078125,-0.0009992342675104737,-0.0006828100886195898,0.00011657733557512984
1761378667188660200,3.83566015625,-0.0005162710440345109,0.0006661561783403158,-0.0002997702977154404
1761378667198685000,3.845684814453125,0.0003497319994494319,-0.0000666156192892231,-0.0011824272805824876
1761378667208710100,3.855710205078125,0.0008493491332046688,0.0009492725948803127,-0.00018319295486435294
1761378667218737000,3.86573681640625,0.0015155053697526455,0.0011990811908617616,-0.0005495788645930588
1761378667228760600,3.875760498046875,0.0012490428052842617,0.00039969373028725386,-0.0004163476114626974
1761378667238786000,3.8857861328125,0.00016653904458507895,0.00023315467115025967,0.0006161945057101548
1761378667248811800,3.895811767578125,-0.0003164241788908839,0,0.0001498851488577202
1761378667258837500,3.90583740234375,-0.0000666156192892231,0,0.0004996171337552369
1761378667268831700,3.915831787109375,-0.0011824272805824876,0.000016653904822305776,0.0003663859097287059
1761378667278889000,3.925888916015625,-0.0010158881777897477,0.00008326952229253948,0.0001498851488577202
1761378667288914400,3.93591455078125,-0.0016320826252922416,-0.0006661561783403158,0.0008826569537632167
1761378667298920400,3.94592041015625,-0.0014821975491940975,-0.00038303982000797987,0.0009159647743217647
1761378667308971000,3.955970947265625,-0.0009992342675104737,-0.0005828866851516068,0.00024980856687761843
1761378667318995700,3.96599560546875,-0.0006828100886195898,0.0002165007608709857,-0.0006828100886195898
1761378667328998700,3.97599853515625,-0.0005495788645930588,-0.00016653904458507895,-0.00008326952229253948
1761378667339060000,3.98606005859375,-0.0006161945057101548,-0.0003663859097287059,0.00011657733557512984
1761378667349069300,3.9960693359375,-0.0006994639988988638,-0.0002664624771568924,0.0004996171337552369
1761378667359094300,4.00609423828125,-0.00044965543202124536,0.0006495022680610418,0.0005162710440345109
1761378667369119500,4.016119384765625,-0.0005329249543137848,-0.00044965543202124536,-0.00011657733557512984
1761378667379145500,4.0261455078125,-0.0004163476114626974,0.0001498851488577202,-0.0011491194600239396
1761378667389171200,4.036171142578125,-0.0004996171337552369,0.0002997702977154404,-0.00019984686514362693
1761378667399196200,4.046196044921875,-0.0006828100886195898,-0.0007494257297366858,-0.0006661561783403158
1761378667409222100,4.05622216796875,-0.0004996171337552369,0.00004996171628590673,-0.0003497319994494319
1761378667419247900,4.066247802734375,-0.0005495788645930588,0.0004996171337552369,0.00004996171628590673
1761378667429273600,4.076273681640625,-0.0008326952229253948,-0.0013822740875184536,-0.0002831163874361664
1761378667439299000,4.086299072265625,-0.0011324655497446656,-0.00046630934230051935,0.0014488897286355495
1761378667449324800,4.09632470703125,-0.0004996171337552369,0.00048296325257979333,0.0005828866851516068
1761378667459350500,4.1063505859375,-0.0007827335502952337,-0.0002997702977154404,0.0004330015217419714
1761378667469356500,4.1163564453125,-0.0006161945057101548,0.0004330015217419714,0.0008826569537632167
1761378667479401700,4.126401611328125,-0.0012823506258428097,0.0006495022680610418,-0.00003330780964461155
1761378667489427500,4.136427490234375,-0.0014988514594733715,-0.0006328483577817678,-0.0004163476114626974
1761378667499432400,4.146432373046875,-0.0007161179091781378,-0.0005995405954308808,0.0003330780891701579
1761378667509479000,4.15647900390625,-0.0000666156192892231,0.00009992343257181346,0.0005828866851516068
1761378667519504600,4.166504638671875,-0.0009159647743217647,-0.00044965543202124536,-0.00023315467115025967
1761378667529530000,4.176530029296875,-0.0005828866851516068,-0.0003330780891701579,-0.0005162710440345109
1761378667539555600,4.1865556640625,-0.00023315467115025967,-0.00004996171628590673,-0.0002997702977154404
1761378667549581300,4.196581298828125,0.0002664624771568924,-0.0005995405954308808,0.0000666156192892231
1761378667559586600,4.206586669921875,0.0006495022680610418,-0.0002165007608709857,0.0002831163874361664
1761378667569633800,4.2166337890625,-0.0003497319994494319,0.000016653904822305776,0.0002997702977154404
1761378667579661000,4.2266611328125,-0.00018319295486435294,-0.00009992343257181346,-0.00011657733557512984
1761378667589684700,4.236684814453125,-0.0002165007608709857,-0.0003497319994494319,-0.00004996171628590673
1761378667599711500,4.24671142578125,-0.0005662327748723328,0.0001498851488577202,-0.0003497319994494319
1761378667609737000,4.256737060546875,-0.0006495022680610418,-0.0006828100886195898,0.0005495788645930588
1761378667619761000,4.266760986328125,-0.00048296325257979333,-0.0005162710440345109,-0.0001332312385784462
1761378667629767400,4.276767333984375,-0.0006328483577817678,-0.0001332312385784462,0.0011990811908617616
1761378667639812400,4.286812255859375,-0.00019984686514362693,-0.0004163476114626974,0.00044965543202124536
1761378667649837800,4.296837890625,-0.0000666156192892231,0.00024980856687761843,0.0006661561783403158
1761378667659863800,4.30686376953125,-0.0004163476114626974,0.00019984686514362693,0.0002831163874361664
1761378667669870800,4.316870849609375,-0.0006661561783403158,0.0003164241788908839,0.0006661561783403158
1761378667679894500,4.32689453125,0.0002997702977154404,0.0001498851488577202,0.0005828866851516068
1761378667689941000,4.33694091796875,-0.0005828866851516068,0.00011657733557512984,0.0001498851488577202
1761378667699971300,4.346971435546875,-0.0004163476114626974,0.00004996171628590673,-0.00016653904458507895
1761378667709993200,4.3569931640625,-0.0004330015217419714,0.0001332312385784462,-0.00016653904458507895
1761378667719999000,4.3669990234375,-0.0008326952229253948,-0.0001332312385784462,-0.0003330780891701579
1761378667730056000,4.377055908203125,-0.0006495022680610418,-0.0002997702977154404,-0.0005995405954308808
1761378667740068900,4.38706884765625,-0.0005995405954308808,0.0002831163874361664,-0.00019984686514362693
1761378667750094300,4.39709423828125,-0.0005995405954308808,0.00023315467115025967,0.0005828866851516068
1761378667760120000,4.4071201171875,-0.0010325420880690217,-0.0001498851488577202,0.0007327718194574118
1761378667770145800,4.417145751953125,-0.0002664624771568924,-0.0011824272805824876,-0.0000666156192892231
1761378667780171500,4.427171630859375,-0.0009659265051595867,-0.00004996171628590673,0.0005662327748723328
1761378667790197000,4.437197021484375,-0.0007827335502952337,-0.0001498851488577202,-0.00024980856687761843
1761378667800206000,4.4472060546875,-0.0007827335502952337,0.00016653904458507895,0.00039969373028725386
1761378667810248200,4.457248291015625,-0.0003497319994494319,-0.00009992343257181346,0.00039969373028725386
1761378667820274000,4.46727392578125,-0.0010158881777897477,0.00008326952229253948,-0.00004996171628590673
1761378667830259700,4.477259765625,-0.0014488897286355495,0.0004330015217419714,0.0000666156192892231
1761378667840325400,4.487325439453125,-0.0006328483577817678,-0.0001332312385784462,-0.0001332312385784462
1761378667850351600,4.4973515625,-0.00044965543202124536,-0.00009992343257181346,0.00019984686514362693
1761378667860377000,4.507377197265625,-0.0005662327748723328,0.00016653904458507895,0.00003330780964461155
1761378667870403000,4.517403076171875,-0.0008160413126461208,-0.0004163476114626974,0.0002831163874361664
1761378667880428000,4.527427978515625,0.00008326952229253948,0.0000666156192892231,-0.000016653904822305776
1761378667890453500,4.53745361328125,-0.00004996171628590673,0.000016653904822305776,0.00003330780964461155
1761378667900479700,4.547479736328125,0.0002165007608709857,-0.00018319295486435294,-0.0002664624771568924
1761378667910505000,4.5575048828125,-0.0001332312385784462,0.00046630934230051935,0.0001332312385784462
1761378667920530700,4.56753076171875,0.00038303982000797987,0.0002997702977154404,-0.0005162710440345109
1761378667930556400,4.577556396484375,-0.0002165007608709857,-0.00009992343257181346,-0.00039969373028725386
1761378667940583000,4.5875830078125,-0.00023315467115025967,0.0001498851488577202,-0.0001498851488577202
1761378667950607600,4.597607666015625,-0.00048296325257979333,0.00019984686514362693,-0.00044965543202124536
1761378667960633000,4.607633056640625,0.0002831163874361664,-0.0005995405954308808,0.00009992343257181346
1761378667970660900,4.617660888671875,0.00044965543202124536,0.00008326952229253948,-0.00008326952229253948
1761378667980684800,4.627684814453125,-0.00039969373028725386,0.0000666156192892231,0.0005662327748723328
1761378667990712300,4.63771240234375,0.0001332312385784462,0.0001498851488577202,-0.0007993874605745077
1761378668000715000,4.647715087890625,0.000016653904822305776,-0.0005329249543137848,-0.0002664624771568924
1761378668010761200,4.65776123046875,0.00048296325257979333,0.00018319295486435294,-0.00048296325257979333
1761378668020786700,4.66778662109375,0.00004996171628590673,-0.00038303982000797987,-0.00008326952229253948
1761378668030830300,4.677830322265625,-0.0004330015217419714,-0.00023315467115025967,-0.00038303982000797987
1761378668040838400,4.68783837890625,-0.0002997702977154404,0.0002997702977154404,-0.0005662327748723328
1761378668050864000,4.697864013671875,-0.00019984686514362693,0.0000666156192892231,-0.0003164241788908839
1761378668060890400,4.707890380859375,0.00019984686514362693,0.0003164241788908839,-0.0005495788645930588
1761378668070896400,4.717896484375,0.0006828100886195898,0.0003330780891701579,-0.0007327718194574118
1761378668080942000,4.727942138671875,0.0007660796400159597,0.0004996171337552369,-0.0003164241788908839
1761378668090971600,4.7379716796875,0.0005995405954308808,0.0006161945057101548,0.0006661561783403158
1761378668100992300,4.7479921875,-0.00016653904458507895,-0.000016653904822305776,-0.0002664624771568924
1761378668110998500,4.75799853515625,0.00008326952229253948,-0.0008493491332046688,0.00008326952229253948
1761378668121050400,4.76805029296875,-0.00004996171628590673,0.000016653904822305776,-0.000016653904822305776
1761378668131069200,4.778069091796875,-0.00019984686514362693,-0.0003497319994494319,-0.0002997702977154404
1761378668141095000,4.788094970703125,0.00003330780964461155,-0.0010658499086275697,0.00019984686514362693
1761378668151123000,4.798123046875,-0.00011657733557512984,-0.0004330015217419714,0.0001332312385784462
1761378668161175000,4.808175048828125,-0.000016653904822305776,0.0014155819080770016,0.00046630934230051935
1761378668171173000,4.818173095703125,0.0002831163874361664,0.0014322358183562756,0.0002664624771568924
1761378668181198300,4.8281982421875,0.0000666156192892231,0.0000666156192892231,-0.0000666156192892231
1761378668191223000,4.83822314453125,-0.00008326952229253948,-0.0000666156192892231,-0.00003330780964461155
1761378668201249000,4.8482490234375,-0.0008326952229253948,-0.0009326186846010387,0.00003330780964461155
1761378668211274500,4.8582744140625,-0.00046630934230051935,-0.0001332312385784462,0.00003330780964461155
1761378668221300200,4.86830029296875,-0.0004996171337552369,0.0008826569537632167,0.00038303982000797987
1761378668231325700,4.87832568359375,0.0002165007608709857,-0.0001332312385784462,0.0004996171337552369
1761378668241351400,4.888351318359375,0.00039969373028725386,-0.0001498851488577202,0.00004996171628590673
1761378668251377200,4.898377197265625,0.00009992343257181346,0.00023315467115025967,-0.0002831163874361664
1761378668261403000,4.90840283203125,0.0005495788645930588,0.0016320826252922416,0.0006495022680610418
1761378668271428400,4.918428466796875,0.0010325420880690217,0.005096094682812691,0.0005329249543137848
1761378668281454000,4.9284541015625,0.0011158116394653916,0.003713820828124881,-0.0002997702977154404
1761378668291479600,4.9384794921875,0.0003330780891701579,-0.0006828100886195898,-0.0001498851488577202
1761378668301505300,4.94850537109375,-0.0003164241788908839,0.0005162710440345109,0
1761378668311510500,4.958510498046875,-0.0010491959983482957,0.00003330780964461155,0.00044965543202124536
1761378668321557800,4.968557861328125,-0.0005995405954308808,-0.0020817380864173174,0.0012323890114203095
1761378668331547600,4.978547607421875,-0.0006661561783403158,-0.00011657733557512984,0.0009825803572311997
1761378668341608000,4.98860791015625,-0.0007494257297366858,0.0020983919966965914,0.0014655436389148235
1761378668351595800,4.998595703125,0.0000666156192892231,0.0011990811908617616,0.0008993108640424907
1761378668361661700,5.00866162109375,0.00008326952229253948,0.0017653139075264335,0.0005995405954308808
1761378668371685000,5.01868505859375,0.0009659265051595867,0.0026479708030819893,0.0004996171337552369
1761378668381711000,5.028711181640625,0.0003330780891701579,0.0013822740875184536,0.0006828100886195898
1761378668391738600,5.038738525390625,-0.00009992343257181346,0.00023315467115025967,0.0001498851488577202
1761378668401761800,5.04876171875,-0.00039969373028725386,-0.00009992343257181346,0.00023315467115025967
1761378668411787800,5.058787841796875,-0.0009326186846010387,-0.0003497319994494319,0.0000666156192892231
1761378668421813200,5.068813232421875,-0.0005995405954308808,-0.0001498851488577202,-0.0002664624771568924
1761378668431838700,5.078838623046875,0.00003330780964461155,0.00016653904458507895,-0.0005329249543137848
1761378668441864400,5.088864501953125,-0.00044965543202124536,0.0005828866851516068,-0.00011657733557512984
1761378668451890200,5.09889013671875,0.0002664624771568924,0.0009992342675104737,-0.0001332312385784462
1761378668461916000,5.108916015625,-0.00011657733557512984,0.0016320826252922416,-0.0004163476114626974
1761378668471942100,5.118942138671875,0.00019984686514362693,0.002314892830327153,0.0006328483577817678
1761378668481966800,5.128966796875,-0.0003663859097287059,0.0016487365355715156,0.0003164241788908839
1761378668491993000,5.1389931640625,-0.00019984686514362693,0,0.00003330780964461155
1761378668501999400,5.148999267578125,-0.000016653904822305776,0.0009492725948803127,0.0007827335502952337
1761378668512041000,5.159041015625,-0.00019984686514362693,0.0002831163874361664,0.00048296325257979333
1761378668522069800,5.16906982421875,0.00004996171628590673,-0.0006495022680610418,0.0003164241788908839
1761378668532095500,5.179095458984375,-0.0004163476114626974,-0.0005495788645930588,0.0007494257297366858
1761378668542121000,5.189120849609375,-0.0006495022680610418,-0.0005495788645930588,0.00004996171628590673
1761378668552146700,5.199146728515625,-0.00018319295486435294,-0.0013156584464013577,0.00011657733557512984
1761378668562172000,5.209171875,-0.0011158116394653916,0.00019984686514362693,-0.00018319295486435294
1761378668572197600,5.21919775390625,-0.0003663859097287059,0.0005995405954308808,0.0001498851488577202
1761378668582225000,5.229224853515625,-0.0006661561783403158,-0.0005495788645930588,-0.00011657733557512984
1761378668592250600,5.239250732421875,-0.0003330780891701579,0.0004163476114626974,-0.0003164241788908839
1761378668602276600,5.249276611328125,-0.00004996171628590673,0.0003164241788908839,0.00003330780964461155
1761378668612301800,5.2593017578125,-0.0002831163874361664,-0.0000666156192892231,-0.0005662327748723328
1761378668622328000,5.269328125,-0.00004996171628590673,0.00023315467115025967,-0.00004996171628590673
1761378668632353500,5.279353515625,-0.0003164241788908839,-0.00003330780964461155,0.00019984686514362693
1761378668642378800,5.289378662109375,0.0001332312385784462,-0.0012656967155635357,-0.0006994639988988638
1761378668652405200,5.2994052734375,-0.00016653904458507895,0.00023315467115025967,0.000016653904822305776
1761378668662430500,5.309430419921875,-0.00046630934230051935,0.00044965543202124536,-0.00039969373028725386
1761378668672456700,5.319456787109375,-0.0005995405954308808,0.0002165007608709857,0.0001332312385784462
1761378668682462500,5.32946240234375,-0.0004163476114626974,0.0004996171337552369,0.00023315467115025967
1761378668692507100,5.339507080078125,0.00003330780964461155,0.0006161945057101548,0.0005662327748723328
1761378668702532600,5.34953271484375,-0.0007161179091781378,0.0011990811908617616,0.0003330780891701579
1761378668712544300,5.359544189453125,-0.00023315467115025967,0.0005162710440345109,0.0002664624771568924
1761378668722584600,5.36958447265625,-0.0005329249543137848,0.00018319295486435294,0.00003330780964461155
1761378668732587500,5.37958740234375,-0.00003330780964461155,0.0000666156192892231,-0.00016653904458507895
1761378668742636800,5.38963671875,-0.00016653904458507895,0.00046630934230051935,0.000016653904822305776
1761378668752667600,5.399667724609375,-0.00048296325257979333,-0.0003164241788908839,0.00038303982000797987
1761378668762687700,5.409687744140625,0.0000666156192892231,-0.00046630934230051935,0.0002165007608709857
1761378668772716300,5.41971630859375,0.0000666156192892231,-0.00011657733557512984,0.00016653904458507895
1761378668782741200,5.4297412109375,-0.0000666156192892231,0,-0.00008326952229253948
1761378668792764200,5.43976416015625,0.0007161179091781378,-0.00004996171628590673,0.000016653904822305776
1761378668802789000,5.4497890625,-0.0004330015217419714,0.0004330015217419714,-0.0006495022680610418
1761378668812815000,5.459815185546875,0.000016653904822305776,0.0009659265051595867,-0.0005995405954308808
1761378668822841600,5.469841552734375,0.00008326952229253948,0.0003330780891701579,0.0002997702977154404
1761378668832845000,5.479844970703125,-0.0002831163874361664,-0.00018319295486435294,-0.0003497319994494319
1761378668842870300,5.489870361328125,0.0005162710440345109,-0.0006828100886195898,0.00018319295486435294
1761378668852918500,5.49991845703125,-0.0003497319994494319,-0.0005662327748723328,0.00009992343257181346
1761378668862931200,5.50993115234375,-0.0007660796400159597,-0.0008660030434839427,-0.00048296325257979333
1761378668872977000,5.519976806640625,-0.00024980856687761843,-0.0012990045361220837,-0.0002165007608709857
1761378668882997200,5.529997314453125,-0.0007660796400159597,-0.0009159647743217647,0.0007494257297366858
1761378668893003500,5.54000341796875,-0.00039969373028725386,-0.0003663859097287059,0.00044965543202124536
1761378668903062800,5.550062744140625,-0.00003330780964461155,0.0010491959983482957,0.0002997702977154404
1761378668913065700,5.560065673828125,0.0008326952229253948,0.0020983919966965914,0.0009159647743217647
1761378668923097900,5.570097900390625,0.0005495788645930588,0.0014988514594733715,0.0003164241788908839
1761378668933122300,5.580122314453125,0.0002165007608709857,0.0004163476114626974,-0.0003330780891701579
1761378668943148000,5.59014794921875,0.0005495788645930588,-0.0002664624771568924,-0.0008326952229253948
1761378668953175000,5.600175048828125,-0.0006495022680610418,0.0002664624771568924,-0.0006161945057101548
1761378668963200300,5.6102001953125,-0.0004330015217419714,-0.0010491959983482957,-0.0011990811908617616
1761378668973225700,5.620225830078125,-0.00003330780964461155,-0.0017986217280849814,-0.0010658499086275697
1761378668983251500,5.63025146484375,-0.00024980856687761843,-0.0009992342675104737,-0.0006661561783403158
1761378668993277000,5.64027685546875,0.0000666156192892231,-0.0005662327748723328,0.00039969373028725386
1761378669003302700,5.650302734375,0.0001332312385784462,0.00019984686514362693,0.0005162710440345109
1761378669013308200,5.66030810546875,0.0003663859097287059,0.0013489662669599056,0.0001332312385784462
1761378669023354000,5.67035400390625,0.0004163476114626974,0.0012157351011410356,0.0003663859097287059
1761378669033380000,5.680380126953125,0.00039969373028725386,0.00009992343257181346,0.0004996171337552369
1761378669043384600,5.690384521484375,0.0008993108640424907,-0.0006828100886195898,-0.0005995405954308808
1761378669053431300,5.700431396484375,0.0006495022680610418,-0.0005995405954308808,0.0001332312385784462
1761378669063457000,5.71045703125,0.00016653904458507895,-0.0012990045361220837,-0.00038303982000797987
1761378669073482200,5.720482177734375,-0.0003497319994494319,-0.0017986217280849814,0.00003330780964461155
1761378669083491300,5.7304912109375,-0.00018319295486435294,-0.0006161945057101548,-0.0006495022680610418
1761378669093533400,5.740533447265625,-0.0005162710440345109,-0.0006328483577817678,-0.00011657733557512984
1761378669103559000,5.750558837890625,0.0002997702977154404,0.0001498851488577202,0.00024980856687761843
1761378669113585400,5.76058544921875,0.0006161945057101548,0.0008993108640424907,-0.0003497319994494319
1761378669123610600,5.770610595703125,-0.0001332312385784462,0.002348200650885701,0.00019984686514362693
1761378669133637600,5.7806376953125,0.00044965543202124536,0.0010325420880690217,0.0002664624771568924
1761378669143667000,5.7906669921875,0.0003164241788908839,0.0012490428052842617,-0.00018319295486435294
1761378669153688800,5.800688720703125,-0.00011657733557512984,0.0009992342675104737,-0.0006328483577817678
1761378669163717600,5.810717529296875,0.0003330780891701579,0.0011990811908617616,0.00008326952229253948
1761378669173742300,5.820742431640625,-0.00003330780964461155,0.00039969373028725386,0.0000666156192892231
1761378669183764700,5.8307646484375,0.00024980856687761843,0.0005495788645930588,-0.0006161945057101548
1761378669193791000,5.840791015625,0.0004996171337552369,0.0007161179091781378,0.0007660796400159597
1761378669203816000,5.85081591796875,0.0002664624771568924,-0.00018319295486435294,-0.0008326952229253948
1761378669213838800,5.8608388671875,-0.0009825803572311997,0.00046630934230051935,-0.0008160413126461208
1761378669223868400,5.870868408203125,-0.0003497319994494319,-0.00008326952229253948,-0.00023315467115025967
1761378669233893600,5.8808935546875,0.0002165007608709857,-0.0002664624771568924,0.00008326952229253948
1761378669243900000,5.89089990234375,0.0003330780891701579,-0.00019984686514362693,-0.00039969373028725386
1761378669253949700,5.90094970703125,0.0004330015217419714,-0.0006495022680610418,-0.0007827335502952337
1761378669263979300,5.910979248046875,0.0001332312385784462,-0.0007827335502952337,-0.0009992342675104737
1761378669273995300,5.920995361328125,0.00039969373028725386,-0.0013656201772391796,-0.0009326186846010387
1761378669284002800,5.9310029296875,0.000016653904822305776,-0.0012656967155635357,-0.0006661561783403158
1761378669294064400,5.941064453125,-0.0002664624771568924,-0.0016653904458507895,-0.0006495022680610418
1761378669304064000,5.95106396484375,-0.0002997702977154404,-0.0016986982664093375,-0.0000666156192892231
1761378669314098400,5.961098388671875,-0.0010325420880690217,-0.0008326952229253948,0
1761378669324124000,5.9711240234375,0.00008326952229253948,-0.0015987749211490154,-0.0002997702977154404
1761378669334150100,5.981150146484375,0.00044965543202124536,-0.0018985451897606254,-0.00016653904458507895
1761378669344174800,5.9911748046875,-0.000016653904822305776,-0.0019984685350209475,0.00008326952229253948
1761378669354200000,6.001199951171875,0.00004996171628590673,-0.0022982389200478792,-0.0006161945057101548
1761378669364226300,6.011226318359375,-0.00011657733557512984,-0.0027145864441990852,-0.0011990811908617616
1761378669374251800,6.021251708984375,-0.0005995405954308808,-0.0026313168928027153,0.0004163476114626974
1761378669384277500,6.031277587890625,-0.0013156584464013577,-0.002781202085316181,-0.00044965543202124536
1761378669394303000,6.041302978515625,-0.0007660796400159597,-0.0022982389200478792,0.00008326952229253948
1761378669404329500,6.05132958984375,-0.00004996171628590673,-0.0017653139075264335,-0.0002997702977154404
1761378669414352600,6.0613525390625,0.0011990811908617616,-0.0018985451897606254,-0.0009492725948803127
1761378669424380400,6.07138037109375,0.0003663859097287059,0.0018152756383642554,-0.0016487365355715156
1761378669434405000,6.081405029296875,-0.00019984686514362693,-0.0016986982664093375,-0.0011491194600239396
1761378669444432000,6.091431884765625,-0.0002831163874361664,-0.0011824272805824876,-0.0011657733703032136
1761378669454456600,6.10145654296875,-0.00018319295486435294,0.00004996171628590673,-0.0005162710440345109
1761378669464462300,6.11146240234375,-0.0007327718194574118,-0.0012823506258428097,0.00003330780964461155
1761378669474507800,6.1215078125,-0.0009992342675104737,-0.0005828866851516068,0.00038303982000797987
1761378669484534000,6.131533935546875,-0.0005495788645930588,0.0004330015217419714,-0.000016653904822305776
1761378669494560500,6.141560546875,-0.0006495022680610418,-0.0007327718194574118,0.000016653904822305776
1761378669504585700,6.151585693359375,-0.0003164241788908839,-0.00038303982000797987,-0.0008160413126461208
1761378669514611000,6.16161083984375,-0.0004996171337552369,0.00039969373028725386,0.0005329249543137848
1761378669524638200,6.17163818359375,-0.0002664624771568924,0.0003497319994494319,0.00016653904458507895
1761378669534663200,6.1816630859375,-0.0004330015217419714,-0.0003663859097287059,0.0012656967155635357
1761378669544668700,6.191668701171875,-0.0009492725948803127,-0.0006495022680610418,0.0009159647743217647
1761378669554716400,6.20171630859375,-0.0008826569537632167,-0.0005995405954308808,0.0006495022680610418
1761378669564744000,6.211743896484375,-0.0009159647743217647,0.00004996171628590673,-0.0000666156192892231
1761378669574743000,6.221742919921875,-0.0008160413126461208,-0.00048296325257979333,0.0001332312385784462
1761378669584790500,6.23179052734375,-0.0004330015217419714,0.00023315467115025967,-0.0006328483577817678
1761378669594816000,6.24181591796875,-0.0006828100886195898,0.0005329249543137848,-0.00046630934230051935
1761378669604842000,6.251842041015625,-0.0010158881777897477,-0.0003164241788908839,0.00016653904458507895
1761378669614867700,6.26186767578125,-0.00046630934230051935,0,0.0004996171337552369
1761378669624893700,6.271893798828125,-0.0006495022680610418,-0.0006161945057101548,0.0001498851488577202
1761378669634920000,6.281919921875,-0.00011657733557512984,-0.00009992343257181346,0.0002997702977154404
1761378669644950300,6.2919501953125,-0.00024980856687761843,0.0003164241788908839,-0.0002165007608709857
1761378669654977500,6.3019775390625,-0.0007161179091781378,-0.00019984686514362693,-0.0005495788645930588
1761378669664974600,6.311974609375,-0.0008493491332046688,-0.00046630934230051935,0.0000666156192892231
1761378669674996000,6.321995849609375,-0.00018319295486435294,0.00004996171628590673,0.0001498851488577202
1761378669685062100,6.332062255859375,0.0002165007608709857,-0.0002165007608709857,-0.00016653904458507895
1761378669695065300,6.3420654296875,-0.00044965543202124536,0.00008326952229253948,0.0002997702977154404
1761378669705098800,6.3520986328125,-0.0003330780891701579,-0.0009992342675104737,-0.00009992343257181346
1761378669715123200,6.362123291015625,0.00008326952229253948,-0.0003330780891701579,-0.00004996171628590673
1761378669725150500,6.372150390625,0.0005162710440345109,0.00023315467115025967,-0.00024980856687761843
1761378669735174700,6.382174560546875,0.00008326952229253948,-0.0007494257297366858,0.0004996171337552369
1761378669745179000,6.392178955078125,-0.00016653904458507895,-0.0010158881777897477,-0.00003330780964461155
1761378669755227600,6.4022275390625,-0.00018319295486435294,-0.00009992343257181346,0.0001332312385784462
1761378669765251600,6.41225146484375,0.0005995405954308808,-0.0009825803572311997,-0.00046630934230051935
1761378669775257300,6.42225732421875,0.0002831163874361664,-0.0009159647743217647,-0.0007827335502952337
1761378669785303000,6.432302978515625,0.0006328483577817678,-0.0002664624771568924,-0.0006495022680610418
1761378669795329300,6.442329345703125,0.0010991577291861176,-0.0006161945057101548,-0.00044965543202124536
1761378669805355300,6.452355224609375,0.00016653904458507895,-0.00008326952229253948,-0.0007660796400159597
1761378669815380700,6.462380615234375,-0.0002165007608709857,-0.0002831163874361664,-0.0004996171337552369
1761378669825405400,6.472405517578125,0.00023315467115025967,-0.0007660796400159597,0.00023315467115025967
1761378669835431400,6.482431396484375,-0.0005162710440345109,-0.0007660796400159597,-0.00019984686514362693
1761378669845453600,6.49245361328125,-0.00044965543202124536,-0.0005662327748723328,-0.000016653904822305776
1761378669855483100,6.502483154296875,-0.00019984686514362693,-0.0007660796400159597,0.0000666156192892231
1761378669865508600,6.512508544921875,-0.00046630934230051935,0.0003663859097287059,-0.00011657733557512984
1761378669875534300,6.522534423828125,0.00009992343257181346,-0.00019984686514362693,-0.00024980856687761843
1761378669885560300,6.532560302734375,0.0000666156192892231,0.00011657733557512984,-0.00011657733557512984
1761378669895586000,6.5425859375,0.0006328483577817678,0.0006328483577817678,0.00044965543202124536
1761378669905608700,6.552608642578125,-0.00044965543202124536,0.00011657733557512984,0.0003164241788908839
1761378669915638800,6.562638671875,0.0003164241788908839,-0.00016653904458507895,0.0006328483577817678
1761378669925664000,6.5726640625,-0.0001332312385784462,-0.0007827335502952337,0.0011990811908617616
1761378669935690200,6.582690185546875,-0.0001498851488577202,-0.0006328483577817678,0.0006161945057101548
1761378669945715000,6.59271484375,0.00009992343257181346,-0.00046630934230051935,-0.0000666156192892231
1761378669955718700,6.60271875,0.0002165007608709857,-0.00024980856687761843,-0.00008326952229253948
1761378669965765400,6.612765380859375,-0.00003330780964461155,-0.0007161179091781378,-0.0002997702977154404
1761378669975763000,6.622762939453125,-0.0003330780891701579,-0.0002664624771568924,-0.00046630934230051935
1761378669985816600,6.632816650390625,0.000016653904822305776,0.0008160413126461208,-0.00044965543202124536
1761378669995842000,6.642842041015625,0.00044965543202124536,0.00019984686514362693,0.00009992343257181346
1761378670005867800,6.65286767578125,0.0008826569537632167,0.0000666156192892231,-0.0003164241788908839
1761378670015892700,6.662892822265625,0.0008493491332046688,0.00019984686514362693,-0.0002831163874361664
1761378670025919000,6.6729189453125,0.0005495788645930588,0.0009159647743217647,-0.0003164241788908839
1761378670035949600,6.682949462890625,0.00004996171628590673,-0.0001332312385784462,-0.00039969373028725386
1761378670045975800,6.692975830078125,0.0005995405954308808,0.00018319295486435294,0.00018319295486435294
1761378670055996200,6.70299609375,0.0006994639988988638,0.00019984686514362693,-0.0004330015217419714
1761378670066003700,6.713003662109375,0.00023315467115025967,0.00023315467115025967,0.00008326952229253948
1761378670076040400,6.72304052734375,0.0005995405954308808,-0.0003663859097287059,-0.0003330780891701579
1761378670086073900,6.733073974609375,0.0011990811908617616,0.0003663859097287059,0.0002831163874361664
1761378670096099800,6.743099853515625,0.00038303982000797987,0.0010158881777897477,0.0004163476114626974
1761378670106102500,6.7531025390625,0.0000666156192892231,0.0002664624771568924,-0.00016653904458507895
1761378670116151000,6.763151123046875,0.0003164241788908839,0.0003330780891701579,-0.0001498851488577202
1761378670126176800,6.7731767578125,-0.0002165007608709857,0.0006495022680610418,0.00038303982000797987
1761378670136203000,6.783203125,0.0005828866851516068,-0.0004163476114626974,0.00019984686514362693
1761378670146227500,6.7932275390625,-0.00016653904458507895,0.0002664624771568924,0.0004330015217419714
1761378670156253000,6.8032529296875,-0.0012323890114203095,-0.0001498851488577202,0.0009326186846010387
1761378670166279200,6.813279052734375,0.00018319295486435294,-0.0000666156192892231,0.0008993108640424907
1761378670176304600,6.8233046875,-0.0002831163874361664,0.0009159647743217647,0.00023315467115025967
1761378670186330000,6.833330078125,-0.00019984686514362693,-0.0003663859097287059,0.0006661561783403158
1761378670196355800,6.84335595703125,-0.0002997702977154404,0.00048296325257979333,0.00008326952229253948
1761378670206381300,6.85338134765625,0.0002664624771568924,0.00038303982000797987,0.00004996171628590673
1761378670216407300,6.8634072265625,0.0002831163874361664,0.00008326952229253948,-0.0000666156192892231
1761378670226432500,6.8734326171875,-0.0002664624771568924,0.0010991577291861176,0.0002664624771568924
1761378670236458200,6.883458251953125,-0.0003497319994494319,-0.000016653904822305776,-0.0004996171337552369
1761378670246483500,6.8934833984375,-0.00044965543202124536,-0.00019984686514362693,0.00009992343257181346
1761378670256510700,6.9035107421875,-0.0002664624771568924,0.0003164241788908839,0.00024980856687761843
1761378670266536200,6.9135361328125,0.00024980856687761843,-0.0002997702977154404,-0.00003330780964461155
1761378670276520000,6.92352001953125,-0.00019984686514362693,-0.000016653904822305776,0.0001498851488577202
1761378670286587100,6.933587158203125,-0.0003164241788908839,0.0013656201772391796,0.0003164241788908839
1761378670296612400,6.9436123046875,0.0002165007608709857,0.00024980856687761843,-0.0001498851488577202
1761378670306640100,6.95364013671875,0.0003663859097287059,0.0001498851488577202,0.0001498851488577202
1761378670316664000,6.9636640625,0.0001332312385784462,0.0008493491332046688,0.0003663859097287059
1761378670326688800,6.973688720703125,0.0000666156192892231,0.0005828866851516068,0.00048296325257979333
1761378670336715500,6.983715576171875,0.0004330015217419714,0.00004996171628590673,0.0008326952229253948
1761378670346741200,6.9937412109375,0.0006328483577817678,-0.00019984686514362693,0.0014488897286355495
1761378670356766200,7.00376611328125,-0.00008326952229253948,-0.00009992343257181346,0.00024980856687761843
1761378670366792000,7.0137919921875,0.00019984686514362693,-0.0008993108640424907,0.00016653904458507895
1761378670376818200,7.023818115234375,-0.0002831163874361664,0.0002165007608709857,0.0009659265051595867
1761378670386843100,7.033843017578125,0.0000666156192892231,0.0009326186846010387,0.0002997702977154404
1761378670396868400,7.043868408203125,0.0002831163874361664,0.00016653904458507895,-0.00048296325257979333
1761378670406894800,7.053894775390625,-0.0000666156192892231,0.0002831163874361664,0.000016653904822305776
1761378670416920800,7.0639208984375,-0.00008326952229253948,0.0005995405954308808,0
1761378670426946600,7.073946533203125,-0.00008326952229253948,0.00044965543202124536,-0.00004996171628590673
1761378670436935200,7.08393505859375,0.00023315467115025967,0.00003330780964461155,0.00018319295486435294
1761378670446998000,7.093998046875,-0.0002165007608709857,0.0003497319994494319,-0.0003663859097287059
1761378670457022500,7.1040224609375,-0.0001498851488577202,0.00046630934230051935,-0.0006994639988988638
1761378670467048200,7.114048095703125,-0.0005329249543137848,-0.0006161945057101548,-0.0010825038189068437
1761378670477052200,7.12405224609375,0.0003497319994494319,0.00003330780964461155,-0.00011657733557512984
1761378670487076600,7.13407666015625,-0.0002664624771568924,0.0007494257297366858,0.0008993108640424907
1761378670497125400,7.14412548828125,0.0003164241788908839,0.00038303982000797987,-0.00048296325257979333
1761378670507150600,7.154150634765625,0.0001332312385784462,-0.00008326952229253948,-0.00011657733557512984
1761378670517176300,7.16417626953125,-0.0001332312385784462,0.0009159647743217647,0.0008826569537632167
1761378670527202000,7.1742021484375,-0.0001332312385784462,-0.0005495788645930588,0.0002165007608709857
1761378670537228000,7.18422802734375,-0.0005495788645930588,-0.0002165007608709857,0.0004330015217419714
1761378670547253000,7.1942529296875,-0.0002664624771568924,0.00009992343257181346,0.0005329249543137848
1761378670557279700,7.20427978515625,0.00008326952229253948,-0.00018319295486435294,0.0006328483577817678
1761378670567304700,7.2143046875,0.0003164241788908839,0.00009992343257181346,-0.000016653904822305776
1761378670577330700,7.22433056640625,-0.0001498851488577202,0.0009159647743217647,-0.0001498851488577202
1761378670587355600,7.234355712890625,0.0001498851488577202,-0.0006661561783403158,0.0002997702977154404
1761378670597381400,7.24438134765625,0.00018319295486435294,-0.00023315467115025967,0.00023315467115025967
1761378670607390200,7.25439013671875,0.0005162710440345109,0.0008993108640424907,0.0005162710440345109
1761378670617433600,7.26443359375,0.0001498851488577202,-0.00016653904458507895,-0.00023315467115025967
1761378670627459800,7.2744599609375,-0.00003330780964461155,0.00046630934230051935,-0.0008493491332046688
1761378670637441000,7.28444091796875,0.0002664624771568924,0.0009659265051595867,-0.0007993874605745077
1761378670647510500,7.294510498046875,-0.00023315467115025967,-0.00024980856687761843,0.0004163476114626974
1761378670657535000,7.304534912109375,0.00008326952229253948,-0.0011158116394653916,0.0008160413126461208
1761378670667561200,7.314561279296875,0.000016653904822305776,0.00016653904458507895,0.00004996171628590673
1761378670677586400,7.32458642578125,-0.00011657733557512984,-0.00048296325257979333,-0.0002664624771568924
1761378670687612700,7.33461279296875,-0.0004330015217419714,-0.00048296325257979333,0.00004996171628590673
1761378670697638700,7.344638671875,0.0002664624771568924,-0.0003497319994494319,-0.0005495788645930588
1761378670707663600,7.35466357421875,0.0003663859097287059,-0.00023315467115025967,0.00011657733557512984
1761378670717690000,7.364690185546875,0.0011158116394653916,0.00004996171628590673,-0.0002831163874361664
1761378670727714800,7.37471484375,0.0014988514594733715,0.0008660030434839427,-0.00016653904458507895
1761378670737741300,7.3847412109375,0.0010658499086275697,0.0006161945057101548,0.0005162710440345109
1761378670747766000,7.39476611328125,0.0002664624771568924,0.0005162710440345109,-0.000016653904822305776
1761378670757792500,7.40479248046875,-0.00023315467115025967,-0.0003330780891701579,0.0003663859097287059
1761378670767818000,7.41481787109375,-0.0003330780891701579,-0.0002165007608709857,-0.00004996171628590673
1761378670777844000,7.424843994140625,-0.0001498851488577202,-0.00044965543202124536,-0.00024980856687761843
1761378670787868400,7.434868408203125,-0.000016653904822305776,-0.00008326952229253948,0.0001332312385784462
1761378670797895400,7.4448955078125,0.00019984686514362693,0.0003164241788908839,-0.0001498851488577202
1761378670807878000,7.4548779296875,0.0003164241788908839,0.0002664624771568924,-0.0018985451897606254
1761378670817946000,7.464946044921875,0.0005162710440345109,0.0001498851488577202,-0.00048296325257979333
1761378670827971300,7.474971435546875,0.0005495788645930588,0.0002664624771568924,0.00044965543202124536
1761378670837982200,7.484982177734375,0.0009159647743217647,0.0013323123566806316,-0.0002165007608709857
1761378670848023800,7.49502392578125,0.0005662327748723328,0.0009659265051595867,-0.00003330780964461155
1761378670858048500,7.505048583984375,-0.0002664624771568924,0,0.0001498851488577202
1761378670868074200,7.51507421875,-0.0007327718194574118,0.0000666156192892231,0.0002664624771568924
1761378670878100200,7.525100341796875,0.00039969373028725386,-0.0003164241788908839,-0.00003330780964461155
1761378670888125200,7.535125244140625,0.00011657733557512984,-0.0003164241788908839,-0.00023315467115025967
1761378670898151000,7.54515087890625,-0.00018319295486435294,-0.0001332312385784462,-0.0000666156192892231
1761378670908177700,7.555177734375,0.00004996171628590673,-0.00009992343257181346,0.00044965543202124536
1761378670918203000,7.565202880859375,-0.00009992343257181346,0.000016653904822305776,-0.00008326952229253948
1761378670928228400,7.575228271484375,-0.0000666156192892231,0.0000666156192892231,0.00044965543202124536
1761378670938254300,7.58525439453125,0.0003164241788908839,0.0002831163874361664,0.00011657733557512984
1761378670948279300,7.595279296875,0.0005495788645930588,-0.00004996171628590673,-0.0001332312385784462
1761378670958305500,7.605305419921875,0.00011657733557512984,-0.0003497319994494319,-0.00003330780964461155
1761378670968331000,7.6153310546875,0.0002165007608709857,0.0002831163874361664,0.0006495022680610418
1761378670978356700,7.625356689453125,0.00004996171628590673,-0.0003164241788908839,-0.0004330015217419714
1761378670988382200,7.63538232421875,0.0002997702977154404,0.00018319295486435294,-0.0003330780891701579
1761378670998408000,7.645407958984375,0.00009992343257181346,0.00009992343257181346,0.0005329249543137848
1761378671008434700,7.6554345703125,-0.00016653904458507895,0.000016653904822305776,0.0001332312385784462
1761378671018464500,7.665464599609375,-0.0002165007608709857,0.0008326952229253948,0.0003164241788908839
1761378671028485000,7.675485107421875,0.00011657733557512984,0.0000666156192892231,0
1761378671038509800,7.685509765625,-0.00016653904458507895,-0.0003663859097287059,-0.0005828866851516068
1761378671048536600,7.69553662109375,-0.0003164241788908839,0.0003164241788908839,-0.0005162710440345109
1761378671058561800,7.705561767578125,-0.0003497319994494319,0.0003497319994494319,-0.0003663859097287059
1761378671068587000,7.7155869140625,0.00009992343257181346,0.00039969373028725386,0.0002165007608709857
1761378671078613200,7.72561328125,0.0006828100886195898,0.0007660796400159597,-0.0004330015217419714
1761378671088638000,7.735637939453125,0.00011657733557512984,0.00046630934230051935,-0.0009825803572311997
1761378671098663700,7.74566357421875,0,0.00009992343257181346,-0.0004163476114626974
1761378671108689400,7.755689453125,0.00023315467115025967,0.0002997702977154404,-0.00039969373028725386
1761378671118716000,7.7657158203125,-0.0002664624771568924,-0.0000666156192892231,-0.00044965543202124536
1761378671128742000,7.775741943359375,0.00044965543202124536,-0.0003497319994494319,-0.0002664624771568924
1761378671138756600,7.785756591796875,-0.00003330780964461155,0.0008326952229253948,0.00048296325257979333
1761378671148792800,7.795792724609375,0.0003330780891701579,0.0006328483577817678,-0.0004163476114626974
1761378671158818000,7.805818115234375,0.00018319295486435294,-0.0004330015217419714,-0.0007161179091781378
1761378671168823600,7.815823486328125,0.00023315467115025967,-0.00004996171628590673,-0.00009992343257181346
1761378671178870300,7.825870361328125,0.0002165007608709857,0.0004996171337552369,0.0001498851488577202
1761378671188872200,7.8358720703125,-0.000016653904822305776,-0.000016653904822305776,0
1761378671198920400,7.84592041015625,-0.000016653904822305776,-0.0008660030434839427,0.00008326952229253948
1761378671208946000,7.85594580078125,0.0004330015217419714,-0.00004996171628590673,-0.00003330780964461155
1761378671218972000,7.865971923828125,-0.0000666156192892231,0.0009159647743217647,0.00048296325257979333
1761378671228997600,7.87599755859375,0.0002664624771568924,0.0009159647743217647,0
1761378671239023900,7.88602392578125,0.0002831163874361664,0.0008660030434839427,-0.00018319295486435294
1761378671249049600,7.896049560546875,0.0011824272805824876,0.0000666156192892231,0.00008326952229253948
1761378671259074800,7.90607470703125,0.00011657733557512984,0.0003164241788908839,0.00023315467115025967
1761378671269100500,7.9161005859375,0.00044965543202124536,0.0009326186846010387,-0.0002664624771568924
1761378671279125500,7.92612548828125,0.0000666156192892231,0.00019984686514362693,-0.00008326952229253948
1761378671289152000,7.936152099609375,-0.00008326952229253948,0.0002997702977154404,-0.0001498851488577202
1761378671299176700,7.9461767578125,-0.00008326952229253948,0.0001498851488577202,-0.000016653904822305776
1761378671309203200,7.956203125,0.00011657733557512984,-0.00019984686514362693,-0.0005162710440345109
1761378671319228700,7.966228759765625,-0.00023315467115025967,-0.00023315467115025967,-0.0007660796400159597
1761378671329254100,7.976254150390625,-0.00048296325257979333,0.00038303982000797987,-0.0003330780891701579
1761378671339276300,7.9862763671875,-0.0002165007608709857,-0.00018319295486435294,0.0001498851488577202
1761378671349305900,7.996305908203125,0.00008326952229253948,0.0004163476114626974,0.0002997702977154404
1761378671359330800,8.006330810546874,-0.00023315467115025967,-0.0003663859097287059,0.0008826569537632167
1761378671369357600,8.016357666015624,0.000016653904822305776,0.0004163476114626974,0.0003663859097287059
1761378671379383000,8.026383056640626,0.00046630934230051935,0.0003663859097287059,0.0001498851488577202
1761378671389408500,8.036408447265625,0.0008993108640424907,0.0013989279977977276,0.00009992343257181346
1761378671399433700,8.046433837890625,-0.0002997702977154404,0.00016653904458507895,0.0004996171337552369
1761378671409459700,8.056459716796875,0.00004996171628590673,-0.0001498851488577202,0.00011657733557512984
1761378671419485400,8.0664853515625,0.0003330780891701579,-0.00008326952229253948,-0.0011824272805824876
1761378671429511000,8.076510986328126,-0.0005828866851516068,-0.0002165007608709857,-0.0003164241788908839
1761378671439536400,8.086536376953125,-0.0006661561783403158,0.00003330780964461155,0.00039969373028725386
1761378671449562400,8.096562255859375,-0.0001498851488577202,0,-0.00044965543202124536
1761378671459587000,8.106587158203125,-0.0008160413126461208,-0.0004996171337552369,0.0002997702977154404
1761378671469613000,8.116613037109374,-0.0009659265051595867,-0.00018319295486435294,0.000016653904822305776
1761378671479638300,8.12663818359375,-0.0007494257297366858,0.00009992343257181346,-0.0006328483577817678
1761378671489665000,8.1366650390625,-0.0000666156192892231,-0.0001498851488577202,-0.0006495022680610418
1761378671499690800,8.146690673828125,0.00004996171628590673,0.0006161945057101548,-0.0006328483577817678
1761378671509716000,8.156716064453125,0.00011657733557512984,-0.0000666156192892231,0.00011657733557512984
1761378671519741000,8.166740966796874,0.00046630934230051935,0.00046630934230051935,-0.0002664624771568924
1761378671529767700,8.176767578125,0.0002831163874361664,0.00038303982000797987,0.0008660030434839427
1761378671539770000,8.18677001953125,-0.0005329249543137848,-0.0002997702977154404,-0.000016653904822305776
1761378671549818000,8.196818115234375,-0.00038303982000797987,-0.0007827335502952337,-0.0005995405954308808
1761378671559844000,8.206843994140625,-0.0012990045361220837,0.00016653904458507895,0.0008826569537632167
1761378671569847300,8.216847412109376,-0.0014488897286355495,-0.0003497319994494319,0.0005828866851516068
1761378671579895000,8.22689501953125,-0.0007161179091781378,-0.00008326952229253948,0.00038303982000797987
1761378671589920800,8.236920654296876,-0.0009159647743217647,0.0011657733703032136,0.0007327718194574118
1761378671599946500,8.246946533203126,-0.0014322358183562756,-0.0007827335502952337,0.0007827335502952337
1761378671609972000,8.256971923828125,-0.0008326952229253948,-0.00018319295486435294,-0.00038303982000797987
1761378671619998500,8.26699853515625,-0.0005162710440345109,0.0001498851488577202,0.0005662327748723328
1761378671630024200,8.277024169921875,-0.0002831163874361664,-0.0002997702977154404,0.0003663859097287059
1761378671640049700,8.287049560546874,-0.00008326952229253948,-0.00038303982000797987,0.00046630934230051935
1761378671650075100,8.2970751953125,0.0001498851488577202,0.0009159647743217647,0.00023315467115025967
1761378671660100600,8.3071005859375,-0.0004163476114626974,-0.0005995405954308808,-0.0003663859097287059
1761378671670126600,8.317126708984375,0,-0.0004163476114626974,-0.0002664624771568924
1761378671680152300,8.32715234375,-0.0009825803572311997,0.00004996171628590673,0.00048296325257979333
1761378671690179000,8.337178955078125,-0.0005662327748723328,-0.0001332312385784462,0.0006661561783403158
1761378671700190200,8.347190185546875,-0.0003663859097287059,-0.0005995405954308808,-0.00003330780964461155
1761378671710228500,8.357228515625,-0.0003164241788908839,0.0006994639988988638,0.00009992343257181346
1761378671720254700,8.367254638671875,0.0007660796400159597,0.00008326952229253948,0.00008326952229253948
1761378671730279400,8.377279541015625,0.0008826569537632167,0.000016653904822305776,0.00046630934230051935
1761378671740314400,8.387314453125,0.0005995405954308808,0.0008660030434839427,-0.0002664624771568924
1761378671750311400,8.3973115234375,0.0007494257297366858,0.0005828866851516068,-0.000016653904822305776
1761378671760357400,8.407357421875,0,-0.0002664624771568924,0.00003330780964461155
1761378671770383600,8.417383544921876,-0.0008160413126461208,-0.00048296325257979333,0.0002165007608709857
1761378671780408000,8.427407958984375,-0.0008660030434839427,-0.0004163476114626974,0.0006328483577817678
1761378671790434300,8.437434326171875,-0.0007161179091781378,-0.0009326186846010387,0.0002664624771568924
1761378671800459300,8.447459228515624,-0.0005495788645930588,-0.0005828866851516068,0.00009992343257181346
1761378671810485200,8.4574853515625,0.00019984686514362693,0.00004996171628590673,-0.0005495788645930588
1761378671820510700,8.4675107421875,0.00008326952229253948,0.00019984686514362693,-0.0006161945057101548
1761378671830537500,8.477537353515626,0.0008993108640424907,0.0005828866851516068,-0.0006994639988988638
1761378671840562700,8.487562744140625,0.0010991577291861176,0.0003663859097287059,-0.0007494257297366858
1761378671850588200,8.497588134765625,0.0009825803572311997,0.0000666156192892231,0.00009992343257181346
1761378671860613400,8.50761328125,0.0014322358183562756,-0.0003663859097287059,0.0002997702977154404
1761378671870655000,8.517655029296876,0.0005495788645930588,-0.0008326952229253948,0.0002997702977154404
1761378671880665300,8.527665283203126,0.0004996171337552369,0.00004996171628590673,0.0006994639988988638
1761378671890690800,8.53769091796875,0.0007161179091781378,-0.0005662327748723328,-0.0005495788645930588
1761378671900710400,8.54771044921875,0.00023315467115025967,-0.0003330780891701579,-0.0004163476114626974
1761378671910742000,8.557741943359375,0.0003497319994494319,0.0006161945057101548,0.00016653904458507895
1761378671920768300,8.567768310546874,0.00044965543202124536,0.00004996171628590673,0.0002165007608709857
1761378671930793200,8.577793212890626,0.0001332312385784462,0.00019984686514362693,0.00046630934230051935
1761378671940818400,8.587818359375,-0.0007494257297366858,-0.000016653904822305776,0.0006495022680610418
1761378671950844200,8.59784423828125,0.000016653904822305776,0.00018319295486435294,0.0002997702977154404
1761378671960871000,8.607870849609375,0.0005329249543137848,0.00011657733557512984,0.0009159647743217647
1761378671970897000,8.61789697265625,-0.00003330780964461155,0.00023315467115025967,-0.00003330780964461155
1761378671980924700,8.627924560546875,-0.00004996171628590673,0.0002997702977154404,0.0004163476114626974
1761378671990947800,8.63794775390625,0.0002664624771568924,-0.0007327718194574118,-0.00018319295486435294
1761378672000975400,8.647975341796876,-0.00044965543202124536,-0.0005828866851516068,0.00044965543202124536
1761378672010998500,8.65799853515625,0.0005995405954308808,-0.0004330015217419714,-0.00008326952229253948
1761378672021024000,8.66802392578125,0.00038303982000797987,0.00039969373028725386,-0.00011657733557512984
1761378672031049500,8.678049560546874,0,0.00023315467115025967,0.0005162710440345109
1761378672041075700,8.68807568359375,0.00003330780964461155,0.00011657733557512984,0.0004330015217419714
1761378672051131000,8.698130859375,-0.000016653904822305776,0.00023315467115025967,-0.0004330015217419714
1761378672061130200,8.708130126953124,0.00023315467115025967,-0.0001332312385784462,-0.0005662327748723328
1761378672071155000,8.718155029296875,0.0003330780891701579,-0.00044965543202124536,-0.0009159647743217647
1761378672081178400,8.728178466796875,0.00016653904458507895,-0.00046630934230051935,-0.00009992343257181346
1761378672091203300,8.738203369140624,-0.0002997702977154404,-0.0001332312385784462,0.0004330015217419714
1761378672101229000,8.74822900390625,-0.0002664624771568924,0.00011657733557512984,0.0005329249543137848
1761378672111255000,8.758255126953125,0.0003164241788908839,-0.0008660030434839427,0.00003330780964461155
1761378672121280300,8.7682802734375,0.0002997702977154404,-0.00004996171628590673,-0.0001332312385784462
1761378672131298000,8.778298095703125,0.00046630934230051935,0.0006328483577817678,0.0000666156192892231
1761378672141331700,8.788331787109374,0.0007993874605745077,0.0003330780891701579,-0.0002165007608709857
1761378672151358000,8.79835791015625,-0.00003330780964461155,0.0000666156192892231,0.00011657733557512984
1761378672161383400,8.808383544921876,0.0002664624771568924,0.00046630934230051935,-0.0004330015217419714
1761378672171408600,8.81840869140625,-0.0006161945057101548,-0.0002997702977154404,-0.0010158881777897477
1761378672181411800,8.828411865234376,-0.0002831163874361664,0.00008326952229253948,-0.0007660796400159597
1761378672191460400,8.83846044921875,0.00004996171628590673,-0.0007993874605745077,0.0003497319994494319
1761378672201486300,8.848486328125,-0.0001332312385784462,-0.0004996171337552369,0.00044965543202124536
1761378672211510500,8.858510498046876,-0.00011657733557512984,0.00023315467115025967,-0.00011657733557512984
1761378672221540400,8.868540283203124,0.0003164241788908839,0.00019984686514362693,-0.00044965543202124536
1761378672231539500,8.87853955078125,0.0002997702977154404,0.000016653904822305776,0.0002997702977154404
1761378672241588200,8.888588134765625,0.00039969373028725386,0.0007827335502952337,-0.0006994639988988638
1761378672251614000,8.898614013671875,0.00019984686514362693,-0.0008493491332046688,-0.00004996171628590673
1761378672261639400,8.908639404296874,0.00019984686514362693,0.00011657733557512984,0.0001332312385784462
1761378672271664600,8.91866455078125,0.0012990045361220837,-0.0002664624771568924,0.00038303982000797987
1761378672281691000,8.92869091796875,0.00048296325257979333,0.0007827335502952337,0.00024980856687761843
1761378672291717400,8.93871728515625,-0.0002664624771568924,0.00039969373028725386,-0.0000666156192892231
1761378672301742000,8.9487421875,-0.00009992343257181346,0.0005662327748723328,0.0002165007608709857
1761378672311767300,8.958767333984374,0.00044965543202124536,-0.00004996171628590673,0.0006828100886195898
1761378672321793000,8.96879296875,-0.00009992343257181346,0.0001332312385784462,-0.0003330780891701579
1761378672331819000,8.978819091796876,-0.00009992343257181346,-0.00019984686514362693,-0.00048296325257979333
1761378672341845500,8.988845458984375,-0.00009992343257181346,0.020301109179854393,0.0075608729384839535
1761378672351832000,8.99883203125,-0.0002997702977154404,0.05064452439546585,0.009925727732479572
1761378672361897700,9.008897705078125,-0.0001498851488577202,0.02086734212934971,0.003480666084215045
1761378672371921700,9.018921630859374,-0.00018319295486435294,0.007860642857849598,0.010208843275904655
1761378672381934600,9.0289345703125,-0.0002664624771568924,0.018236026167869568,-0.002464778022840619
1761378672391973600,9.0389736328125,-0.0005329249543137848,0.0020983919966965914,0.004429938737303019
1761378672401999400,9.048999267578125,-0.0004996171337552369,-0.002331546740606427,-0.0001332312385784462
1761378672412025300,9.059025390625,-0.0009825803572311997,0.00997568853199482,0.0011324655497446656
1761378672422050000,9.069050048828124,-0.00023315467115025967,0.005945444107055664,0.002764548175036907
1761378672432075500,9.079075439453124,0.0004330015217419714,0.0002664624771568924,-0.0008993108640424907
1761378672442101500,9.0891015625,0.0002165007608709857,-0.0015155053697526455,-0.0007494257297366858
1761378672452126700,9.099126708984375,0.0004996171337552369,-0.012557044625282288,-0.004696401301771402
1761378672462153000,9.109153076171875,0.0008826569537632167,-0.02947741188108921,-0.006578292232006788
1761378672472178400,9.119178466796875,0.0009992342675104737,-0.04038571938872337,-0.010741768404841423
1761378672482204000,9.129203857421874,0.0004330015217419714,-0.034090545028448105,-0.0074609494768083096
1761378672492230100,9.139230224609374,0.00004996171628590673,-0.004613131750375032,0.002398162381723523
1761378672502254800,9.1492548828125,0.000016653904822305776,0.010541921481490135,-0.003264165250584483
