time,seconds_elapsed,z,y,x
1761379033634877200,0.103877197265625,-0.0006328483577817678,-0.00023315467115025967,0.00023315467115025967
1761379033644925400,0.113925537109375,0.0008493491332046688,-0.0012323890114203095,0.00038303982000797987
1761379033654912500,0.12391259765625,-0.00004996171628590673,-0.00038303982000797987,0.000016653904822305776
1761379033664985600,0.133985595703125,0.00009992343257181346,-0.00044965543202124536,0.0003330780891701579
1761379033674987300,0.1439873046875,-0.00008326952229253948,-0.00009992343257181346,-0.00019984686514362693
1761379033685021000,0.15402099609375,0.00016653904458507895,-0.00009992343257181346,-0.00039969373028725386
1761379033695055400,0.164055419921875,-0.0000666156192892231,-0.00008326952229253948,-0.00019984686514362693
1761379033705083600,0.174083740234375,-0.0004163476114626974,-0.00044965543202124536,0.0000666156192892231
1761379033715110000,0.18410986328125,0.0004163476114626974,0.000016653904822305776,-0.00023315467115025967
1761379033725136100,0.19413623046875,0.0001498851488577202,0.0005995405954308808,0.00003330780964461155
1761379033735161300,0.204161376953125,0.00046630934230051935,-0.0002165007608709857,-0.00004996171628590673
1761379033745188000,0.21418798828125,0.0002664624771568924,-0.0002664624771568924,-0.0001498851488577202
1761379033755215400,0.22421533203125,0.0003330780891701579,-0.00016653904458507895,0.00024980856687761843
1761379033765240600,0.234240478515625,0.00004996171628590673,-0.0006161945057101548,-0.0006495022680610418
1761379033775267600,0.244267578125,0.0006328483577817678,-0.0001332312385784462,-0.00048296325257979333
1761379033785293000,0.25429296875,0.00003330780964461155,0.0008660030434839427,-0.0010825038189068437
1761379033795319600,0.264319580078125,-0.0004163476114626974,0.0012823506258428097,0.0000666156192892231
1761379033805345800,0.274345703125,-0.0001332312385784462,-0.0006328483577817678,0.0001332312385784462
1761379033815371800,0.284371826171875,-0.00003330780964461155,-0.0000666156192892231,0.0010491959983482957
1761379033825399600,0.294399658203125,0.00004996171628590673,0.0008160413126461208,-0.0002831163874361664
1761379033835424300,0.30442431640625,0.00008326952229253948,-0.0005162710440345109,-0.0002664624771568924
1761379033845451000,0.314450927734375,-0.00016653904458507895,0.0002997702977154404,0.0006661561783403158
1761379033855454200,0.3244541015625,0.0002997702977154404,0.00009992343257181346,0.00023315467115025967
1761379033865503500,0.33450341796875,0.00016653904458507895,-0.0012656967155635357,0
1761379033875529000,0.344529052734375,-0.00004996171628590673,-0.0004163476114626974,0.0003663859097287059
1761379033885556500,0.354556396484375,0.00024980856687761843,-0.0002664624771568924,-0.00044965543202124536
1761379033895581000,0.364580810546875,0.0003497319994494319,-0.0012157351011410356,-0.00039969373028725386
1761379033905607200,0.374607177734375,0.0002165007608709857,0.00019984686514362693,-0.0002831163874361664
1761379033915635200,0.38463525390625,-0.0001498851488577202,0.00016653904458507895,-0.00048296325257979333
1761379033925664300,0.394664306640625,0.0002165007608709857,0.0000666156192892231,0.00008326952229253948
1761379033935688400,0.4046884765625,-0.00019984686514362693,0.0002831163874361664,-0.00039969373028725386
1761379033945713000,0.414712890625,-0.00024980856687761843,0.00008326952229253948,-0.0003497319994494319
1761379033955724300,0.424724365234375,0.0000666156192892231,0.0001332312385784462,-0.00019984686514362693
1761379033965765000,0.43476513671875,0.00024980856687761843,0.0008826569537632167,-0.0004163476114626974
1761379033975787300,0.444787353515625,0.000016653904822305776,0.00046630934230051935,-0.00009992343257181346
1761379033985790500,0.45479052734375,0.00009992343257181346,0.0002831163874361664,0.0006994639988988638
1761379033995843300,0.46484326171875,0.00009992343257181346,-0.0002997702977154404,0.00023315467115025967
1761379034005869800,0.474869873046875,-0.0006161945057101548,-0.0010825038189068437,0.00046630934230051935
1761379034015873800,0.484873779296875,0.0005828866851516068,-0.00008326952229253948,-0.0002831163874361664
1761379034025900000,0.494900146484375,0.0003330780891701579,-0.00008326952229253948,-0.0001332312385784462
1761379034035942400,0.5049423828125,0.00024980856687761843,0.00019984686514362693,0.0005495788645930588
1761379034045983200,0.514983154296875,0.0004163476114626974,0.00003330780964461155,-0.0003663859097287059
1761379034055987700,0.52498779296875,0.0008826569537632167,0.0002664624771568924,-0.00019984686514362693
1761379034066049800,0.5350498046875,0.0002664624771568924,0.00011657733557512984,-0.000016653904822305776
1761379034076056800,0.545056884765625,-0.0002664624771568924,-0.0003164241788908839,-0.00044965543202124536
1761379034086057500,0.555057373046875,0.0006328483577817678,0.0002831163874361664,-0.0002165007608709857
1761379034096106000,0.56510595703125,0.00004996171628590673,0.00019984686514362693,-0.0004996171337552369
1761379034106132200,0.57513232421875,0.0004330015217419714,-0.00023315467115025967,-0.00019984686514362693
1761379034116158700,0.58515869140625,0.00044965543202124536,0,-0.0002664624771568924
1761379034126186000,0.59518603515625,-0.00046630934230051935,-0.0006161945057101548,-0.00048296325257979333
1761379034136210200,0.605210205078125,-0.00019984686514362693,-0.0004163476114626974,-0.00018319295486435294
1761379034146236700,0.615236572265625,-0.00044965543202124536,-0.0004996171337552369,-0.00019984686514362693
1761379034156263400,0.625263427734375,0.00008326952229253948,-0.0001332312385784462,0.0003663859097287059
1761379034166289200,0.6352890625,0.0003330780891701579,0.0003497319994494319,0.0004996171337552369
1761379034176315000,0.64531494140625,0.0003497319994494319,0.0006495022680610418,0.0003497319994494319
1761379034186320000,0.65531982421875,0.00003330780964461155,-0.00044965543202124536,0.0002997702977154404
1761379034196368100,0.6653681640625,0.00008326952229253948,0.0000666156192892231,-0.00024980856687761843
1761379034206395000,0.675394775390625,-0.0003164241788908839,0.00008326952229253948,0.0002165007608709857
1761379034216398800,0.68539892578125,-0.0001498851488577202,0.00008326952229253948,0.0007327718194574118
1761379034226446000,0.695446044921875,0.00003330780964461155,0.0004996171337552369,-0.00023315467115025967
1761379034236473300,0.705473388671875,0.00039969373028725386,0.00011657733557512984,-0.0002831163874361664
1761379034246499800,0.715499755859375,0.0003164241788908839,-0.0002831163874361664,0.0006828100886195898
1761379034256525800,0.72552587890625,0.0005995405954308808,-0.00009992343257181346,0.000016653904822305776
1761379034266551800,0.7355517578125,0.00048296325257979333,-0.00003330780964461155,-0.0002831163874361664
1761379034276578300,0.745578369140625,0.0004163476114626974,0.000016653904822305776,-0.0003497319994494319
1761379034286603500,0.755603515625,0.0001498851488577202,-0.0005828866851516068,0.0001498851488577202
1761379034296631300,0.76563134765625,0.0003497319994494319,0.000016653904822305776,0.0000666156192892231
1761379034306661000,0.7756611328125,0.0004163476114626974,-0.0005162710440345109,0
1761379034316685000,0.78568505859375,0.0003164241788908839,-0.0002831163874361664,-0.0002165007608709857
1761379034326709800,0.795709716796875,0.0002831163874361664,-0.00016653904458507895,-0.0004163476114626974
1761379034336714200,0.80571435546875,0.00019984686514362693,-0.0010325420880690217,-0.00044965543202124536
1761379034346762800,0.8157626953125,0.00009992343257181346,-0.00003330780964461155,0.0000666156192892231
1761379034356787500,0.825787353515625,-0.0002664624771568924,-0.0001332312385784462,0.0002165007608709857
1761379034366813400,0.8358134765625,-0.0003663859097287059,-0.0003330780891701579,0.0002831163874361664
1761379034376840400,0.84584033203125,-0.0001332312385784462,0.00008326952229253948,0.00011657733557512984
1761379034386861300,0.855861328125,-0.00018319295486435294,0.0001332312385784462,0.0003164241788908839
1761379034396892200,0.86589208984375,-0.00046630934230051935,-0.0003164241788908839,0.00019984686514362693
1761379034406918700,0.875918701171875,-0.0002664624771568924,-0.0001498851488577202,0.0001332312385784462
1761379034416923100,0.885923095703125,0.0002997702977154404,0.00011657733557512984,0
1761379034426980600,0.895980712890625,0.0002165007608709857,-0.0004163476114626974,0.0003497319994494319
1761379034436986000,0.905986083984375,-0.00039969373028725386,0.00003330780964461155,-0.00008326952229253948
1761379034447001900,0.916001953125,0.0002831163874361664,0.00023315467115025967,-0.00018319295486435294
1761379034457062700,0.926062744140625,0.00019984686514362693,0.0002664624771568924,-0.0002165007608709857
1761379034467076400,0.936076416015625,-0.0004996171337552369,0.00011657733557512984,0.000016653904822305776
1761379034477102600,0.9461025390625,-0.00018319295486435294,0.0005162710440345109,-0.00003330780964461155
1761379034487128600,0.956128662109375,-0.0003330780891701579,0.00009992343257181346,0.0006828100886195898
1761379034497154600,0.966154541015625,-0.00003330780964461155,0.0003497319994494319,0.00018319295486435294
1761379034507181800,0.976181884765625,-0.00003330780964461155,-0.00016653904458507895,0.00039969373028725386
1761379034517207300,0.986207275390625,0.00004996171628590673,-0.0000666156192892231,-0.00023315467115025967
1761379034527233500,0.996233642578125,0.00048296325257979333,0.00016653904458507895,0.00023315467115025967
1761379034537259300,1.00625927734375,-0.0003330780891701579,0.0003164241788908839,0.00016653904458507895
1761379034547276500,1.016276611328125,-0.000016653904822305776,-0.0000666156192892231,-0.0005162710440345109
1761379034557311700,1.026311767578125,-0.0007494257297366858,-0.00008326952229253948,-0.0006994639988988638
1761379034567338000,1.036337890625,-0.00024980856687761843,-0.00003330780964461155,-0.0005495788645930588
1761379034577364500,1.046364501953125,0.0006495022680610418,0.0005329249543137848,-0.00039969373028725386
1761379034587371000,1.05637109375,0.0004330015217419714,0.00004996171628590673,-0.00023315467115025967
1761379034597374000,1.0663740234375,0,0.00039969373028725386,-0.0000666156192892231
1761379034607444000,1.07644384765625,0.00023315467115025967,-0.0002165007608709857,0.0007161179091781378
1761379034617447000,1.086447021484375,-0.0002165007608709857,0.0003663859097287059,-0.0000666156192892231
1761379034627495200,1.0964951171875,0.0005828866851516068,-0.00003330780964461155,-0.0000666156192892231
1761379034637522400,1.1065224609375,-0.00044965543202124536,-0.00011657733557512984,0.0004163476114626974
1761379034647548400,1.11654833984375,-0.0005828866851516068,-0.00023315467115025967,0.0005162710440345109
1761379034657574700,1.12657470703125,-0.0011657733703032136,0.00024980856687761843,0.0003330780891701579
1761379034667601700,1.1366015625,-0.0005329249543137848,-0.000016653904822305776,-0.00016653904458507895
1761379034677627600,1.146627685546875,-0.00008326952229253948,-0.0001498851488577202,-0.00011657733557512984
1761379034687657700,1.15665771484375,0.0003164241788908839,-0.0003663859097287059,-0.00018319295486435294
1761379034697681200,1.16668115234375,-0.00023315467115025967,0.0005162710440345109,-0.0002997702977154404
1761379034707705600,1.17670556640625,0.0003164241788908839,-0.00008326952229253948,0.00004996171628590673
1761379034717715700,1.1867158203125,0.0000666156192892231,0.00008326952229253948,0.000016653904822305776
1761379034727758600,1.196758544921875,-0.00024980856687761843,0.0009659265051595867,-0.0006661561783403158
1761379034737783800,1.20678369140625,0.0002664624771568924,0.0004163476114626974,-0.000016653904822305776
1761379034747775000,1.21677490234375,0.0003164241788908839,0.00008326952229253948,-0.00009992343257181346
1761379034757836800,1.2268369140625,0.0003164241788908839,-0.0007660796400159597,-0.0005495788645930588
1761379034767841300,1.23684130859375,0.0001332312385784462,-0.00018319295486435294,0
1761379034777890000,1.24689013671875,-0.0002165007608709857,0.0006994639988988638,0.00044965543202124536
1761379034787915500,1.25691552734375,-0.00018319295486435294,0.0002997702977154404,0.0004996171337552369
1761379034797946400,1.2669462890625,0.0004163476114626974,0.0003330780891701579,0.0005828866851516068
1761379034807974700,1.276974609375,0.00018319295486435294,0.0008660030434839427,0
1761379034817988900,1.28698876953125,-0.00038303982000797987,-0.0002831163874361664,0.00018319295486435294
1761379034827998000,1.296998046875,-0.0004330015217419714,0.00024980856687761843,-0.0000666156192892231
1761379034838057200,1.30705712890625,-0.00011657733557512984,-0.0005162710440345109,0.00016653904458507895
1761379034848072700,1.31707275390625,-0.0001498851488577202,-0.0006495022680610418,0.0003497319994494319
1761379034858099500,1.327099365234375,0.00023315467115025967,0.00044965543202124536,-0.00019984686514362693
1761379034868125400,1.33712548828125,-0.0002831163874361664,0.00039969373028725386,-0.0006161945057101548
1761379034878151200,1.347151123046875,0.0001498851488577202,-0.0005162710440345109,-0.0003330780891701579
1761379034888178400,1.357178466796875,-0.0005162710440345109,0.0003330780891701579,0.0000666156192892231
1761379034898203600,1.36720361328125,0.000016653904822305776,0.00004996171628590673,-0.00016653904458507895
1761379034908229400,1.3772294921875,0.00011657733557512984,-0.00018319295486435294,0.000016653904822305776
1761379034918217000,1.387217041015625,0.0003164241788908839,0.00039969373028725386,-0.0010825038189068437
1761379034928282000,1.3972822265625,0.0007827335502952337,0.0003164241788908839,-0.00023315467115025967
1761379034938309000,1.40730908203125,0.00038303982000797987,-0.0008493491332046688,-0.00004996171628590673
1761379034948327000,1.417326904296875,-0.0002664624771568924,0.0006828100886195898,-0.0003663859097287059
1761379034958360300,1.4273603515625,-0.0004996171337552369,-0.0001332312385784462,-0.00038303982000797987
1761379034968388000,1.43738818359375,0.00004996171628590673,-0.0004996171337552369,0.00009992343257181346
1761379034978414300,1.447414306640625,0.00008326952229253948,0.0005495788645930588,0.0003497319994494319
1761379034988439800,1.457439697265625,-0.0003663859097287059,-0.0001498851488577202,-0.0000666156192892231
1761379034998466300,1.46746630859375,-0.00046630934230051935,0.00019984686514362693,0.0002165007608709857
1761379035008493800,1.477493896484375,0.00008326952229253948,-0.00046630934230051935,0.00024980856687761843
1761379035018519600,1.48751953125,0.0004996171337552369,-0.0003497319994494319,-0.0001498851488577202
1761379035028544800,1.497544677734375,0.00019984686514362693,0.0006661561783403158,-0.00024980856687761843
1761379035038571800,1.50757177734375,-0.0000666156192892231,0.00046630934230051935,-0.00016653904458507895
1761379035048597500,1.517597412109375,0.00004996171628590673,-0.00018319295486435294,-0.0007494257297366858
1761379035058624500,1.52762451171875,0.00008326952229253948,-0.0003663859097287059,-0.0005329249543137848
1761379035068651800,1.53765185546875,-0.00023315467115025967,0.0007161179091781378,-0.0003663859097287059
1761379035078677800,1.547677734375,0.00019984686514362693,-0.00009992343257181346,0.00009992343257181346
1761379035088702700,1.55770263671875,0.000016653904822305776,-0.0003663859097287059,-0.00018319295486435294
1761379035098730200,1.567730224609375,0.00044965543202124536,-0.0003330780891701579,-0.0003663859097287059
1761379035108756500,1.577756591796875,0.0004330015217419714,0.000016653904822305776,-0.0008160413126461208
1761379035118759000,1.587759033203125,0.0000666156192892231,0.00004996171628590673,-0.0004996171337552369
1761379035128826000,1.597826171875,0.0005662327748723328,0.00023315467115025967,-0.0002664624771568924
1761379035138831400,1.607831298828125,0.00003330780964461155,-0.0001332312385784462,0.00004996171628590673
1761379035148857900,1.61785791015625,-0.000016653904822305776,-0.0003497319994494319,-0.0002831163874361664
1761379035158884000,1.627884033203125,-0.0000666156192892231,0.0003330780891701579,0
1761379035168911400,1.637911376953125,0.00003330780964461155,-0.0003497319994494319,0.0010491959983482957
1761379035178941700,1.647941650390625,-0.0002165007608709857,0.0002997702977154404,0.00011657733557512984
1761379035188967000,1.657966796875,-0.00046630934230051935,0.0005828866851516068,0.0006328483577817678
1761379035198983000,1.66798291015625,0.00009992343257181346,-0.00044965543202124536,0.0009825803572311997
1761379035208994600,1.67799462890625,-0.00004996171628590673,0.00039969373028725386,0.0008160413126461208
1761379035219047200,1.688047119140625,-0.00009992343257181346,-0.00009992343257181346,0.0005329249543137848
1761379035229071400,1.6980712890625,0.0005162710440345109,0.0005995405954308808,0.0002664624771568924
1761379035239094000,1.708093994140625,0.0001332312385784462,-0.00016653904458507895,-0.0003663859097287059
1761379035249120800,1.718120849609375,-0.0001332312385784462,0.00008326952229253948,-0.0008326952229253948
1761379035259147300,1.728147216796875,-0.00009992343257181346,-0.00023315467115025967,0.0003497319994494319
1761379035269175000,1.738175048828125,-0.0000666156192892231,0.00046630934230051935,0.00008326952229253948
1761379035279163100,1.7481630859375,-0.0004163476114626974,0.0003164241788908839,0.00016653904458507895
1761379035289224700,1.758224609375,0.0001332312385784462,-0.00039969373028725386,0.00024980856687761843
1761379035299252200,1.768252197265625,-0.0003663859097287059,-0.0005662327748723328,0.0002831163874361664
1761379035309277400,1.77827734375,-0.0008493491332046688,-0.00023315467115025967,-0.0001498851488577202
1761379035319304200,1.78830419921875,-0.0001332312385784462,0.0008993108640424907,0.00044965543202124536
1761379035329330000,1.798329833984375,-0.0005662327748723328,0.00008326952229253948,-0.0005828866851516068
1761379035339356200,1.808356201171875,-0.0000666156192892231,-0.00003330780964461155,0.0002997702977154404
1761379035349383200,1.818383056640625,0.00009992343257181346,0.00019984686514362693,-0.00023315467115025967
1761379035359408600,1.82840869140625,-0.00016653904458507895,0.0001332312385784462,0.0002831163874361664
1761379035369434600,1.8384345703125,0.0003497319994494319,0,0.0003164241788908839
1761379035379461000,1.848461181640625,-0.0002165007608709857,0.0006994639988988638,0.0005995405954308808
1761379035389487400,1.8584873046875,-0.00003330780964461155,-0.00039969373028725386,0.0007660796400159597
1761379035399513600,1.868513671875,0,0.00046630934230051935,0.00004996171628590673
1761379035409539800,1.878539794921875,-0.00009992343257181346,0.0007660796400159597,-0.00044965543202124536
1761379035419565800,1.88856591796875,0.00009992343257181346,-0.0003663859097287059,-0.0003330780891701579
1761379035429592000,1.898592041015625,0.00016653904458507895,0.00046630934230051935,-0.0003497319994494319
1761379035439618600,1.90861865234375,0.00003330780964461155,0.00048296325257979333,-0.00046630934230051935
1761379035449629400,1.91862939453125,0.0000666156192892231,-0.00003330780964461155,0.00018319295486435294
1761379035459672300,1.92867236328125,0.00016653904458507895,-0.00039969373028725386,-0.0007827335502952337
1761379035469697000,1.938697021484375,0.000016653904822305776,-0.0003497319994494319,-0.00024980856687761843
1761379035479719400,1.948719482421875,0.00019984686514362693,-0.0003497319994494319,-0.0003330780891701579
1761379035489750800,1.958750732421875,0.0006828100886195898,-0.0001332312385784462,0.00008326952229253948
1761379035499776000,1.96877587890625,-0.0000666156192892231,-0.0003164241788908839,0.00048296325257979333
1761379035509801700,1.9788017578125,-0.00018319295486435294,-0.0002664624771568924,0.0003663859097287059
1761379035519828500,1.988828369140625,-0.0005329249543137848,0.00008326952229253948,0.0008160413126461208
1761379035529854500,1.9988544921875,-0.0005995405954308808,-0.0003497319994494319,0.0005495788645930588
1761379035539880700,2.008880615234375,-0.00046630934230051935,0.0001498851488577202,0.00024980856687761843
1761379035549907000,2.018906982421875,0.000016653904822305776,-0.00003330780964461155,0.0007660796400159597
1761379035559933200,2.02893310546875,0.00003330780964461155,-0.00003330780964461155,0.0003497319994494319
1761379035569963500,2.038963623046875,-0.0005495788645930588,-0.0001498851488577202,0.0007660796400159597
1761379035579983000,2.048983154296875,0.00018319295486435294,-0.0003164241788908839,0.00016653904458507895
1761379035589990700,2.05899072265625,-0.0001498851488577202,-0.00003330780964461155,0.0002831163874361664
1761379035600047400,2.06904736328125,-0.00038303982000797987,-0.0006161945057101548,-0.0003330780891701579
1761379035610064100,2.079064208984375,-0.00003330780964461155,0.00004996171628590673,-0.0006994639988988638
1761379035620090400,2.08909033203125,-0.0004163476114626974,0.0001498851488577202,-0.0002664624771568924
1761379035630116600,2.09911669921875,0.00048296325257979333,0.0001332312385784462,-0.00004996171628590673
1761379035640142800,2.109142822265625,0.00048296325257979333,0.0002664624771568924,-0.0011324655497446656
1761379035650175700,2.11917578125,0.00009992343257181346,-0.00018319295486435294,-0.00023315467115025967
1761379035660195300,2.1291953125,-0.00004996171628590673,-0.00016653904458507895,-0.0005828866851516068
1761379035670221800,2.139221923828125,-0.00003330780964461155,0.00048296325257979333,0.0009326186846010387
1761379035680228400,2.149228271484375,0.0006495022680610418,0.00018319295486435294,0.0003497319994494319
1761379035690274000,2.159274169921875,-0.00019984686514362693,-0.0008660030434839427,-0.000016653904822305776
1761379035700300300,2.16930029296875,-0.0005162710440345109,0.0005662327748723328,-0.00008326952229253948
1761379035710326500,2.179326416015625,-0.00044965543202124536,-0.00011657733557512984,0.0006161945057101548
1761379035720352800,2.189352783203125,0.0001332312385784462,-0.00003330780964461155,0.00039969373028725386
1761379035730379000,2.19937890625,-0.0001498851488577202,0.00038303982000797987,0.0007327718194574118
1761379035740405200,2.2094052734375,0.00018319295486435294,-0.0008660030434839427,0.0008660030434839427
1761379035750431700,2.219431640625,0.00023315467115025967,-0.0002664624771568924,-0.0001332312385784462
1761379035760457700,2.229457763671875,-0.00003330780964461155,0.0008493491332046688,0.00039969373028725386
1761379035770484000,2.23948388671875,0.00046630934230051935,-0.0007827335502952337,0.00046630934230051935
1761379035780510000,2.249510009765625,0.00024980856687761843,-0.0004163476114626974,0.0005495788645930588
1761379035790536200,2.2595361328125,0.000016653904822305776,0.0006994639988988638,-0.0002997702977154404
1761379035800562400,2.2695625,-0.00003330780964461155,0.0000666156192892231,-0.00019984686514362693
1761379035810571000,2.279571044921875,0.00039969373028725386,-0.0005995405954308808,-0.00048296325257979333
1761379035820615000,2.289614990234375,0.00023315467115025967,0.0002831163874361664,0.00016653904458507895
1761379035830641000,2.299640869140625,-0.00008326952229253948,-0.0010158881777897477,-0.0002165007608709857
1761379035840669000,2.3096689453125,0.0005995405954308808,-0.00016653904458507895,-0.0002831163874361664
1761379035850673000,2.3196728515625,-0.0007827335502952337,0.0008493491332046688,0.0006994639988988638
1761379035860699600,2.32969970703125,-0.0004330015217419714,0.0005162710440345109,0.0003330780891701579
1761379035870746000,2.33974609375,-0.00024980856687761843,0.00038303982000797987,0.0002664624771568924
1761379035880772600,2.349772705078125,-0.0001498851488577202,0.00018319295486435294,0.00019984686514362693
1761379035890798300,2.35979833984375,0.0002831163874361664,-0.00016653904458507895,0
1761379035900824600,2.369824462890625,-0.0000666156192892231,-0.0008660030434839427,-0.0002664624771568924
1761379035910850800,2.379850830078125,-0.0004163476114626974,-0.0005995405954308808,0.0002831163874361664
1761379035920877800,2.3898779296875,-0.00009992343257181346,-0.0002664624771568924,0.00003330780964461155
1761379035930904300,2.399904296875,0.0000666156192892231,-0.0006661561783403158,-0.00009992343257181346
1761379035940930600,2.4099306640625,0.0003663859097287059,0.00003330780964461155,-0.00016653904458507895
1761379035950958600,2.41995849609375,-0.00024980856687761843,0.00023315467115025967,-0.00018319295486435294
1761379035960983000,2.429983154296875,0.0002997702977154404,0.00011657733557512984,-0.0003330780891701579
1761379035970991400,2.439991455078125,0.00039969373028725386,0.00008326952229253948,-0.0005828866851516068
1761379035980996000,2.44999609375,0.00048296325257979333,-0.0001498851488577202,-0.0003164241788908839
1761379035991060700,2.460060791015625,0.00016653904458507895,0.0002664624771568924,0.000016653904822305776
1761379036001087000,2.4700869140625,0.0008493491332046688,0.00011657733557512984,-0.00038303982000797987
1761379036011113200,2.48011328125,0.0006161945057101548,-0.0001332312385784462,-0.00023315467115025967
1761379036021139500,2.490139404296875,0.00048296325257979333,-0.00023315467115025967,-0.0005662327748723328
1761379036031165700,2.500165771484375,0.00038303982000797987,0.0001498851488577202,-0.0006161945057101548
1761379036041191400,2.51019140625,-0.00019984686514362693,0.00004996171628590673,0.00019984686514362693
1761379036051218000,2.520218017578125,-0.0006828100886195898,0.0003330780891701579,0.0005828866851516068
1761379036061244400,2.530244384765625,-0.0004163476114626974,0.00023315467115025967,0.0002997702977154404
1761379036071270700,2.540270751953125,-0.00018319295486435294,-0.0005162710440345109,0.00039969373028725386
1761379036081297000,2.550296875,-0.00018319295486435294,0.0005495788645930588,0.0002831163874361664
1761379036091323100,2.5603232421875,-0.0003497319994494319,0.00018319295486435294,0.0003330780891701579
1761379036101349400,2.570349365234375,-0.0003497319994494319,-0.0002165007608709857,-0.0003663859097287059
1761379036111375600,2.580375732421875,0.000016653904822305776,-0.000016653904822305776,-0.0006161945057101548
1761379036121401900,2.59040185546875,0.0007827335502952337,-0.0006328483577817678,0.00004996171628590673
1761379036131404800,2.60040478515625,0.0005495788645930588,-0.0005995405954308808,0.0003663859097287059
1761379036141454000,2.6104541015625,0.0002165007608709857,0.00009992343257181346,-0.00016653904458507895
1761379036151480600,2.62048046875,0.0005495788645930588,-0.00003330780964461155,0.00038303982000797987
1761379036161485600,2.630485595703125,-0.00023315467115025967,-0.00003330780964461155,0.00048296325257979333
1761379036171532800,2.64053271484375,-0.00044965543202124536,0.0008660030434839427,0.0004330015217419714
1761379036181559000,2.65055908203125,-0.0002165007608709857,0.00046630934230051935,0
1761379036191585300,2.660585205078125,-0.0000666156192892231,-0.00011657733557512984,-0.00003330780964461155
1761379036201612000,2.670612060546875,0.00019984686514362693,0.0002664624771568924,-0.00039969373028725386
1761379036211638300,2.68063818359375,-0.00038303982000797987,-0.0006328483577817678,-0.00011657733557512984
1761379036221665800,2.690665771484375,-0.00016653904458507895,-0.0002831163874361664,0.00038303982000797987
1761379036231690200,2.700690185546875,-0.0006661561783403158,0.0001332312385784462,0.00004996171628590673
1761379036241711900,2.7107119140625,-0.0003330780891701579,0.00019984686514362693,0.0002165007608709857
1761379036251752200,2.720752197265625,0.00048296325257979333,0,-0.0002165007608709857
1761379036261769000,2.73076904296875,-0.0001332312385784462,-0.0009992342675104737,-0.00009992343257181346
1761379036271795200,2.740795166015625,-0.00004996171628590673,-0.0003497319994494319,-0.0007827335502952337
1761379036281821400,2.750821533203125,-0.0003164241788908839,0.00008326952229253948,0.0001498851488577202
1761379036291847700,2.76084765625,-0.0000666156192892231,0.000016653904822305776,0.0003164241788908839
1761379036301874000,2.7708740234375,-0.00008326952229253948,-0.00019984686514362693,-0.0001498851488577202
1761379036311900000,2.78089990234375,0.0000666156192892231,0.00004996171628590673,0.0006994639988988638
1761379036321926400,2.790926513671875,-0.0008660030434839427,0.00019984686514362693,0.00003330780964461155
1761379036331956200,2.800956298828125,-0.0002831163874361664,-0.00004996171628590673,0.00019984686514362693
1761379036341982700,2.810982666015625,-0.0002831163874361664,0.0006994639988988638,-0.00004996171628590673
1761379036351984000,2.820984130859375,-0.00019984686514362693,-0.0004163476114626974,0.00039969373028725386
1761379036362017300,2.831017333984375,0.0001498851488577202,0.00003330780964461155,0.00009992343257181346
1761379036372057600,2.8410576171875,0.0000666156192892231,-0.0001332312385784462,-0.0006495022680610418
1761379036382083800,2.851083740234375,0.0005162710440345109,-0.0004163476114626974,-0.0005329249543137848
1761379036392109800,2.86110986328125,0.00044965543202124536,0.0006161945057101548,-0.0002997702977154404
1761379036402136000,2.871135986328125,-0.00004996171628590673,0.0003497319994494319,0.0005995405954308808
1761379036412162300,2.881162353515625,0.0002831163874361664,0.0002664624771568924,-0.00019984686514362693
1761379036422188500,2.8911884765625,-0.00016653904458507895,0.0002664624771568924,0.0001332312385784462
1761379036432214800,2.90121484375,-0.00016653904458507895,0.00009992343257181346,0.00019984686514362693
1761379036442240800,2.91124072265625,-0.00044965543202124536,-0.0003330780891701579,0.00048296325257979333
1761379036452266800,2.921266845703125,-0.00009992343257181346,0.00008326952229253948,0.00023315467115025967
1761379036462293500,2.93129345703125,-0.0004996171337552369,0.0002664624771568924,0.0004163476114626974
1761379036472319700,2.94131982421875,0.0002165007608709857,-0.0001332312385784462,0.0003497319994494319
1761379036482346000,2.951345947265625,0.0002165007608709857,0.00048296325257979333,0.0003164241788908839
1761379036492353300,2.961353271484375,-0.0002831163874361664,-0.00044965543202124536,0.00018319295486435294
1761379036502398200,2.971398193359375,-0.00016653904458507895,0.0002831163874361664,0.00016653904458507895
1761379036512424400,2.981424560546875,0.00023315467115025967,-0.00018319295486435294,0.00024980856687761843
1761379036522450700,2.99145068359375,0.00003330780964461155,0.00008326952229253948,-0.0001498851488577202
1761379036532443600,3.001443603515625,0.00024980856687761843,-0.00003330780964461155,-0.0007827335502952337
1761379036542504000,3.01150390625,0.00016653904458507895,-0.00018319295486435294,-0.00038303982000797987
1761379036552529700,3.02152978515625,0.0003497319994494319,-0.00044965543202124536,-0.0006495022680610418
1761379036562556400,3.031556396484375,-0.00008326952229253948,-0.00009992343257181346,-0.0009825803572311997
1761379036572582000,3.041581787109375,0.0007494257297366858,0.00039969373028725386,-0.0011158116394653916
1761379036582608100,3.051608154296875,0.0009659265051595867,-0.0000666156192892231,-0.0009992342675104737
1761379036592634600,3.061634521484375,0.00046630934230051935,0.0005828866851516068,-0.0001498851488577202
1761379036602621400,3.071621337890625,0.00011657733557512984,0.0011324655497446656,0.0005162710440345109
1761379036612687000,3.08168701171875,0.00048296325257979333,-0.0010991577291861176,-0.00009992343257181346
1761379036622713600,3.091713623046875,-0.0006495022680610418,0.0005329249543137848,0.0004996171337552369
1761379036632742700,3.10174267578125,-0.00019984686514362693,0.00046630934230051935,0.0010658499086275697
1761379036642765600,3.111765625,-0.00008326952229253948,-0.0004330015217419714,0.0005995405954308808
1761379036652791800,3.121791748046875,-0.0007494257297366858,0.0008826569537632167,0.00003330780964461155
1761379036662801400,3.131801513671875,-0.0006161945057101548,-0.00004996171628590673,0.0004163476114626974
1761379036672844300,3.14184423828125,0.00046630934230051935,-0.0009492725948803127,0.000016653904822305776
1761379036682870300,3.151870361328125,-0.00044965543202124536,0.0008826569537632167,-0.00044965543202124536
1761379036692861000,3.16186083984375,0.0005329249543137848,0.0006828100886195898,-0.0006328483577817678
1761379036702922800,3.1719228515625,0.0002165007608709857,-0.0008826569537632167,-0.00039969373028725386
1761379036712953300,3.181953369140625,0.00004996171628590673,0.0006994639988988638,-0.0001332312385784462
1761379036722980400,3.19198046875,0.0008326952229253948,0.0004163476114626974,-0.00008326952229253948
1761379036732980700,3.201980712890625,0.00024980856687761843,-0.0007993874605745077,-0.00044965543202124536
1761379036743057700,3.2120576171875,-0.0003330780891701579,0.00039969373028725386,0.0003164241788908839
1761379036753056000,3.222055908203125,0.0004163476114626974,0.00003330780964461155,0.00011657733557512984
1761379036763082800,3.232082763671875,-0.00023315467115025967,-0.0008326952229253948,0.0003164241788908839
1761379036773108700,3.242108642578125,0.00008326952229253948,0.0003663859097287059,0.00003330780964461155
1761379036783135200,3.25213525390625,0.0005162710440345109,-0.00039969373028725386,0.0002831163874361664
1761379036793161500,3.262161376953125,-0.00003330780964461155,-0.0011324655497446656,0.00011657733557512984
1761379036803187200,3.272187255859375,-0.00003330780964461155,0.0009326186846010387,0.00018319295486435294
1761379036813213400,3.28221337890625,-0.0001332312385784462,-0.00004996171628590673,-0.0003164241788908839
1761379036823240000,3.292239990234375,0.0002664624771568924,-0.0006994639988988638,-0.0001332312385784462
1761379036833265700,3.302265625,0.00019984686514362693,0.00003330780964461155,0.00003330780964461155
1761379036843292200,3.312292236328125,-0.0001498851488577202,-0.0003663859097287059,-0.00008326952229253948
1761379036853319000,3.32231884765625,0.00016653904458507895,0.0004163476114626974,0.00009992343257181346
1761379036863326500,3.332326416015625,-0.00003330780964461155,0.00023315467115025967,-0.00039969373028725386
1761379036873371600,3.34237158203125,0.00019984686514362693,0,-0.0006661561783403158
1761379036883396000,3.35239599609375,0.00011657733557512984,-0.00009992343257181346,-0.0004996171337552369
1761379036893401600,3.362401611328125,-0.00016653904458507895,-0.0004330015217419714,-0.0005495788645930588
1761379036903449900,3.372449951171875,0,0.00046630934230051935,-0.0005329249543137848
1761379036913475300,3.382475341796875,-0.0000666156192892231,0.0003663859097287059,-0.00048296325257979333
1761379036923501600,3.39250146484375,0.00009992343257181346,0.00046630934230051935,-0.0002997702977154404
1761379036933528300,3.4025283203125,0.00004996171628590673,0.00038303982000797987,-0.00003330780964461155
1761379036943555000,3.41255517578125,0.0002997702977154404,0.00019984686514362693,-0.00008326952229253948
1761379036953580800,3.422580810546875,-0.00019984686514362693,0.00019984686514362693,-0.0004163476114626974
1761379036963607300,3.432607177734375,0.00003330780964461155,0.00003330780964461155,-0.0006328483577817678
1761379036973633800,3.4426337890625,0.00018319295486435294,0.0006328483577817678,0.00044965543202124536
1761379036983659300,3.4526591796875,0.00011657733557512984,0.0002165007608709857,0.0003663859097287059
1761379036993685200,3.462685302734375,-0.00008326952229253948,0.00038303982000797987,-0.0002664624771568924
1761379037003712000,3.4727119140625,-0.00024980856687761843,-0.0002831163874361664,-0.0002664624771568924
1761379037013738200,3.48273828125,0.0002664624771568924,-0.00004996171628590673,0.0008826569537632167
1761379037023764200,3.49276416015625,0.00024980856687761843,-0.00016653904458507895,-0.0008993108640424907
1761379037033790500,3.50279052734375,0.0003164241788908839,0.0004163476114626974,0.00023315467115025967
1761379037043817500,3.5128173828125,-0.0001332312385784462,-0.00003330780964461155,0.000016653904822305776
1761379037053843500,3.522843505859375,0.0004330015217419714,-0.0002997702977154404,-0.0005495788645930588
1761379037063853600,3.532853515625,-0.00003330780964461155,-0.0007161179091781378,0.000016653904822305776
1761379037073884000,3.5428837890625,-0.00011657733557512984,0.00016653904458507895,0.0003330780891701579
1761379037083921400,3.55292138671875,0.00024980856687761843,0.0001498851488577202,-0.0006328483577817678
1761379037093948000,3.562947998046875,0.0001332312385784462,0.0003164241788908839,-0.0005329249543137848
1761379037103974700,3.572974609375,0.0002165007608709857,-0.0005329249543137848,0.00023315467115025967
1761379037114001200,3.583001220703125,0.0000666156192892231,0.0003330780891701579,-0.00046630934230051935
1761379037124026400,3.5930263671875,0.0006328483577817678,-0.0002831163874361664,-0.00008326952229253948
1761379037134044700,3.603044677734375,-0.0006161945057101548,-0.0003497319994494319,-0.00009992343257181346
1761379037144079400,3.613079345703125,-0.00008326952229253948,-0.00039969373028725386,0.00004996171628590673
1761379037154106000,3.623106201171875,0.0005662327748723328,-0.00018319295486435294,0.0005329249543137848
1761379037164131800,3.6331318359375,-0.00038303982000797987,-0.000016653904822305776,-0.0005162710440345109
1761379037174135600,3.643135498046875,-0.0003164241788908839,-0.0006994639988988638,0.00048296325257979333
1761379037184183800,3.653183837890625,-0.0003497319994494319,-0.0006828100886195898,0
1761379037194210000,3.6632099609375,0.00039969373028725386,-0.00009992343257181346,0.0003663859097287059
1761379037204217600,3.673217529296875,-0.0006161945057101548,0.00003330780964461155,0.0006994639988988638
1761379037214262500,3.683262451171875,-0.000016653904822305776,-0.00024980856687761843,-0.00023315467115025967
1761379037224288800,3.693288818359375,-0.0003330780891701579,0.00016653904458507895,0.0012656967155635357
1761379037234315800,3.703315673828125,-0.0002165007608709857,0.00009992343257181346,0.00039969373028725386
1761379037244341200,3.71334130859375,-0.00044965543202124536,0.00003330780964461155,0.00003330780964461155
1761379037254367200,3.7233671875,-0.0002831163874361664,-0.0007827335502952337,0
1761379037264394000,3.73339404296875,-0.00044965543202124536,-0.00024980856687761843,-0.00046630934230051935
1761379037274420000,3.743419921875,-0.00004996171628590673,-0.00019984686514362693,0.0003330780891701579
1761379037284447200,3.753447265625,0.00009992343257181346,-0.0002165007608709857,0.0008826569537632167
1761379037294473000,3.763472900390625,-0.00044965543202124536,0.00038303982000797987,-0.00004996171628590673
1761379037304498700,3.773498779296875,0.0003497319994494319,0.0001332312385784462,0.00046630934230051935
1761379037314524400,3.7835244140625,0.0007660796400159597,0.00039969373028725386,0.0005495788645930588
1761379037324551700,3.7935517578125,0.00008326952229253948,0.0007327718194574118,0.0001498851488577202
1761379037334578200,3.803578125,0.00019984686514362693,0.00016653904458507895,0.0007327718194574118
1761379037344581000,3.8135810546875,0.0005662327748723328,0.0002165007608709857,-0.00024980856687761843
1761379037354630100,3.823630126953125,0.00019984686514362693,0.00008326952229253948,-0.0010991577291861176
1761379037364655900,3.83365576171875,0.00018319295486435294,0.0002165007608709857,-0.0005828866851516068
1761379037374661000,3.8436611328125,-0.00004996171628590673,-0.0002165007608709857,-0.0002165007608709857
1761379037384686000,3.85368603515625,-0.0002165007608709857,0.00016653904458507895,0.0002664624771568924
1761379037394734000,3.863734130859375,-0.00018319295486435294,-0.0002831163874361664,-0.0006161945057101548
1761379037404761300,3.87376123046875,-0.0001332312385784462,-0.00004996171628590673,-0.0006661561783403158
1761379037414787600,3.88378759765625,0.0003663859097287059,0.0006828100886195898,0.0004330015217419714
1761379037424813600,3.8938134765625,-0.00024980856687761843,-0.0002165007608709857,0.0008826569537632167
1761379037434839800,3.90383984375,-0.0003330780891701579,0.0004330015217419714,0.0001498851488577202
1761379037444865500,3.913865478515625,0.0003164241788908839,0.0002664624771568924,-0.00019984686514362693
1761379037454892000,3.92389208984375,0.00018319295486435294,0.0002664624771568924,0.00019984686514362693
1761379037464918500,3.93391845703125,0.00048296325257979333,0.0003497319994494319,0.0006161945057101548
1761379037474945000,3.943945068359375,-0.00008326952229253948,-0.0005329249543137848,0.0005495788645930588
1761379037484970800,3.953970703125,-0.0008660030434839427,-0.00023315467115025967,0
1761379037494996700,3.963996826171875,-0.00046630934230051935,-0.00023315467115025967,0.0005329249543137848
1761379037505023000,3.97402294921875,0.00003330780964461155,0.00024980856687761843,0.0005828866851516068
1761379037515050000,3.984050048828125,-0.0001498851488577202,0.000016653904822305776,-0.000016653904822305776
1761379037525075200,3.9940751953125,-0.0002831163874361664,-0.00039969373028725386,0.00003330780964461155
1761379037535101700,4.004101806640625,0.00003330780964461155,0.00039969373028725386,0.00003330780964461155
1761379037545106700,4.014106689453125,0.00011657733557512984,-0.0005495788645930588,0.00019984686514362693
1761379037555154400,4.024154541015625,0.00008326952229253948,0.0004996171337552369,-0.0004163476114626974
1761379037565180700,4.0341806640625,-0.00009992343257181346,0.0003330780891701579,-0.00004996171628590673
1761379037575179300,4.04417919921875,0.00023315467115025967,-0.0011657733703032136,-0.0004330015217419714
1761379037585233400,4.0542333984375,0.0002997702977154404,-0.00046630934230051935,-0.0007494257297366858
1761379037595260000,4.064260009765625,0.0001332312385784462,0.00024980856687761843,0.00003330780964461155
1761379037605286100,4.0742861328125,0.00004996171628590673,-0.0010991577291861176,-0.00016653904458507895
1761379037615312000,4.084311767578125,-0.0003497319994494319,0.00011657733557512984,0.0009992342675104737
1761379037625338000,4.094338134765625,-0.0005495788645930588,0.0002165007608709857,0.0004996171337552369
1761379037635364600,4.104364501953125,0,-0.00023315467115025967,0.0002997702977154404
1761379037645391000,4.11439111328125,-0.0005162710440345109,0.0007827335502952337,0.0007993874605745077
1761379037655416600,4.12441650390625,-0.00011657733557512984,-0.000016653904822305776,0.0006495022680610418
1761379037665420000,4.134419921875,-0.00011657733557512984,-0.0013489662669599056,0.00023315467115025967
1761379037675469800,4.1444697265625,-0.0001332312385784462,-0.0003164241788908839,-0.00008326952229253948
1761379037685496000,4.15449609375,-0.0003497319994494319,0.0008160413126461208,0.00024980856687761843
1761379037695521300,4.164521240234375,0.00019984686514362693,-0.0010825038189068437,-0.0008493491332046688
1761379037705563100,4.174563232421875,0.0000666156192892231,0.0009159647743217647,0.0002997702977154404
1761379037715574500,4.184574462890625,0.00009992343257181346,0.00004996171628590673,-0.00024980856687761843
1761379037725601000,4.19460107421875,-0.0006661561783403158,0.00048296325257979333,-0.00016653904458507895
1761379037735626800,4.204626708984375,0.00038303982000797987,0.00046630934230051935,-0.0005329249543137848
1761379037745641200,4.21464111328125,-0.0003663859097287059,-0.000016653904822305776,-0.0003164241788908839
1761379037755675100,4.224675048828125,0.00004996171628590673,-0.0002997702977154404,0.00019984686514362693
1761379037765704700,4.23470458984375,-0.00039969373028725386,0.0005495788645930588,0.0006161945057101548
1761379037775731200,4.244731201171875,-0.0007494257297366858,-0.0002997702977154404,0.0003330780891701579
1761379037785757200,4.254757080078125,-0.0001332312385784462,-0.0003330780891701579,0.00044965543202124536
1761379037795784400,4.264784423828125,0.0002664624771568924,0.0006661561783403158,0.0006994639988988638
1761379037805810700,4.274810791015625,-0.0003330780891701579,-0.0005995405954308808,0.0004996171337552369
1761379037815836700,4.284836669921875,0.0006495022680610418,0.00009992343257181346,0.0004996171337552369
1761379037825862700,4.294862548828125,0.0001498851488577202,0.0008493491332046688,0.0002997702977154404
1761379037835888600,4.304888671875,-0.0003663859097287059,-0.0003330780891701579,0.000016653904822305776
1761379037845915600,4.31491552734375,0.00011657733557512984,0.00008326952229253948,0.00003330780964461155
1761379037855914200,4.324914306640625,0.0005329249543137848,0.0001332312385784462,-0.0002831163874361664
1761379037865969000,4.334968994140625,0.0005162710440345109,-0.0003663859097287059,-0.00038303982000797987
1761379037875997000,4.344996826171875,-0.0000666156192892231,0.000016653904822305776,0.00024980856687761843
1761379037886020400,4.355020263671875,0.0006828100886195898,0.00003330780964461155,0.00011657733557512984
1761379037896023300,4.365023193359375,0.0009326186846010387,0.0003663859097287059,-0.0004996171337552369
1761379037906072600,4.375072509765625,0.0007327718194574118,-0.0004330015217419714,-0.0001498851488577202
1761379037916099300,4.385099365234375,0.0003663859097287059,-0.000016653904822305776,-0.0000666156192892231
1761379037926124500,4.39512451171875,0.00008326952229253948,-0.00018319295486435294,0.00008326952229253948
1761379037936152000,4.405152099609375,-0.000016653904822305776,-0.0002831163874361664,-0.0000666156192892231
1761379037946177500,4.415177490234375,0.0005495788645930588,-0.0002664624771568924,-0.00011657733557512984
1761379037956203300,4.425203369140625,-0.00023315467115025967,-0.00039969373028725386,-0.0007494257297366858
1761379037966230500,4.43523046875,0.000016653904822305776,0.00023315467115025967,-0.00004996171628590673
1761379037976255700,4.445255859375,-0.0003330780891701579,-0.00004996171628590673,0.0009659265051595867
1761379037986283000,4.455282958984375,-0.00019984686514362693,0.00024980856687761843,0.0002664624771568924
1761379037996308700,4.465308837890625,0.00011657733557512984,0.0001332312385784462,-0.00048296325257979333
1761379038006334700,4.475334716796875,-0.0001332312385784462,0.0000666156192892231,0.0005995405954308808
1761379038016361000,4.48536083984375,0.0001332312385784462,0.0005662327748723328,-0.0005495788645930588
1761379038026377200,4.495377197265625,0.00024980856687761843,0.0000666156192892231,0.00008326952229253948
1761379038036413400,4.505413330078125,0.0000666156192892231,0.0001498851488577202,-0.0003497319994494319
1761379038046440000,4.51543994140625,0.00004996171628590673,-0.00003330780964461155,0.00023315467115025967
1761379038056445700,4.52544580078125,-0.0004163476114626974,-0.00003330780964461155,0.0004163476114626974
1761379038066492000,4.535491943359375,0.00018319295486435294,-0.00004996171628590673,0.000016653904822305776
1761379038076518700,4.5455185546875,0.00018319295486435294,0.0003330780891701579,-0.000016653904822305776
1761379038086545000,4.555544921875,-0.0002664624771568924,0.00019984686514362693,0.0002165007608709857
1761379038096571400,4.5655712890625,0.00008326952229253948,-0.00023315467115025967,0.0002664624771568924
1761379038106597400,4.575597412109375,-0.0005995405954308808,-0.00004996171628590673,0.0002664624771568924
1761379038116625000,4.585625,-0.0006994639988988638,0.0001332312385784462,0.0008160413126461208
1761379038126650400,4.595650390625,-0.0002997702977154404,-0.00024980856687761843,0.00038303982000797987
1761379038136676600,4.605676513671875,0.00004996171628590673,0.0004330015217419714,0.0007161179091781378
1761379038146682600,4.6156826171875,0.00003330780964461155,-0.0001498851488577202,0.0003330780891701579
1761379038156729300,4.625729248046875,0.000016653904822305776,0.0005495788645930588,0.0006161945057101548
1761379038166754600,4.635754638671875,-0.0004330015217419714,-0.0005662327748723328,0.00004996171628590673
1761379038176781300,4.64578125,-0.00023315467115025967,-0.0003663859097287059,-0.0004996171337552369
1761379038186807300,4.655807373046875,-0.00044965543202124536,0.0008660030434839427,-0.0002997702977154404
1761379038196832800,4.665832763671875,0.0003164241788908839,0,-0.00039969373028725386
1761379038206860000,4.675860107421875,0.0005662327748723328,-0.0005329249543137848,-0.00008326952229253948
1761379038216885800,4.6858857421875,-0.00011657733557512984,0.0004163476114626974,-0.0002831163874361664
1761379038226868700,4.69586865234375,-0.0001332312385784462,0.0004330015217419714,0.00024980856687761843
1761379038236938800,4.705938720703125,-0.0003164241788908839,0.00024980856687761843,0.0003497319994494319
1761379038246964500,4.715964599609375,-0.00016653904458507895,-0.00011657733557512984,0.0005495788645930588
1761379038256967400,4.725967529296875,0.0004163476114626974,0.0003663859097287059,0.0005662327748723328
1761379038267016700,4.7360166015625,-0.000016653904822305776,-0.0008326952229253948,-0.0003497319994494319
1761379038277043200,4.746043212890625,-0.0005828866851516068,-0.0003663859097287059,0.000016653904822305776
1761379038287069400,4.7560693359375,-0.00048296325257979333,0,-0.0001332312385784462
1761379038297095200,4.76609521484375,-0.0005995405954308808,-0.0001498851488577202,-0.00016653904458507895
1761379038307121400,4.776121337890625,-0.0005662327748723328,-0.00011657733557512984,0.00024980856687761843
1761379038317148400,4.7861484375,0.0006994639988988638,0.00039969373028725386,0.0010158881777897477
1761379038327175000,4.7961748046875,0.00046630934230051935,0.00019984686514362693,-0.00004996171628590673
1761379038337199900,4.806199951171875,0.00024980856687761843,0.00008326952229253948,-0.0004163476114626974
1761379038347210800,4.816210693359375,-0.00019984686514362693,0.0004163476114626974,0.0003164241788908839
1761379038357252400,4.82625244140625,0.0001498851488577202,0.00011657733557512984,0.00019984686514362693
1761379038367279000,4.836279052734375,-0.0003330780891701579,-0.0001498851488577202,-0.0003497319994494319
1761379038377305600,4.8463056640625,0.0005495788645930588,-0.0005828866851516068,0.0007660796400159597
1761379038387309000,4.85630908203125,-0.000016653904822305776,0.0004330015217419714,0.0006328483577817678
1761379038397357300,4.866357421875,0.0000666156192892231,-0.0005662327748723328,-0.0004330015217419714
1761379038407362000,4.876362060546875,0.0004996171337552369,0.0007161179091781378,-0.0005162710440345109
1761379038417410600,4.88641064453125,0.0003663859097287059,0.0001332312385784462,-0.0005162710440345109
1761379038427436000,4.89643603515625,0.00011657733557512984,-0.0003330780891701579,-0.0014155819080770016
1761379038437467400,4.90646728515625,0.00038303982000797987,0.00023315467115025967,-0.0003497319994494319
1761379038447489500,4.916489501953125,-0.0002165007608709857,0.0001498851488577202,-0.0002165007608709857
1761379038457515300,4.926515380859375,-0.00024980856687761843,0.00046630934230051935,0.00023315467115025967
1761379038467541200,4.936541259765625,-0.00024980856687761843,-0.00003330780964461155,0.0004330015217419714
1761379038477568300,4.946568359375,-0.00011657733557512984,-0.0003164241788908839,0.0003164241788908839
1761379038487593700,4.95659375,-0.0000666156192892231,0.0002664624771568924,0.0008826569537632167
1761379038497619200,4.966619140625,-0.0003330780891701579,0.0001332312385784462,-0.0004996171337552369
1761379038507646500,4.976646484375,-0.0003663859097287059,0.0005162710440345109,0
1761379038517673000,4.9866728515625,0.0002165007608709857,-0.00023315467115025967,0.00018319295486435294
1761379038527699000,4.996698974609375,-0.0003663859097287059,-0.00024980856687761843,0.00038303982000797987
1761379038537724400,5.006724365234375,-0.0002997702977154404,0.0002664624771568924,-0.000016653904822305776
1761379038547751400,5.01675146484375,-0.0005329249543137848,0.0002165007608709857,0.00009992343257181346
1761379038557778000,5.02677783203125,0.0006828100886195898,0.0008326952229253948,-0.00024980856687761843
1761379038567804200,5.03680419921875,-0.00023315467115025967,0.00011657733557512984,-0.0008993108640424907
1761379038577830700,5.04683056640625,-0.00003330780964461155,0.00038303982000797987,-0.00046630934230051935
1761379038587832800,5.056832763671875,-0.00011657733557512984,-0.00016653904458507895,0.00009992343257181346
1761379038597882000,5.066882080078125,0.0002165007608709857,-0.00048296325257979333,-0.0016986982664093375
1761379038607908900,5.076908935546875,-0.00011657733557512984,0.00016653904458507895,-0.00039969373028725386
1761379038617935400,5.086935302734375,-0.0005162710440345109,-0.00004996171628590673,0.00011657733557512984
1761379038627961600,5.096961669921875,-0.00019984686514362693,-0.0002831163874361664,-0.0002664624771568924
1761379038637987000,5.106987060546875,-0.0006495022680610418,0.0008826569537632167,0.00046630934230051935
1761379038648014000,5.11701416015625,-0.00038303982000797987,0.0003164241788908839,0.0006328483577817678
1761379038658017000,5.12701708984375,-0.00039969373028725386,-0.0001332312385784462,0.00016653904458507895
1761379038668067000,5.137067138671875,-0.0008326952229253948,0.0010325420880690217,-0.00011657733557512984
1761379038678093000,5.147093017578125,-0.0006828100886195898,-0.0003663859097287059,-0.00024980856687761843
1761379038688118300,5.1571181640625,-0.00003330780964461155,0.00009992343257181346,0.00004996171628590673
1761379038698144800,5.167144775390625,-0.0003164241788908839,0.0009159647743217647,-0.00023315467115025967
1761379038708170800,5.177170654296875,-0.00039969373028725386,0.0003497319994494319,0.0007660796400159597
1761379038718197800,5.18719775390625,-0.00023315467115025967,-0.0006495022680610418,0.0009492725948803127
1761379038728223500,5.197223388671875,0.0001498851488577202,0.00044965543202124536,-0.00011657733557512984
1761379038738249700,5.207249755859375,0.00023315467115025967,-0.0005662327748723328,0.000016653904822305776
1761379038748275500,5.217275390625,0.0005162710440345109,-0.0003164241788908839,-0.0001498851488577202
1761379038758279400,5.227279541015625,0.0005329249543137848,0.0011158116394653916,-0.0009159647743217647
1761379038768328200,5.237328125,-0.0004330015217419714,-0.0006828100886195898,-0.0008993108640424907
1761379038778354700,5.247354736328125,-0.0006994639988988638,0.0005828866851516068,-0.00016653904458507895
1761379038788363000,5.257363037109375,-0.0009492725948803127,0.00023315467115025967,0.0007827335502952337
1761379038798407700,5.26740771484375,0.0008160413126461208,-0.00016653904458507895,0.0011324655497446656
1761379038808433200,5.27743310546875,-0.0004996171337552369,0.00024980856687761843,0.00023315467115025967
1761379038818459100,5.287459228515625,-0.0003164241788908839,0.0007161179091781378,0.0005995405954308808
1761379038828486100,5.297486083984375,0.0002997702977154404,0.0005662327748723328,0.0002664624771568924
1761379038838511400,5.307511474609375,0.00011657733557512984,0.0001332312385784462,-0.0000666156192892231
1761379038848538600,5.31753857421875,-0.00003330780964461155,0.0000666156192892231,0.0004996171337552369
1761379038858564600,5.327564697265625,-0.0000666156192892231,-0.0007827335502952337,0.00011657733557512984
1761379038868590800,5.3375908203125,0.0009159647743217647,0.0007827335502952337,-0.0006994639988988638
1761379038878616800,5.347616943359375,0.00009992343257181346,0.00023315467115025967,-0.00024980856687761843
1761379038888642600,5.357642578125,-0.0001332312385784462,0.0002997702977154404,-0.0008660030434839427
1761379038898668800,5.367668701171875,-0.0002165007608709857,-0.0001498851488577202,-0.0006828100886195898
1761379038908694800,5.37769482421875,-0.0000666156192892231,-0.0002997702977154404,-0.0003330780891701579
1761379038918741500,5.387741455078125,-0.000016653904822305776,-0.0005495788645930588,-0.0007827335502952337
1761379038928748000,5.397748046875,-0.0001332312385784462,-0.00019984686514362693,0.00003330780964461155
1761379038938773800,5.407773681640625,-0.0005495788645930588,0.0001498851488577202,0.00009992343257181346
1761379038948800000,5.417800048828125,-0.0001332312385784462,-0.0001332312385784462,0.00016653904458507895
1761379038958803700,5.4278037109375,0.0003164241788908839,-0.0001498851488577202,0.0002997702977154404
1761379038968833500,5.43783349609375,-0.00039969373028725386,0.0005329249543137848,-0.00024980856687761843
1761379038978878700,5.447878662109375,-0.00003330780964461155,0.0000666156192892231,-0.0002831163874361664
1761379038988905200,5.4579052734375,-0.00003330780964461155,0.0006161945057101548,0.0000666156192892231
1761379038998931700,5.467931640625,0.00023315467115025967,0.00048296325257979333,0.00044965543202124536
1761379039008958000,5.4779580078125,0.0002165007608709857,0.0006495022680610418,0.0005329249543137848
1761379039018985200,5.487985107421875,-0.0005162710440345109,-0.0002831163874361664,0.00038303982000797987
1761379039029009400,5.498009521484375,-0.00016653904458507895,-0.0005995405954308808,0.0002831163874361664
1761379039039036400,5.508036376953125,-0.00003330780964461155,0.0000666156192892231,-0.00011657733557512984
1761379039049063400,5.5180634765625,-0.00018319295486435294,0.00003330780964461155,-0.0012490428052842617
1761379039059089200,5.528089111328125,0.0008826569537632167,-0.00011657733557512984,-0.0002831163874361664
1761379039069115600,5.53811572265625,-0.00008326952229253948,0,-0.0008660030434839427
1761379039079140900,5.548140869140625,-0.00008326952229253948,0.0005162710440345109,-0.00019984686514362693
1761379039089149200,5.558149169921875,0.00011657733557512984,0.000016653904822305776,-0.0006994639988988638
1761379039099194600,5.568194580078125,-0.0003497319994494319,0.0001332312385784462,-0.000016653904822305776
1761379039109220600,5.578220703125,-0.0001498851488577202,-0.00024980856687761843,-0.0004996171337552369
1761379039119234600,5.588234619140625,-0.00011657733557512984,0.0010325420880690217,0.00024980856687761843
1761379039129272600,5.5982724609375,0.00008326952229253948,-0.0005828866851516068,-0.0003164241788908839
1761379039139276300,5.6082763671875,-0.00003330780964461155,-0.00018319295486435294,-0.0002664624771568924
1761379039149325600,5.61832568359375,-0.00009992343257181346,-0.0003330780891701579,0.0001498851488577202
1761379039159350000,5.62835009765625,-0.00046630934230051935,-0.00016653904458507895,0.00039969373028725386
1761379039169378300,5.63837841796875,0.0003663859097287059,-0.0009992342675104737,0.00008326952229253948
1761379039179404300,5.648404296875,0.0000666156192892231,-0.00011657733557512984,-0.00016653904458507895
1761379039189430000,5.658429931640625,0.00039969373028725386,0.0000666156192892231,0.0006161945057101548
1761379039199456500,5.66845654296875,0.0001498851488577202,-0.0002997702977154404,-0.00003330780964461155
1761379039209483000,5.67848291015625,-0.0003497319994494319,-0.00009992343257181346,-0.0006161945057101548
1761379039219508200,5.68850830078125,-0.0002165007608709857,-0.0005329249543137848,0.00039969373028725386
1761379039229535000,5.698534912109375,-0.00048296325257979333,0.00016653904458507895,-0.0005495788645930588
1761379039239561000,5.70856103515625,0.00009992343257181346,0.0001332312385784462,0.0002664624771568924
1761379039249587200,5.718587158203125,-0.0005995405954308808,-0.0003164241788908839,0.00003330780964461155
1761379039259614000,5.728614013671875,0.0000666156192892231,0.00048296325257979333,0.0007993874605745077
1761379039269639700,5.7386396484375,-0.00019984686514362693,-0.0006328483577817678,0.00003330780964461155
1761379039279665700,5.748665771484375,0.00004996171628590673,-0.0003497319994494319,0.00038303982000797987
1761379039289670400,5.75867041015625,0.0000666156192892231,-0.0008160413126461208,-0.0000666156192892231
1761379039299719000,5.768718994140625,0.0001498851488577202,-0.0006495022680610418,0.0002165007608709857
1761379039309744400,5.778744384765625,-0.00009992343257181346,-0.0004163476114626974,0.0000666156192892231
1761379039319771600,5.788771728515625,0.00008326952229253948,-0.00011657733557512984,0.0003330780891701579
1761379039329796900,5.798796875,-0.0008826569537632167,0.00018319295486435294,0.00044965543202124536
1761379039339823000,5.808822998046875,-0.0006661561783403158,-0.0003497319994494319,0.00038303982000797987
1761379039349849300,5.818849365234375,-0.0005162710440345109,-0.00018319295486435294,-0.00046630934230051935
1761379039359876000,5.8288759765625,0.0000666156192892231,-0.0003330780891701579,-0.00019984686514362693
1761379039369902600,5.838902587890625,-0.0003164241788908839,-0.00009992343257181346,-0.0002664624771568924
1761379039379928300,5.84892822265625,-0.0007494257297366858,-0.00011657733557512984,0.0001498851488577202
1761379039389954300,5.858954345703125,-0.0000666156192892231,-0.0002165007608709857,0.0002831163874361664
1761379039399981000,5.86898095703125,-0.00024980856687761843,0.0005329249543137848,-0.0003330780891701579
1761379039410007300,5.87900732421875,-0.0003497319994494319,-0.0002664624771568924,-0.0003330780891701579
1761379039420033500,5.889033447265625,-0.0001498851488577202,-0.00009992343257181346,0
1761379039430059000,5.89905908203125,-0.0009659265051595867,-0.0002165007608709857,-0.00023315467115025967
1761379039440091400,5.90909130859375,-0.0003497319994494319,-0.00019984686514362693,-0.00018319295486435294
1761379039450112500,5.919112548828125,-0.0003497319994494319,0.00004996171628590673,-0.00016653904458507895
1761379039460138200,5.92913818359375,0.0000666156192892231,-0.00008326952229253948,0.00016653904458507895
1761379039470144500,5.93914453125,-0.00018319295486435294,-0.00008326952229253948,0.0001332312385784462
1761379039480191000,5.94919091796875,0.0009492725948803127,0.0003497319994494319,0.0002831163874361664
1761379039490216200,5.95921630859375,0.0002997702977154404,-0.0002831163874361664,0.0006661561783403158
1761379039500243000,5.969242919921875,0.0007494257297366858,0.00008326952229253948,0.00019984686514362693
1761379039510269400,5.97926953125,0.00004996171628590673,0,0.0005662327748723328
1761379039520295400,5.98929541015625,0.0004163476114626974,0.0001332312385784462,0.0007660796400159597
1761379039530321700,5.99932177734375,0.0006828100886195898,0.00004996171628590673,0.0003164241788908839
1761379039540348400,6.009348388671875,0.0005828866851516068,-0.0006495022680610418,-0.00011657733557512984
1761379039550374700,6.019374755859375,0.0002664624771568924,-0.0003164241788908839,-0.0000666156192892231
1761379039560400400,6.029400390625,0.000016653904822305776,-0.0002831163874361664,-0.0005162710440345109
1761379039570427000,6.039427001953125,0.00016653904458507895,-0.0002831163874361664,-0.0010325420880690217
1761379039580453400,6.049453369140625,0.00023315467115025967,-0.00009992343257181346,-0.0008826569537632167
1761379039590479600,6.059479736328125,-0.0001332312385784462,-0.0001332312385784462,-0.00044965543202124536
1761379039600486100,6.069486083984375,-0.00009992343257181346,0.00044965543202124536,-0.00046630934230051935
1761379039610508500,6.079508544921875,0.00024980856687761843,0.00003330780964461155,0.000016653904822305776
1761379039620558300,6.089558349609375,-0.00008326952229253948,0.0008660030434839427,0.0008993108640424907
1761379039630584600,6.09958447265625,-0.00018319295486435294,-0.0011990811908617616,0.0007494257297366858
1761379039640619500,6.10961962890625,-0.0008660030434839427,0.00011657733557512984,0.00003330780964461155
1761379039650614300,6.1196142578125,-0.0008493491332046688,-0.0003164241788908839,0.0002831163874361664
1761379039660664800,6.129664794921875,-0.00046630934230051935,-0.0010325420880690217,0.0002997702977154404
1761379039670647000,6.13964697265625,-0.0004330015217419714,0.0007660796400159597,0
1761379039680715300,6.14971533203125,-0.00038303982000797987,0.0002831163874361664,0.0011990811908617616
1761379039690741500,6.159741455078125,-0.0006994639988988638,-0.00046630934230051935,-0.00003330780964461155
1761379039700768000,6.16976806640625,0.00004996171628590673,0.0008160413126461208,-0.00046630934230051935
1761379039710794000,6.1797939453125,-0.00046630934230051935,-0.0001332312385784462,-0.0004996171337552369
1761379039720820700,6.18982080078125,-0.0008826569537632167,-0.0010158881777897477,0.0000666156192892231
1761379039730847200,6.19984716796875,-0.00011657733557512984,0.0007494257297366858,-0.0002831163874361664
1761379039740874200,6.209874267578125,0.0002664624771568924,-0.00038303982000797987,-0.00048296325257979333
1761379039750901800,6.21990185546875,0.0001498851488577202,-0.0003497319994494319,-0.00009992343257181346
1761379039760925000,6.229925048828125,0,0.0002997702977154404,-0.0006495022680610418
1761379039770929000,6.239928955078125,-0.0005162710440345109,-0.00016653904458507895,0.0002997702977154404
1761379039780977400,6.249977294921875,-0.0002997702977154404,-0.0007161179091781378,0.00046630934230051935
1761379039791004700,6.260004638671875,0.00008326952229253948,0.00038303982000797987,0.0005495788645930588
1761379039801024500,6.2700244140625,-0.0006661561783403158,-0.0008660030434839427,0.0008493491332046688
1761379039811056000,6.28005615234375,-0.00038303982000797987,-0.00044965543202124536,0.0002664624771568924
1761379039821102800,6.290102783203125,-0.0000666156192892231,0.00046630934230051935,-0.0000666156192892231
1761379039831110000,6.30010986328125,-0.0003330780891701579,0.00046630934230051935,0.0007494257297366858
1761379039841135400,6.31013525390625,0.0000666156192892231,0.00016653904458507895,0.00019984686514362693
1761379039851161000,6.3201611328125,0.00023315467115025967,0.00039969373028725386,0.00038303982000797987
1761379039861186800,6.330186767578125,0.0000666156192892231,-0.00009992343257181346,0.0002165007608709857
1761379039871213800,6.3402138671875,-0.0000666156192892231,0.0001498851488577202,0.00019984686514362693
1761379039881240000,6.350239990234375,0.0002831163874361664,0.00023315467115025967,-0.00008326952229253948
1761379039891266000,6.36026611328125,0.00004996171628590673,0.0001332312385784462,0.00003330780964461155
1761379039901293000,6.37029296875,0.00011657733557512984,0.000016653904822305776,-0.00038303982000797987
1761379039911318300,6.380318359375,0.00008326952229253948,-0.00009992343257181346,-0.0001498851488577202
1761379039921344800,6.3903447265625,0.0003497319994494319,-0.0003330780891701579,0.00003330780964461155
1761379039931372000,6.4003720703125,0.0006828100886195898,-0.00019984686514362693,0.0004996171337552369
1761379039941397200,6.410397216796875,0.00038303982000797987,-0.0001498851488577202,-0.00009992343257181346
1761379039951423200,6.42042333984375,-0.0001498851488577202,-0.00011657733557512984,0.0000666156192892231
1761379039961450200,6.4304501953125,-0.0007494257297366858,-0.0008993108640424907,0.0004996171337552369
1761379039971453000,6.440452880859375,-0.00003330780964461155,0.00004996171628590673,0.0005495788645930588
1761379039981501000,6.4505009765625,-0.0003330780891701579,-0.0002831163874361664,0.0013323123566806316
1761379039991528400,6.460528564453125,-0.0005828866851516068,-0.00008326952229253948,0.0006828100886195898
1761379040001555700,6.4705556640625,0.00004996171628590673,0,0.0005662327748723328
1761379040011581000,6.480580810546875,-0.0007161179091781378,0.00023315467115025967,0.00016653904458507895
1761379040021608000,6.49060791015625,-0.0001332312385784462,-0.0000666156192892231,-0.0001332312385784462
1761379040031634000,6.500634033203125,0.0003164241788908839,-0.00009992343257181346,-0.00004996171628590673
1761379040041659100,6.5106591796875,-0.00008326952229253948,0.00046630934230051935,-0.0003663859097287059
1761379040051663000,6.5206630859375,-0.0006161945057101548,0.0004163476114626974,0.0004996171337552369
1761379040061712000,6.5307119140625,-0.00018319295486435294,-0.0001498851488577202,-0.0001498851488577202
1761379040071737600,6.540737548828125,0.00016653904458507895,-0.0003330780891701579,-0.00011657733557512984
1761379040081765400,6.550765380859375,0.00019984686514362693,-0.0008493491332046688,-0.0003497319994494319
1761379040091791000,6.560791015625,0.0002664624771568924,-0.0007327718194574118,-0.00003330780964461155
1761379040101817000,6.570817138671875,0.00008326952229253948,-0.0000666156192892231,-0.00038303982000797987
1761379040111843600,6.580843505859375,0.0004330015217419714,0.0006328483577817678,0.0002997702977154404
1761379040121869600,6.59086962890625,0.000016653904822305776,-0.00039969373028725386,0.00019984686514362693
1761379040131895800,6.600895751953125,-0.00039969373028725386,-0.00024980856687761843,0.00011657733557512984
1761379040141921800,6.610921875,0.00046630934230051935,0.0006661561783403158,-0.00009992343257181346
1761379040151948800,6.62094873046875,0.00023315467115025967,0.0002664624771568924,-0.00016653904458507895
1761379040161974000,6.63097412109375,-0.0001498851488577202,-0.0002664624771568924,-0.00003330780964461155
1761379040171977200,6.640977294921875,-0.000016653904822305776,-0.00008326952229253948,0.0004163476114626974
1761379040182026800,6.65102685546875,0.00038303982000797987,0.00016653904458507895,0.000016653904822305776
1761379040192053000,6.661052978515625,-0.0002997702977154404,-0.00023315467115025967,0.0001498851488577202
1761379040202078700,6.67107861328125,-0.0000666156192892231,-0.0005828866851516068,0.00019984686514362693
1761379040212083000,6.6810830078125,-0.00016653904458507895,0.00024980856687761843,0.0005329249543137848
1761379040222131500,6.69113134765625,0.0002831163874361664,-0.0003330780891701579,-0.0002664624771568924
1761379040232158200,6.701158203125,0.0002997702977154404,0.0001498851488577202,-0.0005828866851516068
1761379040242183700,6.71118359375,-0.0002997702977154404,-0.00038303982000797987,0.0003330780891701579
1761379040252210200,6.721210205078125,-0.0002997702977154404,-0.0006495022680610418,0.0004330015217419714
1761379040262236700,6.731236572265625,-0.00011657733557512984,-0.00039969373028725386,-0.0005329249543137848
1761379040272263000,6.741262939453125,0.0005162710440345109,-0.00018319295486435294,0.00009992343257181346
1761379040282289000,6.751288818359375,0.0005995405954308808,-0.0001498851488577202,0.0001498851488577202
1761379040292315600,6.761315673828125,0.00016653904458507895,-0.000016653904822305776,0.00009992343257181346
1761379040302341600,6.771341552734375,-0.00046630934230051935,0.00024980856687761843,0.0007993874605745077
1761379040312368000,6.7813681640625,0.00023315467115025967,-0.00044965543202124536,0.00048296325257979333
1761379040322394400,6.791394287109375,0.00023315467115025967,-0.0003497319994494319,-0.0000666156192892231
1761379040332410000,6.80141015625,0.0005828866851516068,-0.0003164241788908839,0.00018319295486435294
1761379040342447600,6.811447509765625,0.00038303982000797987,0.00003330780964461155,-0.0000666156192892231
1761379040352472800,6.821472900390625,-0.00018319295486435294,0.00018319295486435294,-0.00018319295486435294
1761379040362499600,6.83149951171875,0.0007660796400159597,-0.0003164241788908839,0.00011657733557512984
1761379040372525300,6.841525390625,0.0001498851488577202,-0.00046630934230051935,-0.00044965543202124536
1761379040382550500,6.851550537109375,0.00039969373028725386,0.0004163476114626974,-0.0007161179091781378
1761379040392578000,6.861578125,0.0005329249543137848,0.00018319295486435294,-0.0004330015217419714
1761379040402602000,6.87160205078125,-0.00016653904458507895,-0.00008326952229253948,-0.0005995405954308808
1761379040412630500,6.881630615234375,-0.0002831163874361664,0.0003497319994494319,0.0001498851488577202
1761379040422657000,6.891656982421875,-0.0005495788645930588,-0.0001332312385784462,0.00011657733557512984
1761379040432662500,6.90166259765625,-0.0007827335502952337,-0.00009992343257181346,0.00048296325257979333
1761379040442709000,6.911708984375,-0.0006161945057101548,0.0002997702977154404,0.00011657733557512984
1761379040452735200,6.9217353515625,-0.0003497319994494319,0.00008326952229253948,0.00046630934230051935
1761379040462761500,6.931761474609375,-0.0002165007608709857,-0.0003164241788908839,0.0007827335502952337
1761379040472787200,6.941787109375,0.00011657733557512984,-0.0003497319994494319,0.00018319295486435294
1761379040482813400,6.9518134765625,0.00016653904458507895,0.000016653904822305776,-0.0002997702977154404
1761379040492840200,6.961840087890625,-0.0004163476114626974,-0.0007494257297366858,-0.00004996171628590673
1761379040502866700,6.97186669921875,-0.00024980856687761843,-0.000016653904822305776,0.0002165007608709857
1761379040512892400,6.981892333984375,0.0000666156192892231,-0.0001498851488577202,-0.0002997702977154404
1761379040522918700,6.991918701171875,0.0004330015217419714,-0.0002664624771568924,-0.0006661561783403158
1761379040532945200,7.001945068359375,0.0003497319994494319,-0.00009992343257181346,-0.0006994639988988638
1761379040542971100,7.01197119140625,0.0004163476114626974,0.00009992343257181346,-0.0005828866851516068
1761379040552997000,7.0219970703125,0.0005495788645930588,-0.00003330780964461155,-0.0005495788645930588
1761379040563024400,7.0320244140625,0.0002664624771568924,-0.0008493491332046688,-0.000016653904822305776
1761379040573049600,7.042049560546875,0.0002997702977154404,-0.00044965543202124536,-0.0007827335502952337
1761379040583076000,7.052076171875,0.00044965543202124536,-0.000016653904822305776,0.0006828100886195898
1761379040593102300,7.062102294921875,-0.0002997702977154404,0.0003164241788908839,0.0004330015217419714
1761379040603092200,7.07209228515625,0.0006495022680610418,-0.0010991577291861176,0.0001332312385784462
1761379040613154600,7.082154541015625,0.0001332312385784462,0.0009326186846010387,0.0007993874605745077
1761379040623182000,7.09218212890625,0.00019984686514362693,0.0004330015217419714,0.0006161945057101548
1761379040633193200,7.102193115234375,-0.0006994639988988638,-0.0005329249543137848,0.00039969373028725386
1761379040643233800,7.11223388671875,-0.0007161179091781378,0.0007161179091781378,0.0003164241788908839
1761379040653260300,7.12226025390625,-0.0005329249543137848,0.0003164241788908839,0.0006661561783403158
1761379040663285800,7.13228564453125,0.00003330780964461155,-0.0009992342675104737,-0.0003164241788908839
1761379040673311700,7.142311767578125,-0.0002831163874361664,0.0011657733703032136,-0.00044965543202124536
1761379040683338000,7.152337890625,-0.0001332312385784462,-0.00018319295486435294,0.00004996171628590673
1761379040693364700,7.16236474609375,0.0003164241788908839,-0.0007494257297366858,-0.0005828866851516068
1761379040703391200,7.17239111328125,0.00016653904458507895,0,-0.0002831163874361664
1761379040713417000,7.1824169921875,0.00016653904458507895,-0.0004996171337552369,-0.0002997702977154404
1761379040723443200,7.192443115234375,-0.00024980856687761843,-0.0007827335502952337,0.0005329249543137848
1761379040733470200,7.20247021484375,-0.00044965543202124536,0.0005329249543137848,0.0001332312385784462
1761379040743495700,7.21249560546875,-0.0002664624771568924,-0.0005995405954308808,0.0007494257297366858
1761379040753521700,7.222521728515625,-0.00018319295486435294,-0.0010158881777897477,0.0003497319994494319
1761379040763548200,7.232548095703125,0.0006161945057101548,0.0002664624771568924,0.0006828100886195898
1761379040773574000,7.242573974609375,-0.00009992343257181346,0.00008326952229253948,-0.0002664624771568924
1761379040783600400,7.252600341796875,-0.00023315467115025967,-0.0011324655497446656,0.00008326952229253948
1761379040793626400,7.26262646484375,-0.0002831163874361664,-0.0000666156192892231,0.0007327718194574118
1761379040803633400,7.27263330078125,-0.0006161945057101548,0.0002997702977154404,0.0008326952229253948
1761379040813667600,7.28266748046875,0.00003330780964461155,-0.0004996171337552369,0.0005662327748723328
1761379040823705300,7.292705322265625,0,-0.00016653904458507895,0.000016653904822305776
1761379040833709800,7.302709716796875,0.00008326952229253948,0.0000666156192892231,0.0008493491332046688
1761379040843758600,7.312758544921875,0.00003330780964461155,-0.0003663859097287059,0.0003330780891701579
1761379040853783600,7.322783447265625,0.0002997702977154404,0.0001498851488577202,0.000016653904822305776
1761379040863810600,7.332810546875,-0.0003164241788908839,-0.0001498851488577202,-0.00023315467115025967
1761379040873836300,7.342836181640625,0.00023315467115025967,-0.0007327718194574118,-0.0000666156192892231
1761379040883863000,7.352863037109375,-0.00008326952229253948,-0.0001332312385784462,-0.00011657733557512984
1761379040893890300,7.362890380859375,0.0002664624771568924,-0.0009825803572311997,-0.0002831163874361664
1761379040903915000,7.3729150390625,0.0009159647743217647,-0.00011657733557512984,-0.0002831163874361664
1761379040913941500,7.38294140625,0.00039969373028725386,0.00003330780964461155,-0.000016653904822305776
1761379040923968300,7.39296826171875,-0.0001332312385784462,0.00046630934230051935,0.00019984686514362693
1761379040933995000,7.4029951171875,-0.0004996171337552369,-0.00044965543202124536,0.00009992343257181346
1761379040944020500,7.4130205078125,-0.0008493491332046688,0.00008326952229253948,0.0000666156192892231
1761379040954047000,7.423046875,0.00046630934230051935,-0.00011657733557512984,0.0003497319994494319
1761379040964072400,7.433072509765625,0.00016653904458507895,0.00018319295486435294,0.00008326952229253948
1761379040974099000,7.443098876953125,-0.00011657733557512984,0.0002165007608709857,0.00023315467115025967
1761379040984124700,7.453124755859375,-0.00008326952229253948,-0.0004163476114626974,0.0003330780891701579
1761379040994151200,7.463151123046875,-0.0002165007608709857,0.00039969373028725386,0.0003663859097287059
1761379041004178000,7.473177978515625,-0.00019984686514362693,0.000016653904822305776,0.0007161179091781378
1761379041014204400,7.483204345703125,0.0008660030434839427,0.0006828100886195898,0.00018319295486435294
1761379041024230400,7.49323046875,-0.0003497319994494319,0.0005162710440345109,0.00039969373028725386
1761379041034257400,7.50325732421875,-0.00046630934230051935,0.00016653904458507895,-0.0003497319994494319
1761379041044282600,7.51328271484375,0.0002831163874361664,-0.0005495788645930588,0.00018319295486435294
1761379041054308900,7.523308837890625,-0.0003164241788908839,0.0004330015217419714,-0.0002997702977154404
1761379041064335400,7.53333544921875,-0.0002831163874361664,0.0003663859097287059,0.000016653904822305776
1761379041074361000,7.543361083984375,-0.0007827335502952337,-0.0003164241788908839,0.0004163476114626974
1761379041084370200,7.5533701171875,0.00023315467115025967,0.0004996171337552369,0.0003330780891701579
1761379041094414000,7.5634140625,-0.0002831163874361664,0.00004996171628590673,0.0002831163874361664
1761379041104439800,7.573439697265625,0.00016653904458507895,0.00024980856687761843,-0.0005828866851516068
1761379041114443800,7.58344384765625,-0.0002165007608709857,-0.00016653904458507895,0.0004163476114626974
1761379041124492300,7.5934921875,-0.0003497319994494319,0.0001332312385784462,0.0005995405954308808
1761379041134519300,7.603519287109375,-0.00018319295486435294,0.0015321592800319195,0.0002165007608709857
1761379041144545300,7.613545166015625,-0.00044965543202124536,0.0002165007608709857,-0.0002997702977154404
1761379041154574600,7.62357470703125,0.000016653904822305776,-0.0003663859097287059,-0.00039969373028725386
1761379041164597500,7.633597412109375,-0.00009992343257181346,0.0003164241788908839,0.00044965543202124536
1761379041174623000,7.643623046875,-0.0002997702977154404,-0.00038303982000797987,0.0000666156192892231
1761379041184650500,7.653650390625,0.0002997702977154404,-0.00038303982000797987,-0.0003497319994494319
1761379041194654700,7.66365478515625,-0.00039969373028725386,-0.0004163476114626974,-0.00008326952229253948
1761379041204681500,7.673681396484375,-0.00024980856687761843,-0.0001498851488577202,-0.0002997702977154404
1761379041214729000,7.68372900390625,-0.00011657733557512984,-0.000016653904822305776,0.00004996171628590673
1761379041224755500,7.69375537109375,0.0003330780891701579,0.0005495788645930588,-0.0007161179091781378
1761379041234781400,7.703781494140625,-0.0003330780891701579,0,-0.0002997702977154404
1761379041244807700,7.7138076171875,-0.0002165007608709857,0.00008326952229253948,0.0003164241788908839
1761379041254834400,7.72383447265625,-0.0000666156192892231,0.0011324655497446656,-0.00009992343257181346
1761379041264860000,7.73385986328125,-0.0000666156192892231,-0.0004163476114626974,0.00046630934230051935
1761379041274886700,7.74388671875,0.0006161945057101548,0.0008326952229253948,0.00039969373028725386
1761379041284889300,7.753889404296875,-0.0006661561783403158,0.0018485834589228034,0
1761379041294939000,7.76393896484375,-0.0003497319994494319,0.0008326952229253948,0.0006328483577817678
1761379041304964900,7.77396484375,0.000016653904822305776,0.0021150459069758654,0.00004996171628590673
1761379041314973000,7.783972900390625,-0.0000666156192892231,0.003530627815052867,0.0006994639988988638
1761379041325017600,7.794017578125,0.00003330780964461155,0.004713055212050676,0.0018818912794813514
1761379041335043000,7.80404296875,0.0001332312385784462,0.004763016942888498,0.002331546740606427
1761379041345070600,7.814070556640625,-0.00009992343257181346,0.005162710323929787,0.003397396532818675
1761379041355096600,7.8240966796875,-0.00008326952229253948,0.006644907873123884,0.003397396532818675
1761379041365121800,7.834121826171875,-0.00009992343257181346,0.0006661561783403158,0.0020317763555794954
1761379041375148800,7.844148681640625,-0.0003164241788908839,-0.0011324655497446656,0.0014155819080770016
1761379041385175000,7.854175048828125,0.00044965543202124536,-0.0004163476114626974,-0.0002664624771568924
1761379041395201500,7.864201416015625,0.00044965543202124536,-0.003264165250584483,-0.0012157351011410356
1761379041405227500,7.8742275390625,0.00003330780964461155,-0.004379977006465197,-0.004130168352276087
1761379041415246000,7.88424609375,0.0006661561783403158,-0.004280053544789553,-0.00464643957093358
1761379041425279200,7.894279296875,0.00046630934230051935,-0.005695635452866554,-0.0038970138411968946
1761379041435307000,7.90430712890625,0.00024980856687761843,-0.009675919078290462,-0.0019984685350209475
1761379041445309400,7.914309326171875,-0.0006161945057101548,-0.008293644525110722,-0.0012823506258428097
1761379041455358500,7.9243583984375,-0.00004996171628590673,0.0007161179091781378,0.0007660796400159597
