time,seconds_elapsed,z,y,x
1761316537506000100,0.079000244140625,-0.07010112570822238,-0.0068936593707185235,0.00858384551394265
1761316537515981800,0.08898193359375,-0.06920505365133285,-0.00799932819083333,0.009497528576047624
1761316537525965000,0.098965087890625,-0.07234802785217762,-0.00014133556629531086,0.008956505618081428
1761316537535946800,0.10894677734375,-0.0786316381663084,-0.007391745085967704,0.006640538559597916
1761316537545930000,0.118929931640625,-0.08312018175721168,0.003178931430215016,0.01663494499120861
1761316537555912000,0.128911865234375,-0.08102525530457497,0.0040637879733461885,0.020481651581195182
1761316537565895000,0.13889501953125,-0.07414251005351542,0.005181740886298939,0.013438046362751628
1761316537575876900,0.148876953125,-0.07099719776511192,0.006058697250764817,0.015690188654116356
1761316537585860000,0.158860107421875,-0.07189443886578083,0.005616935699479654,0.0076629130104323845
1761316537595841800,0.168841796875,-0.07204407646954059,0.009378808983648195,0.009677922077674884
1761316537605825000,0.178824951171875,-0.07758300589621067,0.007265305694704875,0.008036518396064639
1761316537615807000,0.188806884765625,-0.07369301272034645,0.0018018069912679492,0.013697631163988262
1761316537625790000,0.1987900390625,-0.07339256846904754,0.006689798228535801,0.011857512872770894
1761316537635772000,0.20877197265625,-0.07728431521058082,0.0003574716681614518,0.00850713158249855
1761316537645755100,0.218755126953125,-0.07743395281434058,0.010527522361045703,0.02077891064485302
1761316537655736800,0.22873681640625,-0.07728431521058082,0.002728292452730238,0.02017024526117602
1761316537665720000,0.238719970703125,-0.08326923483908176,0.004204575550369918,0.017945943108096253
1761316537675701800,0.24870166015625,-0.07189794599711895,0.00904207870941609,0.02023931930885883
1761316537685685000,0.25868505859375,-0.06471417197287083,0.008500683575402944,0.00833812484127702
1761316537695667000,0.2686669921875,-0.07668634931743144,0.008399296427005902,0.011340521527652163
1761316537705650000,0.27864990234375,-0.07473989142477512,-0.002961452754633501,0.003883259757689666
1761316537715631900,0.2886318359375,-0.07159808626770973,0.001252411213889718,0.008092312837066129
1761316537725615000,0.298614990234375,-0.07100070489645004,0.006228802253818139,0.009544075698091183
1761316537735596800,0.3085966796875,-0.08072539557516574,-0.0032846294275484978,0.00553826270638965
1761316537745580000,0.318580078125,-0.0838683697760105,-0.005365088963415474,0.015194185298099181
1761316537755562000,0.32856201171875,-0.07384440388977527,-0.0021070918144658205,0.011095337427814956
1761316537765545000,0.338544921875,-0.0747404759466648,-0.004770940728858113,0.016938330118265003
1761316537775527000,0.34852685546875,-0.07668634931743144,-0.004301980643393472,0.013050229788676369
1761316537785510100,0.35851025390625,-0.07982815447449684,0.005993322130665182,0.00877581300564343
1761316537795491800,0.368491943359375,-0.07324351538717747,0.005680100596183911,0.00538677792212693
1761316537805475000,0.37847509765625,-0.07249708093404769,0.0043379378727637224,0.006115907330717891
1761316537815456800,0.388456787109375,-0.07563947061300277,0.00463471972909756,0.00309125543005066
1761316537825440000,0.39843994140625,-0.07294716278910636,-0.0012402549852151422,0.004005616628879215
1761316537835422000,0.408421875,-0.07145312483906746,-0.0003533434823155403,0.004162389509612694
1761316537845405000,0.418405029296875,-0.08686579802632331,0.0032414570061024277,0.009102597274596337
1761316537855387000,0.428386962890625,-0.07968553113341331,-0.003807913516135886,0.014145532478403765
1761316537865370000,0.4383701171875,-0.0781874015301466,-0.006743884769640863,0.018974247259506954
1761316537875351800,0.448351806640625,-0.08013152133524418,-0.0033558497665449973,0.011409017903311178
1761316537885335000,0.4583349609375,-0.08027940537333488,0.0022332937437109647,0.016629921756219117
1761316537895316700,0.468316650390625,-0.06950199077129364,0.007376666247844696,0.02069178720053751
1761316537905300000,0.478300048828125,-0.06321779593527317,0.00905322115793824,0.01561163210874656
1761316537915282000,0.488281982421875,-0.07907879741191863,0.004032863112119958,0.007997124817303847
1761316537925265000,0.498264892578125,-0.08461480422914028,0.0019352332457434386,0.011790765496203675
1761316537935246800,0.508246826171875,-0.07713175499737263,0.008464963808050379,0.011843628194602206
1761316537945230000,0.51822998046875,-0.07518821971416473,-0.004764246126590296,0.007603182179830036
1761316537955211800,0.528211669921875,-0.08222118709087371,-0.003448779613850638,0.0050731202795170245
1761316537965195000,0.538195068359375,-0.07399170340597629,-0.004618252651486546,0.011014497593813575
1761316537975177000,0.548177001953125,-0.07264554949402809,-0.0017386694940272718,0.01699629140017787
1761316537985160000,0.558159912109375,-0.07339373751282692,0.0003219802296720445,0.014755627200764137
1761316537995142000,0.568141845703125,-0.07219546763896942,-0.0001969382110517472,0.02192135867824545
1761316538005125000,0.578125,-0.06830605898499488,-0.0007624083403963595,0.022993787382461595
1761316538015106800,0.58810693359375,-0.07668634931743144,0.005823956913128495,0.008966597753833048
1761316538025090000,0.598090087890625,-0.08132569955587386,0.0024263138314709067,0.001782821446296293
1761316538035071700,0.60807177734375,-0.0864133780837059,0.005874344526650384,0.008861290198855567
1761316538045055000,0.618054931640625,-0.07968027043640613,0.004230157516198233,0.0005723085787962191
1761316538055037000,0.628036865234375,-0.07698620904684067,-0.0010177530746441335,0.012020313635491765
1761316538065020000,0.63802001953125,-0.08356967909038067,-0.002998871288727969,0.0127974948533345
1761316538075001900,0.648001953125,-0.07129764201641083,-0.0035619941973593083,0.015729178090789355
1761316538084985000,0.657985107421875,-0.07039864735007285,-0.0010851009561214594,0.02054443288540933
1761316538094966800,0.667966796875,-0.08341887244284152,0.00024328897027298807,0.01194073417681502
1761316538104950000,0.677949951171875,-0.07937982618510722,0.0069163917923346155,0.014791454282682389
1761316538114932000,0.687931884765625,-0.07578852369487285,0.006299639000324532,0.010380741151364054
1761316538124915000,0.6979150390625,-0.08431435997784137,0.0037051563945598898,0.005065142469038255
1761316538134897000,0.70789697265625,-0.0781786337018013,0.00950082792812027,0.013043277174793182
1761316538144880000,0.717880126953125,-0.07234159811139107,0.009887516557611524,0.006659702201082836
1761316538154861800,0.72786181640625,-0.07608429177105426,0.005803224652353674,0.010428913974913303
1761316538164845000,0.737844970703125,-0.07009937214255332,-0.004599995475588366,0.00350180214245338
1761316538174826800,0.74782666015625,-0.08087386413514613,-0.004699857387179509,0.00579202055503847
1761316538184810000,0.75781005859375,-0.07249415832459927,-0.0045517906859982755,0.013037240159651263
1761316538194792000,0.7677919921875,-0.07054886947572231,-0.0022968604992143807,0.023097989825741388
1761316538204775000,0.77777490234375,-0.08341770339906215,0.0007325885908678174,0.022496272489370313
1761316538214756900,0.7877568359375,-0.0669587360292673,0.004587218192405999,0.021397069942660163
1761316538224740000,0.797739990234375,-0.06261807647645473,0.0028466490022372453,0.014031196800176985
1761316538234721800,0.8077216796875,-0.074736384293437,0.003861598198441788,0.004794835344387684
1761316538244705000,0.817705078125,-0.07817571109235286,0.010416143541596829,0.0018011631038738413
1761316538254687000,0.82768701171875,-0.08251520160138606,0.0015642719083465634,0.006840431346138939
1761316538264670000,0.837669921875,-0.0787801067262888,0.005377446121489629,0.008125548386387526
1761316538274652000,0.84765185546875,-0.07967968591451645,0.00024496033755131065,0.011708589938352816
1761316538284635100,0.85763525390625,-0.06711012719869613,0.0036666875476948917,0.015174713412648998
1761316538294616800,0.867616943359375,-0.06980185050070285,-0.0028658103604335336,0.01674562740762485
1761316538304600000,0.87760009765625,-0.07877893768250942,0.0010706340393517165,0.013263212668942287
1761316538314581800,0.887581787109375,-0.08042495132386684,-0.00657360623665154,0.030331569224910343
1761316538324565000,0.89756494140625,-0.07653437362611293,0.005836697663692757,0.0178617080238997
1761316538334547000,0.907546875,-0.08685703019797801,0.001920181807084009,0.011360482036869507
1761316538344529000,0.91752880859375,-0.0693511841237545,-0.0026033417656552045,0.00621399512704229
1761316538354512000,0.927511962890625,-0.07683423335552216,0.005835875679785385,0.005576190413848962
1761316538364493800,0.937493896484375,-0.07907938193380833,0.0027649438018444925,0.006750376159220468
1761316538374476800,0.947476806640625,-0.07099661324322223,-0.0032153818499296902,0.003834856321988627
1761316538384459000,0.957458984375,-0.07832710226178169,-0.00485416203290224,0.0029285733983386306
1761316538394441700,0.967441650390625,-0.0765314510166645,0.006366895550256595,0.008328751941444352
1761316538404424000,0.977423828125,-0.08042144419252872,0.009653013681992888,0.014238816235447302
1761316538414407000,0.987406982421875,-0.06770283239483833,0.005653066458785906,0.015905502772075125
1761316538424388900,0.997388916015625,-0.07398878079652786,0.0021417978016659615,0.02121347527037142
1761316538434371800,1.007371826171875,-0.0754857413560152,0.003393861955683678,0.010510605475574265
1761316538444354000,1.01735400390625,-0.08267009990215302,-0.0006677888595033437,0.010287110334448516
1761316538454336800,1.027336669921875,-0.07444061621725559,0.005841035912092775,0.01434360320061678
1761316538464319000,1.037319091796875,-0.07039981639385223,0.00610955065516755,0.0104115586980246
1761316538474302000,1.047302001953125,-0.0762350984185934,0.003545600184984505,0.0025188920523272827
1761316538484284000,1.057283935546875,-0.06860358062684535,-0.0012623024202417581,0.007500144213752355
1761316538494267000,1.067266845703125,-0.08207213400900364,-0.0006292926131747662,0.012208801395318004
1761316538504248800,1.077248779296875,-0.07698328643739223,0.0025231435357593,0.010292122152994852
1761316538514231800,1.087231689453125,-0.07444178526103497,0.001914382253959775,0.0129904395925696
1761316538524214000,1.097214111328125,-0.09120002783834934,0.006509107899386435,0.015600551309017463
1761316538534196700,1.10719677734375,-0.07563654800355434,-0.003332450624648481,0.015507623745000455
1761316538544179000,1.117178955078125,-0.07862988460063934,0.008206212407164275,0.016505966582987457
1761316538554162000,1.127161865234375,-0.07174538578391075,0.005455397595372051,0.017830031960713675
1761316538564143900,1.137143798828125,-0.0702484252244234,0.00003337254663929343,0.005143087093054782
1761316538574126800,1.147126953125,-0.07922551240622996,0.0015600889235734938,0.008353516489942557
1761316538584109000,1.157109130859375,-0.08536123868227005,0.0006876443374436348,0.0016966775328037327
1761316538594091800,1.167091796875,-0.07922668145000934,0.003140371251804754,0.014657057630538473
1761316538604074000,1.177073974609375,-0.08012567611634731,0.007216269788052886,0.007791457593813538
1761316538614057000,1.187056884765625,-0.07863046912252902,-0.004966344569949433,0.010786878833419177
1761316538624039000,1.197038818359375,-0.07354103702902794,-0.0037262722478248176,0.020401464767742437
1761316538634022000,1.20702197265625,-0.07892740624248981,-0.00047989247143268585,0.014360428754542954
1761316538644003800,1.21700390625,-0.07443827812969685,0.004435361232096329,0.013120584761281497
1761316538653986800,1.22698681640625,-0.07054711591005325,0.00871310248337686,0.015508176300849299
1761316538663969000,1.236968994140625,-0.07219079146385192,0.01051703749964945,0.013125482415396253
1761316538673951700,1.24695166015625,-0.07428630243837833,0.005736625689547509,0.015539235876104793
1761316538683934000,1.256933837890625,-0.0702443335711956,-0.005429751697462052,0.00764033585244324
1761316538693917000,1.2669169921875,-0.06934533890485763,0.0010799589901231228,-0.00005580129086738452
1761316538703899000,1.27689892578125,-0.07727905451357364,0.008437573477625847,0.004230264830763917
1761316538713881900,1.2868818359375,-0.07488660641908645,0.005264368535298854,0.0075314983332413245
1761316538723863800,1.29686376953125,-0.07713000143170357,0.0017852759815752506,0.010931267156614922
1761316538733846800,1.3068466796875,-0.07668050409853458,0.0074612940576858815,0.013856822047382592
1761316538743829000,1.3168291015625,-0.07323883921205997,-0.0025555114354006946,0.008420576677052304
1761316538753811700,1.326811767578125,-0.08685586115419865,-0.0030037118606269357,0.012176586476014927
1761316538763794000,1.3367939453125,-0.08431260641217231,-0.0005822568673640489,0.013717415859980974
1761316538773777000,1.34677685546875,-0.08132102338075638,0.012202908227359876,0.004538903804961592
1761316538783758800,1.3567587890625,-0.06979892789125441,0.0033746914643328634,0.00843947545705596
1761316538793741800,1.366741943359375,-0.0733896458595991,-0.00386086754607968,0.006944594973511993
1761316538803724000,1.37672412109375,-0.07279051092267036,0.001194150821166113,0.00896911622119369
1761316538813706800,1.386706787109375,-0.07009761857688426,0.006182433228287845,0.013025723251793533
1761316538823689000,1.39668896484375,-0.07099602872133255,0.0012763583450578152,0.010864234368968754
1761316538833672000,1.406671875,-0.07548691039979458,0.0036173045811709013,0.01183841772994492
1761316538843654000,1.41665380859375,-0.07429390122294426,-0.002092159106815234,0.016515497029735707
1761316538853636900,1.426636962890625,-0.0765402188450098,-0.0032165782931726423,0.009482251091813668
1761316538863618800,1.436618896484375,-0.07130407175719737,-0.002554461122630164,0.007690620717976707
1761316538873601800,1.446601806640625,-0.07878595194518566,-0.002559456958156079,0.009727535656350664
1761316538883584000,1.456583984375,-0.07788578823506832,0.004290071009891107,0.012749440760794095
1761316538893566700,1.466566650390625,-0.07504208924174309,0.005584302938356996,0.009148345245618838
1761316538903549000,1.476548828125,-0.07145370936095714,0.005284689804119989,0.011238730237167328
1761316538913532000,1.486531982421875,-0.06666589056253433,0.006917268575169146,0.009104437605233396
1761316538923513900,1.496513916015625,-0.07534370253682136,0.0076075980600435284,0.006337989116180688
1761316538933496800,1.506496826171875,-0.07040390804708004,0.0034582872277125714,0.01068103013903601
1761316538943479000,1.51647900390625,-0.07190203765034675,0.01074669980336912,0.0054053524751449
1761316538953461800,1.526461669921875,-0.07863631434142589,0.001175957577349618,0.00961300818187883
1761316538963443700,1.536443603515625,-0.07549158657491206,0.005629101061308756,0.015597738297423346
1761316538973427000,1.546427001953125,-0.07594283747375011,-0.007839872445957735,0.010590280832373537
1761316538983408600,1.55640869140625,-0.0835766933530569,-0.0036440647239331155,0.011197092185681686
1761316538993390800,1.566390869140625,-0.0853717600762844,0.00006830686270259321,0.012718248754797969
1761316539003373800,1.576373779296875,-0.08267828320860862,-0.0026282387448940425,0.008691644136817195
1761316539013355800,1.586355712890625,-0.07280278588235378,0.00234714764803648,0.0118045588428271
1761316539023338800,1.5963388671875,-0.08597031049132346,-0.0003662303633522242,0.004712465707003139
1761316539033320700,1.60632080078125,-0.07803776392638682,-0.0016327979667577891,-0.0022654287479119376
1761316539043303700,1.6163037109375,-0.07130173366963863,-0.001464665725082159,0.009168371970206498
1761316539053286000,1.626285888671875,-0.07459434547424316,-0.0021802209827583283,0.01236631862814538
1761316539063268600,1.6362685546875,-0.07159983983337878,0.014642154605640098,0.0027670512772514483
1761316539073250800,1.646250732421875,-0.06621230157613754,0.0014418237056117503,0.00841677500148071
1761316539083233800,1.65623388671875,-0.07189794599711895,-0.0002559657887555659,0.012275870715582277
1761316539093215700,1.6662158203125,-0.06501286265850066,0.004876821389282122,0.019478511553793213
1761316539103198700,1.67619873046875,-0.07429156313538551,-0.0005983586187940091,0.01920989634601865
1761316539113180700,1.6861806640625,-0.07309446230530739,0.0016617318002972751,0.015532180514233185
1761316539123163600,1.69616357421875,-0.07593757677674293,-0.0004077496838290244,0.009101471613300964
1761316539133145900,1.706145751953125,-0.07054886947572231,-0.0008088138985447585,0.004222702578816097
1761316539143128600,1.716128662109375,-0.07219254502952098,0.000971621511131525,0.010076636788388714
1761316539153110800,1.72611083984375,-0.0826660082489252,0.0021883586234413086,0.0027576007456053047
1761316539163093800,1.73609375,-0.07937164287865162,-0.00008439948097802698,0.009292468707333319
1761316539173075700,1.74607568359375,-0.06994447384178638,-0.0023317217500414696,0.009603018794115632
1761316539183058700,1.75605859375,-0.07622749963402747,-0.003364197469782084,0.007879466954118106
1761316539193041000,1.766041015625,-0.08370879530012607,0.00004985789055936038,0.01016626956691034
1761316539203023600,1.776023681640625,-0.08221417282819747,-0.0006057747402694076,0.006299036212125793
1761316539213005800,1.786005859375,-0.07742752307355404,-0.0024041111328173426,0.015092665718961507
1761316539222988800,1.79598876953125,-0.0780260734885931,-0.0005067074131220578,0.012167209009604994
1761316539232970800,1.805970703125,-0.08116495603621006,0.00002232142966240644,0.006892981233994942
1761316539242953700,1.81595361328125,-0.07248597501814365,0.01031113966400735,-0.00004364734548144042
1761316539252935700,1.825935791015625,-0.07383329797387123,0.0036325569492299107,0.002805298645119183
1761316539262918700,1.835918701171875,-0.0801174928098917,0.010169393105758354,0.00743337400429882
1761316539272900900,1.84590087890625,-0.06889291896224022,0.005991970423795283,0.007763007817463949
1761316539282883600,1.855883544921875,-0.06919219416975975,0.0027115513804834334,0.0019593196575180627
1761316539292865800,1.86586572265625,-0.07951777335107325,0.0006222326847258955,0.006557559284148738
1761316539302848800,1.875848876953125,-0.0735340227663517,0.0015245883519295603,0.004647362298250664
1761316539312830700,1.885830810546875,-0.06694879915714264,0.0006996727019548416,0.012670719818642828
1761316539322813700,1.895813720703125,-0.08131225555241108,0.006765877405740321,0.009518546247901395
1761316539332796000,1.9057958984375,-0.07218202363550663,0.003905062880832702,0.020754378991795237
1761316539342778600,1.915778564453125,-0.07682020483016967,0.00867779370797798,0.014959652739728335
1761316539352760800,1.9257607421875,-0.07756897737085819,0.00618765739267692,0.01572920092367567
1761316539362743800,1.935743896484375,-0.07337970898747444,-0.0034988932327367364,0.005289518959575798
1761316539372725800,1.945725830078125,-0.07622457702457905,-0.014124934931658208,0.004419152166100684
1761316539382708700,1.955708740234375,-0.08355623508691787,0.00691733250725083,0.011935516862291842
1761316539392690700,1.965690673828125,-0.0796639038234949,0.0017351988953072577,0.010161214365880005
1761316539402673700,1.975673583984375,-0.07308160282373428,-0.00459387626205571,0.01675423768905457
1761316539412655900,1.98565576171875,-0.08205927452743053,-0.0005514507371466606,0.013843295845529064
1761316539422637800,1.995637939453125,-0.08086158917546271,-0.003709585974505171,0.015187906254362313
1761316539432620800,2.005620849609375,-0.0730804337799549,-0.00042179647549055513,0.01752085869697621
1761316539442603800,2.015603759765625,-0.07637070749700069,-0.0011170304643455893,0.013538522478984669
1761316539452585700,2.025585693359375,-0.07322948686182498,-0.0036122265472542494,0.0033754791989107614
1761316539462567700,2.035567626953125,-0.0765226831883192,-0.0005731419791467487,0.0074863554337061934
1761316539472550700,2.045550537109375,-0.060063715818524356,0.00250275833485648,0.0077002036803634835
1761316539482532900,2.055532958984375,-0.0727846657037735,0.002596647163387388,0.004624853638920467
1761316539492515800,2.065515869140625,-0.07667758148908614,-0.001449833482131362,0.001777859860099852
1761316539502497800,2.075497802734375,-0.0781739575266838,0.003750164580065757,-0.002763121737516485
1761316539512480800,2.085480712890625,-0.08026946850121021,-0.0031035007069818675,0.008901551427296362
1761316539522462700,2.095462646484375,-0.08356149578392505,-0.0028645317187998443,0.011568450815300457
1761316539532445700,2.10544580078125,-0.07907412123680115,0.00007133907000534236,0.010974188416311518
1761316539542428000,2.115427978515625,-0.07997194685935974,0.000955291430838406,0.017648206837114412
1761316539552411000,2.125410888671875,-0.07473404620587826,-0.002065663825534284,0.016391923165705518
1761316539562392800,2.135392822265625,-0.07667758148908614,0.000045967166731134055,0.011240892511501442
1761316539572375800,2.145375732421875,-0.09014496582746505,-0.002820783908618614,0.0028958995380206033
1761316539582357800,2.155357666015625,-0.08490706517398357,-0.0034157997928559777,0.005343078061006963
1761316539592340700,2.1653408203125,-0.06635200230777263,-0.005370660187676549,0.0040677540456992576
1761316539602323000,2.175322998046875,-0.08026713041365147,0.0025130422668531533,0.005500392081146128
1761316539612305700,2.1853056640625,-0.07248480597436428,0.007376912843016907,0.012156452436861582
1761316539622288000,2.195287841796875,-0.07622457702457905,0.00926478154938668,0.014018453766324091
1761316539632270800,2.205270751953125,-0.07936579765975475,0.014579081040481105,0.00762226362292422
1761316539642252800,2.215252685546875,-0.08205985904932021,0.012243021042039616,0.010664371265179943
1761316539652235800,2.22523583984375,-0.07981587951481342,0.002993437061784789,0.014937936381553298
1761316539662217700,2.2352177734375,-0.07487959215641021,0.0005896455893758684,0.02281013562795706
1761316539672200700,2.24520068359375,-0.07847323273420334,0.009737796755461022,0.024019684947654604
1761316539682183000,2.255182861328125,-0.07039514021873473,0.006745583536382764,0.014867286864714696
1761316539692166000,2.265165771484375,-0.0760831227272749,0.0060946362138260156,0.023052600331034043
1761316539702147800,2.27514794921875,-0.07967500973939895,-0.0010573361663613469,0.007922671341605018
1761316539712130800,2.285130859375,-0.08580898244976996,-0.0014676796660758554,0.00782541694563115
1761316539722112800,2.29511279296875,-0.08101999460756779,-0.00014891608455218374,0.0022395887704682537
1761316539732095700,2.305095703125,-0.07024491809308528,-0.00922253157654777,-0.007997620290936902
1761316539742078000,2.315077880859375,-0.07174187865257263,0.0017117723539471625,-0.002777725651604123
1761316539752060700,2.325060791015625,-0.07593114703595638,0.0025257464847993102,0.005506769306294154
1761316539762043000,2.33504296875,-0.07757540711164473,-0.004043311440898105,0.007525077725609298
1761316539772025900,2.34502587890625,-0.07592822442650794,-0.004891105642961338,0.007277473339822609
1761316539782007800,2.3550078125,-0.07832301060855389,-0.004710506645357236,0.01442723093003733
1761316539791990800,2.36499072265625,-0.08550620011091231,0.002803065588837489,0.01657088276207214
1761316539801972700,2.37497265625,-0.0768278036147356,-0.000910000117542222,0.018337677805463318
1761316539811955700,2.384955810546875,-0.08027063754498959,0.003057268678769469,0.011609707557584625
1761316539821938000,2.39493798828125,-0.0792243433624506,-0.0031531211355235425,0.009908454314363189
1761316539831919600,2.404919677734375,-0.07174421674013137,0.003042482101591304,0.005383631550392601
1761316539841902800,2.41490283203125,-0.07309212421774863,0.012852923968154937,0.0038588148695998825
1761316539851884800,2.424884765625,-0.06995090358257293,0.00846082648904994,0.012675551257387268
1761316539861867800,2.43486767578125,-0.07982756995260715,0.0033928116429131475,0.009937344765418674
1761316539871849700,2.444849609375,-0.08177402784526347,0.007164968859078362,-0.0034327920268522574
1761316539881833000,2.4548330078125,-0.06606207945048809,-0.00003579283258877695,0.0023969986887299455
1761316539891814700,2.464814697265625,-0.0820738875746727,0.0029959212798159568,0.009056333280343096
1761316539901798000,2.4747978515625,-0.08491700204610825,-0.002995199760608375,0.010787821831624023
1761316539911779600,2.484779541015625,-0.07070376777648925,-0.003146764459973201,0.009218076880427542
1761316539921762800,2.4947626953125,-0.08042904297709465,-0.006905477672675624,0.01578168916273862
1761316539931744800,2.504744873046875,-0.06875555631816387,-0.006283044058550149,0.01660009515682468
1761316539941727700,2.514727783203125,-0.07683481787741184,0.0003814918645657599,0.011824866411916445
1761316539951710700,2.524710693359375,-0.08192015831768512,0.0016140658668242394,0.010898196004074998
1761316539961693400,2.534693359375,-0.07444003169536591,0.008186082934588194,0.0020100611807778476
1761316539971675600,2.544675537109375,-0.07129939558207989,0.010373199449013918,0.012118606927793006
1761316539981658600,2.55465869140625,-0.07593816129863262,0.009325160833960398,0.004132526377600152
1761316539991640600,2.564640625,-0.07025368592143058,0.0020646226459182797,0.003514177566836588
1761316540001623600,2.57462353515625,-0.07893442050516605,0.0005129088250454515,0.0071093936137855045
1761316540011605500,2.58460546875,-0.08716390419006347,0.000921955416817218,0.006640305664157495
1761316540021588500,2.59458837890625,-0.07863339173197746,-0.009657361063547433,0.010680911408027167
1761316540031570700,2.60457080078125,-0.07279635614156722,-0.008227072532102465,0.008710115941846742
1761316540041553700,2.6145537109375,-0.06980301954448223,-0.0028778843907173723,0.007508953141293022
1761316540051535600,2.62453564453125,-0.0739911188840866,-0.004062637195875868,-0.002118727453332394
1761316540061518600,2.6345185546875,-0.07727788546979426,0.0002090122413355857,0.003512387468549423
1761316540071500500,2.64450048828125,-0.08445815236270428,-0.0017947835954371838,0.0024172697252011857
1761316540081483500,2.6544833984375,-0.06650280895531177,0.0031625739504583176,0.0007488570223678834
1761316540091465700,2.6644658203125,-0.07188917816877365,0.004005390583304688,0.013151966280234045
1761316540101448400,2.674448486328125,-0.07937047383487224,0.0008200933443848043,0.013394120456057134
1761316540111430700,2.6844306640625,-0.07802431992292404,-0.003959797875909134,0.012794805139326489
1761316540121413600,2.69441357421875,-0.0766793350547552,-0.004068564613163471,0.02354528606866952
1761316540131395600,2.7043955078125,-0.06889701061546802,0.0006372019249945879,0.027407082913222254
1761316540141378600,2.714378662109375,-0.08236439495384693,-0.009130030987504869,0.01989920291758608
1761316540151360500,2.724360595703125,-0.07503273689150809,0.0006261508080177008,0.020350641046091914
1761316540161343500,2.734343505859375,-0.07682721909284591,-0.0006447093780152499,0.01637303351885639
1761316540171325700,2.74432568359375,-0.07667758148908614,-0.0037959490837063637,0.0024471031744615172
1761316540181307600,2.7543076171875,-0.07144026535749436,-0.006337605523690581,0.0008888659979682415
1761316540191290600,2.76429052734375,-0.06395838516950607,-0.005007306768000126,0.009315249078010674
1761316540201272800,2.77427294921875,-0.0726361971437931,-0.0050841165975667535,-0.00688949921883177
1761316540211255600,2.784255615234375,-0.0774251849859953,0.0051044743990059935,-0.0038099410764407364
1761316540221237800,2.79423779296875,-0.07577800230085849,0.007452444030949846,0.0032728750576730818
1761316540231220700,2.804220703125,-0.07428162626326083,0.0067245772809721525,-0.0020608209703466855
1761316540241202700,2.81420263671875,-0.07218669981062412,0.004476012902893125,0.00807005990606267
1761316540251185700,2.824185546875,-0.07921791362166404,-0.0026878965102601795,0.008616288762108888
1761316540261167600,2.834167724609375,-0.07307984925806522,0.004781032864609733,0.01657335556366015
1761316540271150600,2.844150634765625,-0.07771861497461795,0.002694207520037889,0.012282453436707147
1761316540281132800,2.8541328125,-0.07846329586207866,-0.0021576894905418155,0.005179395948874298
1761316540291115500,2.864115478515625,-0.07322188807725906,-0.006446098266309127,0.0008992686609737574
1761316540301097700,2.87409765625,-0.07397066061794758,-0.0005902118449565023,0.007448605822760145
1761316540311080700,2.884080810546875,-0.07501695480048656,0.003389404976274818,-0.011829378190252463
1761316540321062700,2.894062744140625,-0.06798457194566726,-0.0015497045268770306,-0.0012929487202549353
1761316540331045600,2.904045654296875,-0.08519348089993,0.0005417056612670422,0.013944477497949264
1761316540341027800,2.91402783203125,-0.07756254763007163,0.008360644917050375,0.006812798987119458
1761316540351010600,2.924010498046875,-0.07621522467434406,0.006541128739155829,0.012089058889611624
1761316540360992800,2.93399267578125,-0.08399754911363125,0.0007781812982633709,0.010928814904624596
1761316540370975700,2.943975830078125,-0.0825011730760336,0.0010834021893795578,0.0054076996958581725
1761316540380957700,2.953957763671875,-0.08160159388780594,-0.008012562131742016,0.004007555140927434
1761316540390940700,2.963940673828125,-0.07846037325263022,-0.0022747125994879752,-0.0009097923382767475
1761316540400922600,2.973922607421875,-0.06708557727932929,-0.0012435977197717875,0.003102959567576181
1761316540410905600,2.983905517578125,-0.082796941152215,0.0014843750725500285,0.0003783683257177472
1761316540420887800,2.9938876953125,-0.07785656214058399,0.0004453691473230719,0.010213131782785058
1761316540430870500,3.00387060546875,-0.07785422405302524,-0.0016763357143849134,0.013462276621710043
1761316540440852700,3.013852783203125,-0.0799473969399929,-0.0032825562014710155,0.013193197906343266
1761316540450835700,3.023835693359375,-0.08039806331694126,-0.004541351490374654,0.013463724226702469
1761316540460817700,3.033817626953125,-0.06573240910470485,-0.005654756092373281,0.019087413893954363
1761316540470800600,3.043800537109375,-0.07830196782052516,-0.002986632861662656,0.017558902852155733
1761316540480782600,3.053782470703125,-0.07994798146188259,-0.005970799771603197,0.006234747937414795
1761316540490765600,3.063765625,-0.07171791325509548,0.007796526494575664,-0.0013164254939649254
1761316540500747800,3.073747802734375,-0.08324059326648711,0.00031477417075075206,-0.004983939592144452
1761316540510729500,3.0837294921875,-0.06797755768299102,-0.003742766724899411,-0.010104285130428615
1761316540520712700,3.093712646484375,-0.07172025134265422,0.001168504923256114,-0.011199382324179169
1761316540530694700,3.103694580078125,-0.0757604666441679,0.005980462649092078,-0.0045301588095026084
1761316540540677600,3.113677734375,-0.07366670923531055,0.008442377516906708,0.0005663583286223001
1761316540550659600,3.12365966796875,-0.07052548860013484,0.0016231990213505924,0.0073510728655732235
1761316540560642800,3.133642822265625,-0.07097264784574508,0.00016478950711898505,0.00728106951941736
1761316540570624500,3.14362451171875,-0.0790542474925518,-0.004101325238449499,0.00902873517065309
1761316540580607700,3.153607666015625,-0.08144844915270805,-0.004693528111092746,0.01179873645681655
1761316540590589400,3.16358935546875,-0.0724707774490118,-0.002130865415697917,0.016945161717850713
1761316540600572700,3.17357275390625,-0.06753098295927047,-0.015431998942233622,0.004684173477569129
1761316540610554600,3.1835546875,-0.07950199126005172,-0.0037886242937762286,-0.004804655768792145
1761316540620537600,3.19353759765625,-0.07845452803373336,-0.0012570508563891053,-0.005416883082734421
1761316540630519600,3.20351953125,-0.08145078724026679,0.0030165439427364614,-0.004911605008295737
1761316540640502800,3.213502685546875,-0.07232347793281078,0.0030593784374650566,0.002156970254622865
1761316540650484500,3.223484375,-0.07142799039781093,0.005089696954982355,0.009917907129297963
1761316540660467700,3.2334677734375,-0.06903554230332375,0.011320307573396712,-0.00042688820913899686
1761316540670449700,3.24344970703125,-0.07771452332139014,0.0035117344480007887,0.008970926869078539
1761316540680432600,3.2534326171875,-0.07681669769883155,-0.004154571529338136,0.015191831227520014
1761316540690414600,3.26341455078125,-0.07636895393133163,-0.005910036894539371,0.013510269065457395
1761316540700397800,3.273397705078125,-0.08609539817571639,-0.011476320119015872,0.017894722094223832
1761316540710379500,3.283379638671875,-0.08145546341538429,-0.012342070102877915,0.012055547062365803
1761316540720362800,3.29336279296875,-0.06873802066147328,-0.003860557018825784,0.01039580172317801
1761316540730344400,3.303344482421875,-0.07053484095036983,-0.0024646091483999043,0.006778472025832161
1761316540740327700,3.31332763671875,-0.07667056722640991,-0.004843083516461774,0.00041456530039431526
1761316540750309600,3.3233095703125,-0.07906418436467647,0.009312493148632348,-0.008794677536317613
1761316540760292600,3.333292724609375,-0.069786652931571,0.01022482222057879,0.0007447927686036564
1761316540770274600,3.343274658203125,-0.07472410933375358,0.008987298048567027,-0.0033006558304536156
1761316540780256500,3.353256591796875,-0.08145721698105335,0.0032658881944604215,0.009024746265413705
1761316540790239500,3.363239501953125,-0.07891396223902702,0.00508334941258654,0.0024900883662397973
1761316540800221700,3.3732216796875,-0.06903671134710311,-0.009660201474605128,0.0076311798650305716
1761316540810204400,3.383204345703125,-0.07531973713934421,-0.01621566926636733,0.0072863119501154865
1761316540820186600,3.3931865234375,-0.07128069088160992,-0.008079727350128815,0.005054392746160738
1761316540830169600,3.403169677734375,-0.0605061988890171,-0.01092792898863554,0.006747800609644037
1761316540840151600,3.413151611328125,-0.07097907758653163,-0.015495054241083562,0.0004349048355245031
1761316540850134500,3.423134521484375,-0.0816027629315853,-0.006558865325246006,0.0034811726296669803
1761316540860116700,3.43311669921875,-0.0825011730760336,-0.00818063044133596,0.0018501579113304615
1761316540870099500,3.443099365234375,-0.08145370984971523,0.0002531345108523965,0.007012267081975005
1761316540880081700,3.45308154296875,-0.08040683114528656,0.008064794642478227,0.0029114624333335085
1761316540890064600,3.463064697265625,-0.0771153883844614,0.009185533167561516,0.011494871839147526
1761316540900046600,3.473046630859375,-0.08265197972357273,0.0022586382475215942,0.017378966008254792
1761316540910029600,3.483029541015625,-0.07666413748562335,0.00028000425146892667,0.02056168084773235
1761316540920011500,3.493011474609375,-0.06858312236070632,-0.00021176132084801792,-0.0011697835648898035
1761316540929994500,3.502994384765625,-0.0763654467999935,-0.003871041880222037,-0.002831974306202028
1761316540939976700,3.512976806640625,-0.06903203517198563,0.004675106538413092,0.0010511621539015322
1761316540949959200,3.522959228515625,-0.06424421637356281,-0.010697298570536076,0.001499593191279564
1761316540959941400,3.53294140625,-0.07127776827216148,-0.0006113824971485883,-0.008693413685506675
1761316540969924000,3.542924072265625,-0.07337386376857757,-0.0047804574758745725,-0.003277446201513521
1761316540979906300,3.55290625,-0.07711421934068202,0.0027836941680870948,-0.00036831272258423266
1761316540989889300,3.56288916015625,-0.07935878339707851,0.00684651402705349,0.0033495958389830774
1761316540999871200,3.572871337890625,-0.08444704644680023,0.0014552037769928574,0.005653491150471381
1761316541009854200,3.582854248046875,-0.0757692344725132,0.004226047596661374,0.014245654684898908
1761316541019836400,3.59283642578125,-0.06784077956080437,0.0003205554575659334,0.011611625520035158
1761316541029819100,3.602819091796875,-0.07771686140894889,-0.004786366626853123,0.005337171193317045
1761316541039801300,3.61280126953125,-0.07457447172999382,-0.0018105839527677743,0.008565597471198998
1761316541049784300,3.622784423828125,-0.0693377401202917,-0.000154642572440207,0.0007801266601774841
1761316541059766300,3.632766357421875,-0.07562427304387093,-0.011386413345858454,-0.01016982008073246
1761316541069749200,3.642749267578125,-0.08011573924422263,-0.0020063074542675165,-0.005045608934795018
1761316541079731200,3.652731201171875,-0.07891922293603419,0.0025287786921020594,-0.0042975830294890325
1761316541089714200,3.662714111328125,-0.07877075437605381,0.007240098188212141,-0.0013399913159315474
1761316541099696400,3.6726962890625,-0.0774246004641056,0.008744136942457407,0.001887594711733982
1761316541109678300,3.68267822265625,-0.07712474073469638,0.011273290093895048,-0.003156123660074081
1761316541119661300,3.692661376953125,-0.06934007820785046,0.00866639553112909,0.012584409225080162
1761316541129643500,3.7026435546875,-0.08280804706811905,-0.0019476269364356994,0.01526401054774178
1761316541139626200,3.712626220703125,-0.08400514789819717,0.0009598397417925297,0.0034832755384966727
1761316541149608400,3.7226083984375,-0.07592413277328014,-0.0017549904411658644,0.014626808622747194
1761316541159591400,3.73259130859375,-0.07622340798079967,-0.005766454572230577,0.0031866146964603104
1761316541169573400,3.742573486328125,-0.07936521313786506,-0.008801922411145642,-0.004740963432413991
1761316541179556400,3.752556396484375,-0.07831716538965701,-0.0022501170143485066,-0.000925615528493654
1761316541189538300,3.762538330078125,-0.06888999635279178,0.005583015163568779,0.0012042109908768906
1761316541199521300,3.772521240234375,-0.07891513128280639,0.005977951031597331,-0.003962693085893989
1761316541209503500,3.78250341796875,-0.07622106989324093,0.001608722971426323,0.006672940708568785
1761316541219486200,3.792486328125,-0.07846504942774772,-0.00020023527983576057,0.008559354960080236
1761316541229468400,3.802468505859375,-0.08011106306910515,0.0011764051019214094,0.005290146863949485
1761316541239451400,3.812451416015625,-0.07203121698796748,-0.006427101304894313,0.005901479128748178
1761316541249433300,3.822433349609375,-0.07682020483016967,-0.0013299699621275066,0.007146940012043341
1761316541259416300,3.832416259765625,-0.07861585607528686,0.0024418949930928645,0.0025689371725544333
1761316541269398300,3.842398193359375,-0.0693383246421814,0.004657753544813022,-0.004965942711150273
1761316541279381200,3.85238134765625,-0.07487316241562365,-0.002774113488988951,0.011376211612252518
1761316541289363500,3.862363525390625,-0.08310381514430046,-0.0030533962212502953,0.004731193240359425
1761316541299346200,3.87234619140625,-0.07562135043442249,-0.0008837240319699048,0.004542700913955923
1761316541309328400,3.882328369140625,-0.08056056040227413,0.0017024474031757562,0.0049789209237322204
1761316541319311400,3.892311279296875,-0.0718821639060974,0.005457041563186794,0.0055112765180529094
1761316541329293300,3.902293212890625,-0.07397767488062382,0.0011385025106370448,-0.00042377837002277374
1761316541339276300,3.9122763671875,-0.08430150049626826,0.0031271281777415423,0.006989137368137017
1761316541349258500,3.922258544921875,-0.0798123723834753,0.008705887291301041,0.0063425260106916535
1761316541359240200,3.932240234375,-0.07158230417668819,-0.0037483653486240654,0.008302537504665088
1761316541369223400,3.942223388671875,-0.07173252630233765,-0.00512854939433746,0.0014188035896280779
1761316541379205000,3.952205078125,-0.07352759302556515,-0.007242481941543519,-0.001888980667933356
1761316541389188400,3.962188232421875,-0.07263093644678592,-0.003727651354158297,0.002699322086572647
1761316541399170300,3.97217041015625,-0.07367839967310429,0.002978166427416727,-0.010011227418959606
1761316541409153300,3.9821533203125,-0.07322948686182498,0.0013768595774658024,0.0046988938393769785
1761316541419135200,3.99213525390625,-0.06649579469263553,0.0030249464449007063,0.007262182155856862
1761316541429118500,4.002118408203125,-0.0784662184715271,0.0069042446968145665,0.004504104202927556
1761316541439100200,4.01210009765625,-0.088940266212821,0.007311948714870959,0.011426361763756722
1761316541449083400,4.02208349609375,-0.07367956871688365,-0.0027250136502552777,0.0057454802828608076
1761316541459065300,4.0320654296875,-0.0621574732273817,-0.001637556340266019,0.006169580596580636
1761316541469048300,4.04204833984375,-0.07053484095036983,-0.00384874785002321,0.004922249699896201
1761316541479030300,4.0520302734375,-0.07741875524520873,-0.010999295458104462,0.008268087245791684
1761316541489013500,4.062013427734375,-0.07996259450912475,-0.010091332034021615,-0.0025114165653474627
1761316541498995200,4.0719951171875,-0.0753244133144617,-0.003027403263468295,0.005745946073741652
1761316541508978400,4.081978515625,-0.07263035192489624,-0.0012558635463006795,-0.0021422909920103847
1761316541518960000,4.091960205078125,-0.069786652931571,-0.0021847053616307673,0.0007812888540909626
1761316541528943400,4.101943359375,-0.0738256991893053,-0.005394232859509065,0.007591984932380728
1761316541538925300,4.11192529296875,-0.07038169621527195,-0.004950516813155263,-0.00018306266603758557
1761316541548908300,4.121908203125,-0.07232756958603859,0.0009005564357619732,0.008832609810354188
1761316541558890200,4.13189013671875,-0.0751718531012535,0.00009092968646436929,0.008726146911329124
1761316541568873500,4.14187353515625,-0.07801672113835811,0.0028382191006094217,0.0047012159439153035
1761316541578855200,4.151855224609375,-0.07562251947820187,-0.004183541895495728,0.007933548928645905
1761316541588838400,4.16183837890625,-0.06829144593775271,0.000946697132429108,0.0011646986811072566
1761316541598820000,4.171820068359375,-0.07502572262883186,-0.0009743523243349045,-0.0018777720040408894
1761316541608802300,4.18180224609375,-0.08340659748315811,-0.0006385353655554354,-0.00597891229611123
1761316541618785300,4.191785400390625,-0.07861760964095592,-0.004423058872949331,-0.002120108842954505
1761316541628767200,4.201767333984375,-0.07966682643294334,0.0013657810610253362,-0.0006154604506446048
1761316541638750200,4.211750244140625,-0.08236147234439849,0.002173772975662723,0.00047866406214889135
1761316541648732400,4.221732421875,-0.07652619031965732,0.005933070710254833,0.010637298311875201
1761316541658715100,4.231715087890625,-0.07308452543318271,0.0030483455867972224,0.002149453668447677
1761316541668697300,4.241697265625,-0.07203706220686436,-0.0015962562154978512,0.0037186666133929972
1761316541678680300,4.251680419921875,-0.07936988931298256,-0.012512924024602398,0.00663753831833601
1761316541688662300,4.261662353515625,-0.08310907584130764,0.0008571008865255862,-0.0017328425414394587
1761316541698645200,4.271645263671875,-0.07637304558455944,-0.005604021418979391,0.0020272726104827595
1761316541708627200,4.281627197265625,-0.0849012199550867,-0.0025276370477862655,-0.00010448557107010856
1761316541718610200,4.291610107421875,-0.0825052647292614,-0.006415849258517846,0.0036255997687694615
1761316541728592400,4.30159228515625,-0.07741524811387061,-0.001319211106095463,-0.0021291278330492786
1761316541738575000,4.3115751953125,-0.06424538541734218,0.0010422664613928645,-0.004886176022805739
1761316541748557300,4.321557373046875,-0.07876081750392913,-0.005470576898194849,-0.0014325626869220287
1761316541758540300,4.331540283203125,-0.07516893049180508,-0.0018853022899478673,0.003314666089497041
1761316541768522200,4.341522216796875,-0.07232464697659015,-0.0013696352522354573,0.0018210847971844486
1761316541778505200,4.351505126953125,-0.07651508440375328,-0.00008931311811320483,0.0030056480893865226
1761316541788487400,4.3614873046875,-0.06693886228501797,-0.001228811142593622,0.0044644457626855
1761316541798470100,4.37147021484375,-0.0700830055296421,-0.005395082242880016,0.012091940399864687
1761316541808452400,4.381452392578125,-0.07786591449081898,-0.010989513849606737,0.009802215177624021
1761316541818435300,4.391435302734375,-0.0745750562518835,-0.005260861403960734,0.0020201829992816784
1761316541828417300,4.401417236328125,-0.07427753461003303,0.0017281024342402816,-0.0009227796840132214
1761316541838400300,4.411400146484375,-0.08580079914331436,0.002117330080689862,-0.0027091105449362656
1761316541848382200,4.42138232421875,-0.07053776355981826,-0.004322438909532502,-0.003922313126444351
1761316541858365200,4.431365234375,-0.08161269980370998,-0.0023453758160583674,0.0061828830361482685
1761316541868347400,4.441347412109375,-0.07817045039534569,0.008811685753334313,0.0030567138396319932
1761316541878329300,4.451329345703125,-0.07861994772851466,-0.001488895984040573,0.003117109107226133
1761316541888312300,4.461312255859375,-0.06934416986107826,-0.0024407533487770705,0.004404374722077046
1761316541898294300,4.471294189453125,-0.08056699014306068,-0.005710340470820665,-0.002495657307212241
1761316541908277200,4.48127734375,-0.0790711986273527,-0.009909892786201089,0.010281189767026808
1761316541918259500,4.491259521484375,-0.08041559897363186,-0.00186834202199243,0.001959500037319958
1761316541928242400,4.501242431640625,-0.0829582691937685,-0.009289002675190568,0.005373938990151509
1761316541938224400,4.511224365234375,-0.07532616688013076,-0.009063039299054072,0.0030276841079699807
1761316541948207000,4.52120703125,-0.08176058384180068,-0.006392577980784699,0.0043779958885163065
1761316541958189000,4.53118896484375,-0.07697334956526755,0.004627440604940056,0.0025970809882273896
1761316541968172000,4.541172119140625,-0.07846855655908584,0.000035390973789617415,-0.005577873197570443
1761316541978154200,4.551154296875,-0.08400631694197654,-0.00021865685251541434,-0.007785854403511621
1761316541988137000,4.561136962890625,-0.07577624873518943,-0.002180595442093909,0.00030084154352080073
1761316541998119200,4.571119140625,-0.0783177499115467,-0.001590191800892353,0.0018288091626251115
1761316542008102100,4.58110205078125,-0.07816518969833851,-0.0020912275250535455,0.009042144924786407
1761316542018084000,4.591083984375,-0.07846388038396834,-0.006336125952657312,0.005798927503149025
1761316542028067000,4.601067138671875,-0.0724789607554674,-0.0040159393767826256,0.0017935940020601265
1761316542038049000,4.611049072265625,-0.07502455358505249,-0.003158747158711776,-0.001615314825705718
1761316542048032000,4.621031982421875,-0.08519874159693717,0.0030890155239030716,0.0017729256733669898
1761316542058014200,4.63101416015625,-0.0726274293154478,0.003106587713211775,0.0032878305982099844
1761316542067997000,4.640996826171875,-0.08295242397487163,0.0022217951021622864,0.0039139425903209485
1761316542077979100,4.650979248046875,-0.07831248921453952,0.0012555530190467834,0.008210986763692927
1761316542087962000,4.660962158203125,-0.07277472883164882,-0.005503136594081297,-0.0012466162273427471
1761316542097944000,4.670944091796875,-0.08025777806341648,-0.002713167948834598,0.007817277021659538
1761316542107927000,4.680927001953125,-0.0790589236676693,-0.003534247673908248,0.010480377017380669
1761316542117909200,4.6909091796875,-0.07112754614651202,-0.0032813597582280634,0.007072315289697144
1761316542127891000,4.700890869140625,-0.0691810882538557,-0.0028926435684319585,0.003430211910698563
1761316542137874200,4.710874267578125,-0.07112637710273266,0.004454321660893038,0.011090674952429254
1761316542147856000,4.72085595703125,-0.082796941152215,-0.0014730956267099827,0.007255868862790521
1761316542157839000,4.730839111328125,-0.07112579258084296,-0.005261610322631895,-0.0005434546603588388
1761316542167821000,4.740821044921875,-0.06618833617866039,-0.001785266848420724,0.003666918159846682
1761316542177804000,4.750803955078125,-0.08579144679307937,0.0018779227010905742,0.011782744303240906
1761316542187786000,4.760785888671875,-0.0763654467999935,0.0038801841679029165,0.0048730356967309485
1761316542197769200,4.770769287109375,-0.06589023001492023,0.0005280059294775128,0.005956689047859981
1761316542207751000,4.7807509765625,-0.08175064696967602,-0.0007472747033461928,0.003564026324241422
1761316542217734100,4.790734130859375,-0.08773848920762538,-0.002095401376672089,0.010080132503283675
1761316542227716000,4.800716064453125,-0.07442132699489593,-0.011703553003631531,0.006763646632747259
1761316542237699000,4.810698974609375,-0.07442366508245468,0.0037181346071418373,0.010142185438424349
1761316542247681000,4.820680908203125,-0.0699345369696617,-0.0006599526129197329,0.013222266453912015
1761316542257664000,4.8306640625,-0.07427344295680523,-0.00011110482481308281,0.012044559877470601
1761316542267646000,4.84064599609375,-0.07786649901270866,-0.0006341697176918388,-0.0007946323928539641
1761316542277629200,4.850629150390625,-0.06784194860458373,0.0016675130871124564,0.003893671553849708
1761316542287611000,4.86061083984375,-0.07966156573593616,0.0032145142002496865,0.001538402248150669
1761316542297594000,4.870593994140625,-0.07427519652247429,-0.0009555471591651439,0.007554799293726682
1761316542307576000,4.880576171875,-0.07427402747869491,0.002414321999577805,-0.00027087109694257376
1761316542317559000,4.89055908203125,-0.08564531632065772,-0.0011428955579642205,0.003847471491678152
1761316542327541000,4.900541015625,-0.07247662266790866,-0.003568761864863336,-0.0004851097859558649
1761316542337524200,4.910524169921875,-0.06813771668076515,-0.002433072365820408,0.004858598462713417
1761316542347506000,4.920505859375,-0.07217617841660975,-0.006763740247581153,-0.0020110955105279572
1761316542357489200,4.9304892578125,-0.07771276975572108,-0.0037414332843385633,-0.0005596819926635361
1761316542367471000,4.94047119140625,-0.08399754911363125,-0.00565235407273285,0.0020933144508628173
1761316542377453000,4.950453125,-0.07816460517644881,0.004128624237328768,0.0019423571062739938
1761316542387436000,4.96043603515625,-0.07547112830877303,0.007164293005643412,0.005791041024215519
1761316542397418000,4.97041796875,-0.07771569236516952,-0.002449539443431422,0.005156291351211257
1761316542407401000,4.98040087890625,-0.07846212681829928,-0.0038991537298541513,0.007856508486927486
1761316542417383200,4.990383056640625,-0.07382453014552592,0.004437891115900129,0.002717761925561353
1761316542427366100,5.0003662109375,-0.07292612000107765,0.0030851339332293717,0.000561257461819332
1761316542437348000,5.01034814453125,-0.0700830055296421,-0.0029273586887866255,-0.0029184218970825892
1761316542447331000,5.0203310546875,-0.08040683114528656,-0.009916231195442379,0.006877690050029196
1761316542457313000,5.03031298828125,-0.07876081750392913,-0.007039269253332168,0.004418056187557522
1761316542467296000,5.0402958984375,-0.08474690617620945,0.0016809753568843007,0.0018178014281322247
1761316542477278000,5.05027783203125,-0.07741291002631187,-0.0039590032914653414,0.0018632891042507252
1761316542487261200,5.06026123046875,-0.07621580919623375,-0.004107042593182996,0.00627170296391705
1761316542497243100,5.0702431640625,-0.0847445680886507,-0.005350156255764887,0.000884427284868434
1761316542507226000,5.08022607421875,-0.07546762117743491,-0.0036950277261901645,0.004912589105695951
1761316542517208000,5.0902080078125,-0.0729237819135189,0.0028628055525943634,0.003233753190259449
1761316542527191000,5.10019091796875,-0.08684300167262554,0.0003502016771584749,0.0023525818749796598
1761316542537173000,5.110173095703125,-0.0708323625922203,0.004261000179033726,-0.0036834172034985384
1761316542547156000,5.120156005859375,-0.0783136582583189,0.003282181742135435,0.0025310505642904897
1761316542557138000,5.130137939453125,-0.07876140202581881,0.0034798688718583434,-0.0032567344903363846
1761316542567121200,5.14012109375,-0.0789104551076889,0.002961991610750556,0.0035422483172733335
1761316542577103000,5.15010302734375,-0.08130465676784515,-0.0036308947151061145,-0.002173788958683144
1761316542587086000,5.160086181640625,-0.06963233915269375,0.0042983547810465095,0.008918013938330114
1761316542597068000,5.170068115234375,-0.07546703665554523,-0.0004591967432759702,0.014233975663548334
1761316542607050200,5.18005029296875,-0.08384674246609211,0.0011772362189833073,0.010750353065179661
1761316542617033000,5.190032958984375,-0.0777080935806036,0.0003175780491903424,0.008659675812686327
1761316542627015200,5.20001513671875,-0.0751630852729082,0.0038616529973689463,0.004638729183934629
1761316542636998100,5.209998046875,-0.06349135217964649,-0.0010699033869896084,0.00525011624766048
1761316542646980000,5.21997998046875,-0.07396656896471977,-0.0047722467699553815,0.0014134401446324772
1761316542656963000,5.229963134765625,-0.08085048325955867,-0.0023031258432194587,-0.002857551705453079
1761316542666945000,5.239945068359375,-0.07291793669462203,-0.003163542064838111,0.004364467403374146
1761316542676928000,5.249927978515625,-0.07650865466296672,0.005741639791382477,0.002315051459742244
1761316542686910200,5.25991015625,-0.0723182172358036,-0.0005653422651812434,-0.011816628306533674
1761316542696893000,5.269892822265625,-0.07186871990263462,0.001068085889238864,0.007445256238337606
1761316542706875100,5.279875244140625,-0.07471008080840111,-0.009333764265524224,0.004137350966478698
1761316542716858000,5.289858154296875,-0.08114332872629165,-0.004930661335214972,0.004754797878232784
1761316542726840000,5.299840087890625,-0.07635550992786884,-0.0025113343669567255,0.007408445059019141
1761316542736823000,5.309822998046875,-0.08308803305327891,0.006991566787241026,0.0021851985519751906
1761316542746805200,5.31980517578125,-0.06752455321848393,-0.0014796349653508514,0.0008261052433517761
1761316542756788000,5.3297880859375,-0.07111468666493892,-0.009786567800631746,0.006891634093702304
1761316542766770200,5.339770263671875,-0.08353519229888916,-0.007230060851387679,-0.006964578315615653
1761316542776753200,5.349753173828125,-0.07051555172801018,-0.012813706202618777,0.015376754773792344
1761316542786735000,5.359735107421875,-0.07066460480988025,-0.005685251695336774,0.002006261788494885
1761316542796718000,5.369718017578125,-0.07306056003570556,-0.0008334186168387532,-0.00288667961852625
1761316542806700000,5.379699951171875,-0.06827391028106213,-0.001529712051618844,-0.003963254774897359
1761316542816683000,5.38968310546875,-0.07845043638050556,0.0027481022648978976,0.012477265906042884
1761316542826665200,5.399665283203125,-0.07934943104684353,-0.00043923166748136277,0.010123784415342379
1761316542836648000,5.40964794921875,-0.07381459327340126,-0.005964214767189696,0.004551324895117431
1761316542846630100,5.419630126953125,-0.07965162886381148,-0.004386215727590024,0.00784249594459543
1761316542856611800,5.42961181640625,-0.0854892489761114,0.001675422398932278,0.006996674503909889
1761316542866595000,5.439594970703125,-0.07995265763700007,-0.007024747537635267,0.002272589141060598
1761316542876577000,5.449576904296875,-0.06842997762560844,0.0018903803238645195,-0.00034130826793843876
1761316542886560000,5.45956005859375,-0.07022562887072563,0.0019005455248523502,0.0016186575602623633
1761316542896542000,5.4695419921875,-0.07606149541735649,0.0014462624187115579,0.004056782843824476
1761316542906525200,5.479525146484375,-0.0744143127322197,-0.0014885397910140454,0.005171440971281845
1761316542916507000,5.4895068359375,-0.07561082904040813,-0.00033441958613693713,-0.0016692872023792004
1761316542926490000,5.499489990234375,-0.0821954681277275,-0.007779949819110334,-0.0008586124235996976
1761316542936472000,5.50947216796875,-0.07995090407133101,-0.003741323686484247,0.0010727323816041461
1761316542946455000,5.519455078125,-0.0889314983844757,-0.0039014644179493187,0.006532844968000427
1761316542956437000,5.52943701171875,-0.07875731037259101,-0.003971935838274657,-0.0037904006923316046
1761316542966420000,5.539419921875,-0.07935527626574039,-0.0055257868173066525,-0.0025955831508850677
1761316542976402000,5.54940185546875,-0.07785890022814274,-0.0017564974116627127,0.007919504420273005
1761316542986385200,5.55938525390625,-0.0765144998818636,0.002302011598367244,0.0016958852316485717
1761316542996367000,5.5693671875,-0.07696224364936351,-0.00012971819373779,0.0017095872467267326
1761316543006350000,5.57935009765625,-0.07935644530951977,0.001975126864714548,-0.0019949069941299965
1761316543016332000,5.58933203125,-0.07262099957466125,0.0007207246231380849,0.0035429812529240733
1761316543026315000,5.59931494140625,-0.07217208676338195,0.0025204492551740257,0.0027192369300173594
1761316543036297000,5.609296875,-0.06229600491523742,0.002575485644349828,-0.00025952315244358033
1761316543046280000,5.619280029296875,-0.07546352952420711,-0.007631280329730361,0.000372242262319196
1761316543056262100,5.62926220703125,-0.08474047643542289,0.0006977821389678866,-0.006683546584262512
1761316543066243800,5.639243896484375,-0.0795025757819414,-0.0015596870647743343,0.0020662597638671284
1761316543076227000,5.64922705078125,-0.07486322554349899,-0.005198911216808483,0.005806113012472633
1761316543086209000,5.659208984375,-0.07082242572009563,-0.0031335579185280947,0.005545434515981469
1761316543096192000,5.66919189453125,-0.07725684268176555,0.0007554306103382259,0.006553058922255877
1761316543106174000,5.679174072265625,-0.08189677744209765,0.004956855222396552,0.009966468111914583
1761316543116157000,5.689156982421875,-0.07905249392688274,-0.0031111908230930566,0.008298642214259598
1761316543126139000,5.699138916015625,-0.08159750223457812,0.00413252409431152,0.009215072072588372
1761316543136122000,5.7091220703125,-0.0786053346812725,0.0014441800594795495,0.004303786724701058
1761316543146104000,5.71910400390625,-0.0681312869399786,-0.006358145988220348,0.0017354363573249428
1761316543156087000,5.729087158203125,-0.07426759773790836,-0.0052363206177484245,0.0009812158899614586
1761316543166069000,5.739069091796875,-0.0853413649380207,-0.004322110115969553,-0.00007227065176703036
1761316543176052000,5.749052001953125,-0.07501578575670718,-0.0022816355306189504,-0.0010479290171992034
1761316543186034000,5.759033935546875,-0.0739694915741682,-0.0032531748433597386,-0.005688804492447525
1761316543196017200,5.76901708984375,-0.07322071903347968,-0.008815914403880014,0.00035253063156269487
1761316543205998800,5.778998779296875,-0.07591536494493484,-0.002320570168364793,-0.004361263949424028
1761316543215982000,5.788982177734375,-0.07920856127142906,0.009125473543396219,0.0069117064840625965
1761316543225964000,5.798964111328125,-0.0706798023790121,0.0028520101639442144,0.005709710283158346
1761316543235947000,5.808947021484375,-0.07681435961127281,0.004323279159748926,0.009185012577753513
1761316543245929000,5.818928955078125,-0.08145370984971523,0.0006399418713524937,0.004705985733866692
1761316543255912200,5.828912109375,-0.08310030801296234,-0.014568376983376218,0.004930798332532868
1761316543265894000,5.838893798828125,-0.07097907758653163,-0.0022050722962245342,0.001492617744510062
1761316543275877000,5.848877197265625,-0.073973583227396,-0.006581917407270521,0.0009742975254077463
1761316543285859000,5.858859130859375,-0.08175473862290382,-0.0060973396275658155,-0.009002340354071929
1761316543295841000,5.868841064453125,-0.07367430801987647,-0.004312958695134148,0.004592031364841386
1761316543305824000,5.878823974609375,-0.08280337089300155,-0.006321083647152409,-0.001739633041829802
1761316543315806000,5.888805908203125,-0.07936287505030631,0.00018374993591569364,-0.0004237555371364578
1761316543325789000,5.898788818359375,-0.08848959983587265,0.001195338131254539,0.005620497629744932
1761316543335771100,5.908771240234375,-0.0760696787238121,-0.009003162337979301,0.0007253414327511563
1761316543345753900,5.91875390625,-0.07292612000107765,0.0035329507659655063,0.0017307236495893448
1761316543355736000,5.928736083984375,-0.08609539817571639,0.00002940875757485628,0.0010086016538087279
1761316543365719000,5.938718994140625,-0.08295300849676132,-0.003852611174387857,-0.006868602561275475
1761316543375701000,5.948700927734375,-0.07532265974879264,-0.002552196100307628,-0.003261049905850086
1761316543385684000,5.95868408203125,-0.06963584628403187,0.0034049496052786705,0.003509613272862043
1761316543395666000,5.968666015625,-0.08654314194321631,0.0035774657611269503,-0.00521814335695235
1761316543405649000,5.97864892578125,-0.08175649218857288,0.0008228332907427102,0.0028948263923637566
1761316543415631000,5.988631103515625,-0.07202770985662937,0.004022433049650862,0.0045223453958053135
1761316543425613800,5.99861376953125,-0.0772638569444418,-0.002785803926782682,0.004292925120680593
1761316543435596000,6.008595947265625,-0.07606909420192241,-0.014168390480894594,0.005161186722037382
1761316543445579000,6.0185791015625,-0.07292495095729827,-0.0004990629627835005,0.005797306368220598
1761316543455561000,6.02856103515625,-0.07696575078070163,0.0012876743235159666,0.0031525343303452245
1761316543465544000,6.0385439453125,-0.07397299870550632,-0.008745634779799729,0.00578287598406896
1761316543475526100,6.048526123046875,-0.07382453014552592,-0.0006083137572277337,-0.009050901336688549
1761316543485508900,6.0585087890625,-0.07367606158554553,-0.004179705970594659,0.0021870206163031977
1761316543495491000,6.068490966796875,-0.07771569236516952,-0.012741864809114486,0.004289655451360158
1761316543505474000,6.07847412109375,-0.07158113513290881,-0.0039005785019602624,-0.004895302327466197
1761316543515456000,6.0884560546875,-0.07876607820093631,-0.01363257570429705,-0.0011296159512829034
1761316543525438000,6.09843798828125,-0.07846504942774772,0.0043418925286736335,0.0065339546462753785
1761316543535421000,6.1084208984375,-0.08220540499985217,-0.003323098274413496,-0.004267283789347857
1761316543545403000,6.11840283203125,-0.08504793494939804,0.0019190036301501095,0.0034615294975694267
1761316543555386000,6.12838623046875,-0.08041910610496997,0.0016127050267998129,-0.00008155450334306806
1761316543565368000,6.1383681640625,-0.09469137708544731,0.012378648386755958,-0.009337737187743186
1761316543575351000,6.14835107421875,-0.16535598189532755,0.019592141695832833,-0.03831023137033917
1761316543585333000,6.1583330078125,-0.44594285555779933,0.027390330424532292,-0.09253133124103768
1761316543595316000,6.16831591796875,-0.2325134553670883,0.011700155470147728,-0.030414381820289417
1761316543605298000,6.1782978515625,0.21152795048356055,-0.011800638436246663,0.03855936555950902
1761316543615281200,6.18828125,0.54866614792943,-0.06489423211435787,0.13121247828300112
1761316543625262800,6.198262939453125,0.65416942640841,-0.08756439301604405,0.17836290911510586
1761316543635246000,6.20824609375,-0.7224421676456928,0.02718339140927419,-0.08519550846023484
1761316543645228000,6.21822802734375,-0.7644009024530649,0.048140921440487726,-0.1575896770090796
1761316543655211000,6.2282109375,0.5413227994292974,-0.0458866031750571,0.14028843186255543
1761316543665193000,6.23819287109375,-0.4093225591689348,0.03681179123981856,-0.07182556118092033
