time,seconds_elapsed,z,y,x
1761315746349136400,0.074136474609375,0.27437275648117065,-0.6661026477813721,-0.3623120188713074
1761315746359119400,0.084119384765625,0.224300816655159,-0.7548996210098267,-0.49596303701400757
1761315746369101300,0.094101318359375,0.17543742060661316,-0.781286895275116,-0.5584439039230347
1761315746379083500,0.10408349609375,0.1313895434141159,-0.7140697836875916,-0.532870888710022
1761315746389065200,0.114065185546875,0.08830010145902634,-0.5770196914672852,-0.43199828267097473
1761315746399048400,0.12404833984375,0.0828494057059288,-0.4136315584182739,-0.2783466577529907
1761315746409030400,0.134030517578125,0.12763984501361847,-0.250918984413147,-0.09380628913640976
1761315746419012400,0.144012451171875,0.20432023704051971,-0.1322014033794403,0.09469864517450333
1761315746428994300,0.153994384765625,0.264360636472702,-0.06363680213689804,0.25629812479019165
1761315746438976300,0.163976318359375,0.282064288854599,-0.047780610620975494,0.3767068088054657
1761315746448959200,0.173959228515625,0.274929016828537,-0.054858870804309845,0.4533670246601105
1761315746458941400,0.18394140625,0.2630648910999298,-0.04470876604318619,0.5021069049835205
1761315746468923400,0.19392333984375,0.25338008999824524,0.004023704677820206,0.5222172737121582
1761315746478905300,0.2039052734375,0.25069695711135864,0.07573571056127548,0.5340829491615295
1761315746488888300,0.213888427734375,0.2440059930086136,0.15297876298427582,0.5453401803970337
1761315746498870300,0.223870361328125,0.23866581916809082,0.20315884053707123,0.5571438670158386
1761315746508852500,0.2338525390625,0.24634192883968353,0.22723683714866638,0.5695673227310181
1761315746518834400,0.24383447265625,0.2685662508010864,0.19584429264068604,0.5784913301467896
1761315746528817400,0.2538173828125,0.3039455711841583,0.10718080401420593,0.5867372155189514
1761315746538799400,0.26379931640625,0.33541056513786316,-0.00017414754256606102,0.6060150265693665
1761315746548781300,0.27378125,0.35650742053985596,-0.0872081071138382,0.6234982013702393
1761315746558763300,0.28376318359375,0.34477195143699646,-0.16348689794540405,0.6323596239089966
1761315746568745500,0.293745361328125,0.3037645220756531,-0.22721895575523376,0.6095690131187439
1761315746578728400,0.303728515625,0.2337939292192459,-0.27100077271461487,0.5372468829154968
1761315746588710400,0.31371044921875,0.145833358168602,-0.2952847480773926,0.4166141748428345
1761315746598692400,0.3236923828125,0.05286053940653801,-0.29185381531715393,0.27554547786712646
1761315746608674300,0.33367431640625,-0.026572467759251595,-0.25086307525634766,0.14740702509880066
1761315746618657300,0.3436572265625,-0.08457185328006744,-0.16351300477981567,0.06644398719072342
1761315746628639500,0.353639404296875,-0.10134149342775345,-0.022855371236801147,0.03519865870475769
1761315746638621400,0.363621337890625,-0.06397867202758789,0.15843212604522705,0.048531774431467056
1761315746648603400,0.373603271484375,0.020594799891114235,0.3344958424568176,0.09673046320676804
1761315746658585300,0.38358544921875,0.13722394406795502,0.4823172688484192,0.17113332450389862
1761315746668568300,0.393568359375,0.2668094336986542,0.5834287405014038,0.26163575053215027
1761315746678550500,0.403550537109375,0.3894623816013336,0.6250355839729309,0.34446990489959717
1761315746688532500,0.413532470703125,0.4902840256690979,0.6432567238807678,0.41232365369796753
1761315746698514400,0.423514404296875,0.54937744140625,0.6428554058074951,0.46369627118110657
1761315746708497400,0.433497314453125,0.5870950222015381,0.5987321734428406,0.4865398108959198
1761315746718479400,0.443479248046875,0.6171219348907471,0.5294340252876282,0.4845954477787018
1761315746728461300,0.45346142578125,0.6356928944587708,0.4525891840457916,0.4590063989162445
1761315746738443300,0.463443359375,0.6359298825263977,0.3810729384422302,0.39408543705940247
1761315746748425500,0.473425537109375,0.6192600727081299,0.3238917589187622,0.2961121201515198
1761315746758408200,0.483408203125,0.6003695130348206,0.29998961091041565,0.1790456771850586
1761315746768390400,0.493390380859375,0.5709751844406128,0.29346850514411926,0.0585484579205513
1761315746778372400,0.503372314453125,0.5251155495643616,0.32715296745300293,-0.06665792316198349
1761315746788354300,0.513354248046875,0.4787079989910126,0.388265460729599,-0.18040132522583008
1761315746798337500,0.523337646484375,0.42717984318733215,0.4581145644187927,-0.2777092456817627
1761315746808319200,0.5333193359375,0.37875592708587646,0.5118032097816467,-0.35454773902893066
1761315746818301400,0.543301513671875,0.34566187858581543,0.553399920463562,-0.41302090883255005
1761315746828283400,0.553283447265625,0.3223608732223511,0.5706132054328918,-0.445611834526062
1761315746838265300,0.563265380859375,0.30693957209587097,0.5653872489929199,-0.45995083451271057
1761315746848248600,0.57324853515625,0.3006625771522522,0.5459668636322021,-0.46212977170944214
1761315746858230300,0.583230224609375,0.30796709656715393,0.5186015367507935,-0.4420631229877472
1761315746868212500,0.59321240234375,0.33173373341560364,0.4923764169216156,-0.4077000021934509
1761315746878194400,0.6031943359375,0.36209189891815186,0.4753609299659729,-0.3694106638431549
1761315746888177400,0.613177490234375,0.4015446901321411,0.45267993211746216,-0.3287319540977478
1761315746898159400,0.623159423828125,0.44027265906333923,0.43261831998825073,-0.29064691066741943
1761315746908141300,0.633141357421875,0.4724580645561218,0.4040115475654602,-0.26424986124038696
1761315746918123500,0.64312353515625,0.4951367676258087,0.3616582155227661,-0.2614564597606659
1761315746928105500,0.65310546875,0.504463791847229,0.32925766706466675,-0.2646855115890503
1761315746938088400,0.66308837890625,0.5137792229652405,0.31403982639312744,-0.27219057083129883
1761315746948070400,0.6730703125,0.5203150510787964,0.31972193717956543,-0.2726854979991913
1761315746958052400,0.68305224609375,0.5223052501678467,0.3177455961704254,-0.2717140018939972
1761315746968034300,0.693034423828125,0.5328088402748108,0.29593992233276367,-0.2721964418888092
1761315746978017300,0.703017333984375,0.5349899530410767,0.2819913625717163,-0.26813751459121704
1761315746987999500,0.71299951171875,0.5341604948043823,0.2759644687175751,-0.25249791145324707
1761315746997981200,0.722981201171875,0.5314358472824097,0.281236469745636,-0.2301158905029297
1761315747007963400,0.73296337890625,0.5360906720161438,0.28643494844436646,-0.19530516862869263
1761315747017945300,0.7429453125,0.5442250370979309,0.28996843099594116,-0.15658733248710632
1761315747027928300,0.75292822265625,0.5564359426498413,0.30423682928085327,-0.11604855954647064
1761315747037910500,0.76291064453125,0.5713033080101013,0.3427615761756897,-0.08293294906616211
1761315747047892200,0.772892333984375,0.5948725938796997,0.3722911477088928,-0.060306016355752945
1761315747057874400,0.78287451171875,0.6157928109169006,0.40261682868003845,-0.051457662135362625
1761315747067857200,0.792857177734375,0.6459876298904419,0.4193519055843353,-0.059799376875162125
1761315747077839400,0.80283935546875,0.6670737266540527,0.40515539050102234,-0.08056963235139847
1761315747087821600,0.812821533203125,0.6766411662101746,0.37909725308418274,-0.10634095966815948
1761315747097803300,0.82280322265625,0.6844868659973145,0.3540502190589905,-0.1158583015203476
1761315747107785500,0.832785400390625,0.6910005211830139,0.3133901059627533,-0.11060400307178497
1761315747117768200,0.842768310546875,0.7084855437278748,0.2965314984321594,-0.0808868482708931
1761315747127750400,0.85275048828125,0.7318772077560425,0.3134382665157318,-0.01891159825026989
1761315747137732400,0.862732421875,0.7618148922920227,0.39986875653266907,0.06337662041187286
1761315747147714300,0.87271435546875,0.8032100796699524,0.5230401158332825,0.14648914337158203
1761315747157697500,0.882697509765625,0.8567937016487122,0.566343367099762,0.18181143701076508
1761315747167679200,0.89267919921875,0.8874545097351074,0.4959156811237335,0.14407864212989807
1761315747177661400,0.902661376953125,0.8951545357704163,0.3609738349914551,0.06704485416412354
1761315747187643600,0.9126435546875,0.8918391466140747,0.16782234609127045,-0.02603309042751789
1761315747197626400,0.92262646484375,0.8674400448799133,-0.11681390553712845,-0.10925900936126709
1761315747207608600,0.932608642578125,0.7969478964805603,-0.40413686633110046,-0.1679142862558365
1761315747217590300,0.94259033203125,0.6981840133666992,-0.5659375190734863,-0.18099865317344666
1761315747227572500,0.952572509765625,0.6228780150413513,-0.5935205817222595,-0.130544975399971
1761315747237554400,0.962554443359375,0.5734745264053345,-0.5049297213554382,-0.0468604676425457
1761315747247537400,0.972537353515625,0.551111102104187,-0.34550073742866516,0.046237166970968246
1761315747257519400,0.982519287109375,0.5682839155197144,-0.1267223209142685,0.12367816269397736
1761315747267501300,0.992501220703125,0.6213024258613586,0.08396727591753006,0.18698574602603912
1761315747277483500,1.0024833984375,0.7085297107696533,0.2912150025367737,0.24164846539497375
1761315747287466500,1.012466552734375,0.8184987306594849,0.48281779885292053,0.290282279253006
1761315747297448400,1.022448486328125,0.9592390656471252,0.661703884601593,0.35268014669418335
1761315747307430400,1.032430419921875,1.0968456268310547,0.8256618976593018,0.4245142936706543
1761315747317412400,1.042412353515625,1.2211886644363403,0.9704009294509888,0.49469736218452454
1761315747327394600,1.05239453125,1.3285129070281982,1.0917514562606812,0.5475194454193115
1761315747337377300,1.062377197265625,1.4174950122833252,1.1321662664413452,0.5698760747909546
1761315747347359500,1.072359375,1.4837150573730469,1.055979609489441,0.5446735620498657
1761315747357341400,1.082341552734375,1.5183064937591553,0.8540118336677551,0.48049643635749817
1761315747367323400,1.092323486328125,1.53593909740448,0.561671257019043,0.40241217613220215
1761315747377305600,1.1023056640625,1.5380933284759521,0.23712009191513062,0.3305390477180481
1761315747387288300,1.112288330078125,1.5242031812667847,-0.0868707150220871,0.27227452397346497
1761315747397270500,1.1222705078125,1.497353434562683,-0.35450801253318787,0.23824065923690796
1761315747407252200,1.132252197265625,1.466802954673767,-0.5429849028587341,0.24213920533657074
1761315747417234400,1.142234375,1.4319491386413574,-0.639915406703949,0.2794381082057953
1761315747427217400,1.152217529296875,1.3736189603805542,-0.6504358649253845,0.32749611139297485
1761315747437199400,1.162199462890625,1.2966784238815308,-0.6072018146514893,0.35593709349632263
1761315747447181600,1.172181640625,1.2204004526138306,-0.5110095143318176,0.362591952085495
1761315747457163300,1.182163330078125,1.1609134674072266,-0.3653407394886017,0.35888323187828064
1761315747467145500,1.1921455078125,1.126470685005188,-0.14512863755226135,0.3383707106113434
1761315747477128400,1.20212841796875,1.1215057373046875,0.09452948719263077,0.3052132725715637
1761315747487110400,1.2121103515625,1.136671781539917,0.3145236670970917,0.260925829410553
1761315747497092600,1.222092529296875,1.1751619577407837,0.4923405349254608,0.216803640127182
1761315747507074300,1.23207421875,1.2149611711502075,0.6152414083480835,0.1897420734167099
1761315747517057500,1.2420576171875,1.244005560874939,0.6669993996620178,0.17668965458869934
1761315747527039500,1.25203955078125,1.2565828561782837,0.666668176651001,0.18271875381469727
1761315747537021400,1.262021484375,1.262387752532959,0.6469141840934753,0.2130953073501587
1761315747547003400,1.27200341796875,1.2539302110671997,0.6122605800628662,0.25439587235450745
1761315747556985300,1.2819853515625,1.2363495826721191,0.5814738869667053,0.3051176369190216
1761315747566968300,1.29196826171875,1.2170547246932983,0.5555965304374695,0.33144187927246094
1761315747576950300,1.3019501953125,1.1914165019989014,0.5374782681465149,0.33220726251602173
1761315747586932500,1.311932373046875,1.152452826499939,0.5204074382781982,0.29482874274253845
1761315747596914400,1.32191455078125,1.1004644632339478,0.5147221088409424,0.23075629770755768
1761315747606897400,1.3318974609375,1.0535697937011719,0.5195126533508301,0.13923925161361694
1761315747616879400,1.34187939453125,1.003127932548523,0.528991162776947,0.03084886446595192
1761315747626861300,1.351861328125,0.9566163420677185,0.5614843368530273,-0.07279376685619354
1761315747636843500,1.361843505859375,0.9280904531478882,0.6090294718742371,-0.14945578575134277
1761315747646825200,1.3718251953125,0.9136491417884827,0.6521340012550354,-0.19461071491241455
1761315747656808400,1.381808349609375,0.9219339489936829,0.6838245987892151,-0.2134360671043396
1761315747666790400,1.391790283203125,0.9387810826301575,0.7054420113563538,-0.2188822329044342
1761315747676772400,1.4017724609375,0.9535666704177856,0.7116641998291016,-0.20863251388072968
1761315747686754600,1.411754638671875,0.9728254675865173,0.692027747631073,-0.19364765286445618
1761315747696737500,1.421737548828125,0.9966495633125305,0.6704968810081482,-0.1605197936296463
1761315747706719500,1.431719482421875,1.037005066871643,0.6419878602027893,-0.10996013134717941
1761315747716701400,1.441701416015625,1.0609506368637085,0.6082693338394165,-0.047271717339754105
1761315747726683400,1.451683349609375,1.0699474811553955,0.5869832634925842,0.02072887122631073
1761315747736665600,1.46166552734375,1.0766141414642334,0.5782670378684998,0.08220528066158295
1761315747746648300,1.4716484375,1.079304814338684,0.5809678435325623,0.1217086911201477
1761315747756630500,1.481630615234375,1.078047275543213,0.5952227115631104,0.14432212710380554
1761315747766612500,1.491612548828125,1.0589284896850586,0.6185543537139893,0.1527000218629837
1761315747776594400,1.501594482421875,1.0408906936645508,0.6446746587753296,0.1440761685371399
1761315747786577400,1.511577392578125,1.005217432975769,0.6491062641143799,0.11518309265375137
1761315747796559400,1.521559326171875,0.967336118221283,0.6515794992446899,0.06670743227005005
1761315747806541600,1.53154150390625,0.9197121262550354,0.6501904726028442,-0.008889884687960148
1761315747816523300,1.541523193359375,0.8622365593910217,0.620469868183136,-0.10664014518260956
1761315747826505500,1.55150537109375,0.7946972250938416,0.5671902298927307,-0.20233340561389923
1761315747836488400,1.561488525390625,0.7207852005958557,0.4859504997730255,-0.28748610615730286
1761315747846470400,1.571470458984375,0.6460180878639221,0.37659746408462524,-0.3498487174510956
1761315747856452400,1.581452392578125,0.5813810229301453,0.25704896450042725,-0.37073031067848206
1761315747866434300,1.591434326171875,0.5337244272232056,0.1785539984703064,-0.3362794816493988
1761315747876417300,1.601417236328125,0.5244667530059814,0.1810283362865448,-0.27206745743751526
1761315747886399500,1.6113994140625,0.541671872138977,0.19788673520088196,-0.2195637971162796
1761315747896381400,1.62138134765625,0.5335231423377991,0.14408448338508606,-0.23198771476745605
1761315747906363400,1.63136328125,0.46998777985572815,0.018834281712770462,-0.34885579347610474
1761315747916345300,1.641345458984375,0.35898271203041077,-0.11729133129119873,-0.5375125408172607
1761315747926328300,1.651328369140625,0.23567917943000793,-0.19103379547595978,-0.7484460473060608
1761315747936310500,1.661310546875,0.12595215439796448,-0.174875870347023,-0.9221893548965454
1761315747946292500,1.67129248046875,0.045935843139886856,-0.09036517143249512,-1.0356017351150513
1761315747956274400,1.6812744140625,0.0013643805868923664,0.06778185069561005,-1.0716235637664795
1761315747966257400,1.69125732421875,0.01860848069190979,0.24436606466770172,-1.023361086845398
1761315747976239400,1.7012392578125,0.09517409652471542,0.3865727484226227,-0.9053763747215271
1761315747986221300,1.71122119140625,0.21251152455806732,0.4743662178516388,-0.738946259021759
1761315747996203500,1.72120361328125,0.34161651134490967,0.5148036479949951,-0.5338343381881714
1761315748006185500,1.731185546875,0.4630732238292694,0.5164340734481812,-0.31225869059562683
1761315748016168400,1.74116845703125,0.5532934069633484,0.47746962308883667,-0.09540095925331116
1761315748026150400,1.751150390625,0.6378219723701477,0.4102588891983032,0.09755705296993256
1761315748036132400,1.76113232421875,0.6927922964096069,0.3119879961013794,0.2632911503314972
1761315748046114600,1.771114501953125,0.7319931387901306,0.19173897802829742,0.40032482147216797
1761315748056097500,1.78109765625,0.7380944490432739,0.08087558299303055,0.5156018733978271
1761315748066079500,1.79107958984375,0.7208440899848938,0.0065491534769535065,0.6063728332519531
1761315748076061400,1.8010615234375,0.6998022198677063,-0.037028148770332336,0.6748948693275452
1761315748086043400,1.81104345703125,0.6892918944358826,-0.06317056715488434,0.7178898453712463
1761315748096025300,1.821025390625,0.6755006909370422,-0.09879300743341446,0.7331529855728149
1761315748106008600,1.831008544921875,0.6487623453140259,-0.14643090963363647,0.7134601473808289
1761315748115990500,1.840990478515625,0.5999900102615356,-0.20469848811626434,0.6764912009239197
1761315748125972500,1.850972412109375,0.5398803949356079,-0.25608575344085693,0.6307552456855774
1761315748135954400,1.860954345703125,0.4609341621398926,-0.30993619561195374,0.5726336240768433
1761315748145936400,1.870936279296875,0.37086859345436096,-0.33987149596214294,0.5119853615760803
1761315748155919400,1.88091943359375,0.2750523090362549,-0.3368772864341736,0.4461536109447479
1761315748165901300,1.8909013671875,0.1650209277868271,-0.30385440587997437,0.38100165128707886
1761315748175883500,1.900883544921875,0.034919656813144684,-0.2551766037940979,0.3052176833152771
1761315748185866000,1.910865966796875,-0.09778095036745071,-0.18279129266738892,0.21723639965057373
1761315748195848700,1.9208486328125,-0.20469622313976288,-0.09842981398105621,0.13912375271320343
1761315748205831000,1.930830810546875,-0.2798216938972473,-0.023235641419887543,0.0726606622338295
1761315748215812600,1.9408125,-0.31760716438293457,0.03455708175897598,0.025332296267151833
1761315748225794800,1.950794921875,-0.32402515411376953,0.10323018580675125,0.01742762327194214
1761315748235777000,1.960777099609375,-0.30018267035484314,0.1640932708978653,0.04090312495827675
1761315748245759700,1.970759765625,-0.2575252652168274,0.20923356711864471,0.08369972556829453
1761315748255742000,1.980741943359375,-0.21272078156471252,0.2384236752986908,0.1243898943066597
1761315748265723600,1.9907236328125,-0.17471717298030853,0.25245553255081177,0.1461428999900818
1761315748275705900,2.000705810546875,-0.15504439175128937,0.24647915363311768,0.1406852900981903
1761315748285688800,2.010688720703125,-0.14405591785907745,0.20283210277557373,0.10976595431566238
1761315748295670800,2.0206708984375,-0.15467554330825806,0.14585325121879578,0.06305011361837387
1761315748305652700,2.03065283203125,-0.1781177967786789,0.10588885098695755,0.005896780639886856
1761315748315634700,2.040634765625,-0.21660234034061432,0.07953900098800659,-0.054582804441452026
1761315748325617000,2.050616943359375,-0.2654178738594055,0.05911273509263992,-0.13511689007282257
1761315748335599900,2.060599853515625,-0.320332795381546,0.05736517161130905,-0.22529499232769012
1761315748345581800,2.070581787109375,-0.3688451945781708,0.07464130967855453,-0.311864972114563
1761315748355563800,2.080563720703125,-0.4079345464706421,0.10725517570972443,-0.39059945940971375
1761315748365545700,2.090545654296875,-0.4334522485733032,0.14087259769439697,-0.4526617228984833
1761315748375528700,2.10052880859375,-0.43410393595695496,0.1698312759399414,-0.5029810667037964
1761315748385510700,2.1105107421875,-0.42154985666275024,0.19072356820106506,-0.5439623594284058
1761315748395492900,2.120492919921875,-0.4001753330230713,0.23016153275966644,-0.5624005198478699
1761315748405474800,2.130474853515625,-0.3779396414756775,0.2965811789035797,-0.5712416172027588
1761315748415456800,2.140456787109375,-0.3569800555706024,0.35593533515930176,-0.5778286457061768
1761315748425439700,2.150439697265625,-0.33339279890060425,0.3994896113872528,-0.5805473923683167
1761315748435421700,2.160421630859375,-0.30497127771377563,0.42138853669166565,-0.5962158441543579
1761315748445404000,2.17040380859375,-0.2767098844051361,0.3992820978164673,-0.6154089570045471
1761315748455385600,2.180385498046875,-0.2519821524620056,0.34166112542152405,-0.6350092887878418
1761315748465368800,2.190368896484375,-0.22959256172180176,0.25269150733947754,-0.6367045044898987
1761315748475350800,2.200350830078125,-0.20334231853485107,0.16919046640396118,-0.6172242760658264
1761315748485332700,2.210332763671875,-0.16430723667144775,0.09822557121515274,-0.5684648752212524
1761315748495315000,2.22031494140625,-0.12741206586360931,0.05876045301556587,-0.48759374022483826
1761315748505296600,2.230296630859375,-0.09874547272920609,0.05353325977921486,-0.3942113518714905
1761315748515280000,2.24027978515625,-0.08350180089473724,0.04750945419073105,-0.31193724274635315
1761315748525261800,2.25026171875,-0.06455440819263458,0.04693715646862984,-0.2493995726108551
1761315748535243800,2.260243896484375,-0.04121020808815956,0.06159013509750366,-0.2204400897026062
1761315748545226000,2.27022607421875,-0.0227246955037117,0.08988827466964722,-0.2197580337524414
1761315748555207700,2.280207763671875,-0.011821981519460678,0.12130292505025864,-0.23881854116916656
1761315748565191000,2.29019091796875,-0.01796898804605007,0.1628098338842392,-0.2581266760826111
1761315748575172900,2.3001728515625,-0.03456154465675354,0.19377334415912628,-0.28112414479255676
1761315748585154800,2.31015478515625,-0.06266707926988602,0.2213769406080246,-0.30824175477027893
1761315748595136800,2.32013671875,-0.09311393648386002,0.21296082437038422,-0.33182457089424133
1761315748605119700,2.33011962890625,-0.11451318860054016,0.18161295354366302,-0.34541624784469604
1761315748615101700,2.340101806640625,-0.127732053399086,0.1502467840909958,-0.3295704424381256
1761315748625083600,2.350083740234375,-0.1274048089981079,0.13315513730049133,-0.2802695035934448
1761315748635065900,2.36006591796875,-0.1221112385392189,0.11347412317991257,-0.21428780257701874
1761315748645047800,2.3700478515625,-0.11674489080905914,0.12187360972166061,-0.14193817973136902
1761315748655030800,2.38003076171875,-0.09411441534757614,0.16398590803146362,-0.06425803899765015
1761315748665012700,2.3900126953125,-0.04729646071791649,0.2902866303920746,0.010579566471278667
1761315748674994700,2.39999462890625,0.023491960018873215,0.48227977752685547,0.08454034477472305
1761315748684977000,2.409976806640625,0.091373510658741,0.6364127397537231,0.11547262966632843
1761315748694959900,2.4199599609375,0.12831580638885498,0.6750693321228027,0.06958796828985214
1761315748704941800,2.42994189453125,0.1307380646467209,0.5834618806838989,-0.03982522338628769
1761315748714923800,2.439923828125,0.10720717906951904,0.38997024297714233,-0.1627732515335083
1761315748724905700,2.44990576171875,0.07013697922229767,0.12651856243610382,-0.25236889719963074
1761315748734888000,2.459887939453125,0.030472392216324806,-0.13960713148117065,-0.2760273516178131
1761315748744871000,2.469870849609375,0.003235393203794956,-0.30477529764175415,-0.23504704236984253
1761315748754852900,2.479852783203125,0.007343585602939129,-0.39082521200180054,-0.13810929656028748
1761315748764834800,2.489834716796875,0.038693081587553024,-0.4153972268104553,-0.004206452984362841
1761315748774816800,2.499816650390625,0.09307589381933212,-0.376569926738739,0.14593857526779175
1761315748784799700,2.5097998046875,0.1595773845911026,-0.2812350392341614,0.29654985666275024
1761315748794781700,2.51978173828125,0.24285364151000977,-0.16098055243492126,0.42194291949272156
1761315748804764000,2.529763916015625,0.3319907784461975,-0.029185671359300613,0.5084821581840515
1761315748814745900,2.539745849609375,0.43073758482933044,0.09178176522254944,0.5660994052886963
1761315748824727800,2.549727783203125,0.5195231437683105,0.16811838746070862,0.6026768088340759
1761315748834710800,2.559710693359375,0.5996975898742676,0.20090004801750183,0.6464570760726929
1761315748844692700,2.569692626953125,0.6754088997840881,0.23783035576343536,0.7132576704025269
1761315748854675000,2.579675048828125,0.7551870942115784,0.2922337055206299,0.8007523417472839
1761315748864656600,2.58965673828125,0.8217560648918152,0.3574988842010498,0.8822315335273743
1761315748874638800,2.599638916015625,0.8927940130233765,0.3921772241592407,0.9354002475738525
1761315748884621800,2.609621826171875,0.9475463032722473,0.38128793239593506,0.949202299118042
1761315748894603800,2.619603759765625,0.9814102649688721,0.3063351511955261,0.9279372096061707
1761315748904585700,2.629585693359375,0.9903073906898499,0.17996639013290405,0.8814511299133301
1761315748914567700,2.639567626953125,0.9668854475021362,0.024895844981074333,0.820415735244751
1761315748924550700,2.649550537109375,0.9269446134567261,-0.14185985922813416,0.7400559186935425
1761315748934532900,2.659532958984375,0.8685950636863708,-0.29770562052726746,0.6428683996200562
1761315748944514800,2.669514892578125,0.8177435994148254,-0.4283272624015808,0.5355594158172607
1761315748954496800,2.679496826171875,0.7715369462966919,-0.5086197257041931,0.4362362325191498
1761315748964478700,2.689478759765625,0.7090157866477966,-0.5393113493919373,0.3358168303966522
1761315748974461700,2.699461669921875,0.6489508152008057,-0.5176361203193665,0.24144905805587769
1761315748984444000,2.70944384765625,0.5983823537826538,-0.4717997610569,0.15691784024238586
1761315748994425900,2.71942578125,0.5698878765106201,-0.40944263339042664,0.0785796269774437
1761315749004407800,2.72940771484375,0.5582428574562073,-0.32586050033569336,0.024575043469667435
1761315749014390800,2.739390869140625,0.572314977645874,-0.22361618280410767,0.006816285662353039
1761315749024372700,2.749372802734375,0.598093569278717,-0.12047093361616135,0.023076510056853294
1761315749034354700,2.759354736328125,0.647268533706665,-0.013498149812221527,0.07636529952287674
1761315749044337000,2.7693369140625,0.7239657640457153,0.0954582542181015,0.15316429734230042
1761315749054318800,2.77931884765625,0.8101598024368286,0.18994960188865662,0.23845230042934418
1761315749064301800,2.7893017578125,0.8789488077163696,0.2661585211753845,0.3080567419528961
1761315749074283800,2.79928369140625,0.9148013591766357,0.3028097450733185,0.3476369082927704
1761315749084265700,2.809265625,0.9341868758201599,0.28731584548950195,0.3471319079399109
1761315749094248000,2.819248046875,0.9305124878883362,0.2519693076610565,0.31208789348602295
1761315749104231000,2.82923095703125,0.9155613780021667,0.21572254598140717,0.25998079776763916
1761315749114212900,2.839212890625,0.8731992840766907,0.19567081332206726,0.19947616755962372
1761315749124194800,2.84919482421875,0.8349205255508423,0.19809195399284363,0.14038938283920288
1761315749134176800,2.8591767578125,0.7914731502532959,0.2182914912700653,0.0831066444516182
1761315749144158700,2.86915869140625,0.754400908946991,0.24305468797683716,0.028839651495218277
1761315749154142000,2.879141845703125,0.7252774238586426,0.2663632333278656,-0.015275612473487854
1761315749164123600,2.88912353515625,0.7044211030006409,0.28604796528816223,-0.04968258738517761
1761315749174105900,2.89910595703125,0.6839137077331543,0.29207924008369446,-0.06056293100118637
1761315749184087300,2.90908740234375,0.6633985638618469,0.27678224444389343,-0.0647488608956337
1761315749194070000,2.919070068359375,0.6415249705314636,0.2473529726266861,-0.05561315640807152
1761315749204052200,2.92905224609375,0.6170869469642639,0.2131340652704239,-0.03888826444745064
1761315749214034200,2.9390341796875,0.5810501575469971,0.17887116968631744,-0.0302891843020916
1761315749224016100,2.94901611328125,0.5368862152099609,0.14654827117919922,-0.03870977461338043
1761315749233998000,2.958998046875,0.4899540841579437,0.10745174437761307,-0.05782780796289444
1761315749243981000,2.96898095703125,0.4534831643104553,0.08125747740268707,-0.08420538157224655
1761315749253963300,2.97896337890625,0.4288257658481598,0.06857471168041229,-0.10924335569143295
1761315749263945200,2.9889453125,0.4140384793281555,0.05893045291304588,-0.11680333316326141
1761315749273927200,2.99892724609375,0.4014587700366974,0.05074096471071243,-0.11275319755077362
1761315749283910400,3.008910400390625,0.38424161076545715,0.03253811597824097,-0.09884889423847198
1761315749293892000,3.01889208984375,0.3579450249671936,-0.003913369029760361,-0.08613176643848419
1761315749303874300,3.028874267578125,0.3161776661872864,-0.06898307055234909,-0.08928234130144119
1761315749313856000,3.03885595703125,0.2590121328830719,-0.15156449377536774,-0.10293290764093399
1761315749323838200,3.048838134765625,0.19014394283294678,-0.22513307631015778,-0.13336680829524994
1761315749333821200,3.0588212890625,0.11943701654672623,-0.2766095697879791,-0.1724308431148529
1761315749343803100,3.06880322265625,0.058649636805057526,-0.3068928122520447,-0.21533428132534027
1761315749353785300,3.078785400390625,0.011469876393675804,-0.32744231820106506,-0.23931072652339935
1761315749363767000,3.08876708984375,-0.019512448459863663,-0.3262344300746918,-0.2497604936361313
1761315749373750300,3.098750244140625,-0.03631167113780975,-0.2896069288253784,-0.23495864868164062
1761315749383732000,3.10873193359375,-0.02726341225206852,-0.18074294924736023,-0.1998130977153778
1761315749393714200,3.118714111328125,0.015313341282308102,0.003455390688031912,-0.1562051624059677
1761315749403696000,3.128696044921875,0.06715214997529984,0.13839596509933472,-0.15210497379302979
1761315749413678000,3.138677978515625,0.0838022381067276,0.13985909521579742,-0.2247038185596466
1761315749423661300,3.148661376953125,0.04907429218292236,0.03150651976466179,-0.3471303880214691
1761315749433643000,3.15864306640625,-0.005865918472409248,-0.1145060732960701,-0.4810495674610138
1761315749443625200,3.168625244140625,-0.055468183010816574,-0.21489760279655457,-0.5713075995445251
1761315749453607200,3.178607177734375,-0.09199956059455872,-0.21789152920246124,-0.5999032855033875
1761315749463590100,3.188590087890625,-0.10392075031995773,-0.14551867544651031,-0.5641860961914062
1761315749473572400,3.198572265625,-0.08100584894418716,-0.056585606187582016,-0.48652780055999756
1761315749483554000,3.208553955078125,-0.02225433848798275,0.010565970093011856,-0.38980215787887573
1761315749493536300,3.218536376953125,0.0451878197491169,0.028960689902305603,-0.29062843322753906
1761315749503518200,3.228518310546875,0.11539682000875473,-0.008993973955512047,-0.2030600756406784
1761315749513501200,3.238501220703125,0.1783059984445572,-0.07380838692188263,-0.11706393957138062
1761315749523483400,3.2484833984375,0.22770832479000092,-0.12276140600442886,-0.025141142308712006
1761315749533465000,3.258465087890625,0.25229117274284363,-0.15374621748924255,0.06986020505428314
1761315749543447300,3.268447265625,0.2616625130176544,-0.1446080505847931,0.15440168976783752
1761315749553430000,3.278429931640625,0.2555984854698181,-0.09066412597894669,0.23793093860149384
1761315749563412200,3.288412109375,0.25245097279548645,-0.016213301569223404,0.29985329508781433
1761315749573394200,3.298394287109375,0.25968170166015625,0.07165849953889847,0.3414497375488281
1761315749583376100,3.308376220703125,0.2786730229854584,0.1441713273525238,0.36641713976860046
1761315749593358300,3.3183583984375,0.29764246940612793,0.18185505270957947,0.37399089336395264
1761315749603341000,3.328341064453125,0.31156429648399353,0.1835407167673111,0.37729567289352417
1761315749613323300,3.3383232421875,0.3146069347858429,0.13864515721797943,0.3826206624507904
1761315749623305000,3.348304931640625,0.31449708342552185,0.060514532029628754,0.40771833062171936
1761315749633287200,3.358287109375,0.3074650168418884,-0.03507803753018379,0.44972676038742065
1761315749643269000,3.36826904296875,0.30335867404937744,-0.11070968210697174,0.4980623424053192
1761315749653252000,3.378252197265625,0.2918146848678589,-0.1615781933069229,0.5390899181365967
1761315749663234300,3.388234375,0.26871806383132935,-0.20816102623939514,0.550658106803894
1761315749673216000,3.398216064453125,0.22543078660964966,-0.2494264394044876,0.5287099480628967
1761315749683198200,3.4081982421875,0.1570228934288025,-0.2917099893093109,0.4540022909641266
1761315749693181200,3.41818115234375,0.07109067589044571,-0.31785956025123596,0.3504929542541504
1761315749703163100,3.4281630859375,-0.019633298739790916,-0.31307995319366455,0.23153804242610931
1761315749713145300,3.438145263671875,-0.11258187890052795,-0.28553006052970886,0.11840563267469406
1761315749723127000,3.448126953125,-0.17737175524234772,-0.23611465096473694,0.028507471084594727
1761315749733109200,3.458109130859375,-0.20960506796836853,-0.15966035425662994,-0.026395458728075027
1761315749743092000,3.468092041015625,-0.20415285229682922,-0.05614345893263817,-0.043705396354198456
1761315749753074200,3.47807421875,-0.17062605917453766,0.06663651764392853,-0.0256172027438879
1761315749763056400,3.488056396484375,-0.1301666647195816,0.19734370708465576,0.011144249700009823
1761315749773038000,3.4980380859375,-0.09423902630805969,0.3032536506652832,0.046934206038713455
1761315749783021300,3.508021240234375,-0.06079299747943878,0.3644159138202667,0.07550708204507828
1761315749793003000,3.5180029296875,-0.04992783069610596,0.3540325164794922,0.0746639221906662
1761315749802985200,3.527985107421875,-0.0619487501680851,0.29582276940345764,0.048453059047460556
1761315749812967200,3.53796728515625,-0.08232726156711578,0.2132602483034134,0.0024797101505100727
1761315749822949000,3.54794921875,-0.1133609414100647,0.11349537968635559,-0.06686477363109589
1761315749832932400,3.557932373046875,-0.13788414001464844,0.03334275633096695,-0.13821618258953094
1761315749842914000,3.5679140625,-0.1388479620218277,-0.004565877374261618,-0.2033517062664032
1761315749852896300,3.577896240234375,-0.11977174878120422,-0.0012089628726243973,-0.24287168681621552
1761315749862878200,3.587878173828125,-0.08914908766746521,0.028171952813863754,-0.2755514085292816
1761315749872861200,3.597861083984375,-0.052297864109277725,0.06160767376422882,-0.2991483509540558
1761315749882843100,3.607843017578125,-0.019710823893547058,0.08281158655881882,-0.3030140995979309
1761315749892825000,3.6178251953125,0.008000699803233147,0.10389849543571472,-0.29749682545661926
1761315749902807300,3.627807373046875,0.02410968206822872,0.11116708070039749,-0.279136598110199
1761315749912789000,3.6377890625,0.035121850669384,0.1052202433347702,-0.25982603430747986
1761315749922772200,3.647772216796875,0.035744886845350266,0.11626257747411728,-0.24494005739688873
1761315749932754200,3.657754150390625,0.03786742687225342,0.14073649048805237,-0.23255689442157745
1761315749942736100,3.667736083984375,0.04459477588534355,0.176902174949646,-0.22292275726795197
1761315749952718300,3.67771826171875,0.06120198220014572,0.21111634373664856,-0.22252008318901062
1761315749962701000,3.687701171875,0.08247378468513489,0.2526250183582306,-0.22711634635925293
1761315749972683300,3.697683349609375,0.10895918309688568,0.29479271173477173,-0.21975617110729218
1761315749982665000,3.7076650390625,0.1322350800037384,0.3257211446762085,-0.194970041513443
1761315749992647200,3.717647216796875,0.15445995330810547,0.3388236165046692,-0.16886121034622192
1761315750002629400,3.72762939453125,0.17609107494354248,0.33496615290641785,-0.1429460495710373
1761315750012612000,3.737612060546875,0.19474172592163086,0.3141636848449707,-0.11544011533260345
1761315750022594300,3.74759423828125,0.20700545608997345,0.26442715525627136,-0.08875385671854019
1761315750032576000,3.757575927734375,0.21111631393432617,0.19464141130447388,-0.07456932961940765
1761315750042558200,3.76755810546875,0.21494802832603455,0.1262587308883667,-0.05821358039975166
1761315750052541200,3.777541259765625,0.21742796897888184,0.10806376487016678,-0.028014132753014565
1761315750062523100,3.787523193359375,0.21879792213439941,0.12094023078680038,-0.001765931025147438
1761315750072505300,3.79750537109375,0.2046075314283371,0.15687905251979828,0.01916012354195118
1761315750082487000,3.807487060546875,0.1746653914451599,0.17762449383735657,0.02260761521756649
1761315750092469200,3.81746923828125,0.14207549393177032,0.1859961301088333,-0.006816319189965725
1761315750102452200,3.8274521484375,0.12730102241039276,0.20775549113750458,-0.05623606964945793
1761315750112434200,3.83743408203125,0.1251624971628189,0.24044527113437653,-0.11762113124132156
1761315750122416400,3.84741650390625,0.12921717762947083,0.26482337713241577,-0.16710108518600464
1761315750132398000,3.857398193359375,0.1385592818260193,0.27027061581611633,-0.19165757298469543
1761315750142381300,3.86738134765625,0.1477099061012268,0.25138354301452637,-0.1901523768901825
1761315750152363000,3.877363037109375,0.16300523281097412,0.24897922575473785,-0.1568564772605896
1761315750162345200,3.88734521484375,0.1881224811077118,0.2719767093658447,-0.09300493448972702
1761315750172327200,3.8973271484375,0.21200278401374817,0.35059377551078796,-0.004346974194049835
1761315750182309000,3.90730908203125,0.2581721842288971,0.499370813369751,0.11125682294368744
1761315750192292000,3.9172919921875,0.3229930102825165,0.7054187655448914,0.21895718574523926
1761315750202274300,3.9272744140625,0.3955339789390564,0.8245700597763062,0.289310097694397
1761315750212256300,3.93725634765625,0.45637816190719604,0.8370043635368347,0.29416102170944214
1761315750222238200,3.94723828125,0.5169329047203064,0.7899376749992371,0.23316910862922668
1761315750232221400,3.957221435546875,0.5801318287849426,0.6693289875984192,0.13089732825756073
1761315750242203100,3.967203125,0.6292151212692261,0.4738273322582245,0.023440148681402206
1761315750252185300,3.977185302734375,0.6612441539764404,0.22308139503002167,-0.06604445725679398
1761315750262167300,3.987167236328125,0.6525765061378479,-0.021331630647182465,-0.1095438227057457
1761315750272149200,3.997149169921875,0.619317889213562,-0.1681021749973297,-0.09822219610214233
1761315750282132200,4.00713232421875,0.5846887826919556,-0.19896502792835236,-0.045961763709783554
1761315750292114200,4.0171142578125,0.5721913576126099,-0.1680278778076172,0.046512242406606674
1761315750302096400,4.027096435546875,0.5738419890403748,-0.08854108303785324,0.13448432087898254
1761315750312078300,4.037078369140625,0.596174418926239,0.04648997262120247,0.19215692579746246
1761315750322060300,4.047060302734375,0.64176344871521,0.1833839863538742,0.2087317407131195
1761315750332043300,4.057043212890625,0.7128743529319763,0.31474336981773376,0.19533097743988037
1761315750342025200,4.067025146484375,0.8058540225028992,0.45389050245285034,0.17865630984306335
1761315750352007200,4.077007080078125,0.9309936165809631,0.5828002691268921,0.18520662188529968
1761315750361989400,4.0869892578125,1.0557280778884888,0.6679232716560364,0.22830727696418762
1761315750371972400,4.096972412109375,1.1802912950515747,0.7238893508911133,0.30922451615333557
1761315750381954300,4.106954345703125,1.285962700843811,0.7565324902534485,0.4083380699157715
1761315750391936300,4.116936279296875,1.377368450164795,0.7540860772132874,0.4987361431121826
1761315750401918200,4.126918212890625,1.4464192390441895,0.7127282619476318,0.5615434646606445
1761315750411900200,4.136900146484375,1.4961156845092773,0.6375336050987244,0.5844637155532837
1761315750421883400,4.14688330078125,1.5266053676605225,0.5209478139877319,0.5631195306777954
1761315750431865000,4.156864990234375,1.5305958986282349,0.374414324760437,0.5085628628730774
1761315750441847300,4.166847412109375,1.5205471515655518,0.21603280305862427,0.41723939776420593
1761315750451829200,4.176829345703125,1.4951640367507935,0.07114992290735245,0.30410486459732056
1761315750461812200,4.186812255859375,1.4668347835540771,-0.04016944393515587,0.19241973757743835
1761315750471794400,4.19679443359375,1.4419091939926147,-0.12153646349906921,0.09436853229999542
1761315750481776000,4.206776123046875,1.4223397970199585,-0.158135786652565,0.03394235298037529
1761315750491758300,4.21675830078125,1.4000842571258545,-0.16247940063476562,0.005164234898984432
1761315750501740300,4.226740234375,1.3745226860046387,-0.18179170787334442,-0.0013617812655866146
1761315750511723300,4.23672314453125,1.335351586341858,-0.22052845358848572,-0.017089612782001495
1761315750521705200,4.246705322265625,1.284560203552246,-0.2489861249923706,-0.040985919535160065
1761315750531687200,4.256687255859375,1.2125134468078613,-0.230258509516716,-0.06227363273501396
1761315750541669400,4.26666943359375,1.1208802461624146,-0.17096276581287384,-0.06971687078475952
1761315750551652000,4.276652099609375,1.0216953754425049,-0.09881266206502914,-0.08133304119110107
1761315750561634300,4.28663427734375,0.9340755343437195,-0.0038269921205937862,-0.09837902337312698
1761315750571616300,4.2966162109375,0.8842735886573792,0.11431935429573059,-0.1213194951415062
1761315750581598200,4.30659814453125,0.8684987425804138,0.25536224246025085,-0.14072488248348236
1761315750591580200,4.316580078125,0.8913971185684204,0.4046201705932617,-0.13517113029956818
1761315750601563100,4.326563232421875,0.9495341181755066,0.5501132011413574,-0.11236928403377533
1761315750611545300,4.33654541015625,1.034433364868164,0.6445930600166321,-0.07075925916433334
1761315750621527300,4.34652734375,1.1128513813018799,0.7044749855995178,-0.01723874919116497
1761315750631509200,4.35650927734375,1.186587929725647,0.7099062204360962,0.040134262293577194
1761315750641492500,4.366492431640625,1.24180006980896,0.6738687753677368,0.08465477079153061
1761315750651474200,4.37647412109375,1.2752139568328857,0.6309937834739685,0.11550615727901459
1761315750661456400,4.386456298828125,1.2620017528533936,0.5839555859565735,0.12073305249214172
1761315750671438300,4.396438232421875,1.2207361459732056,0.5258741974830627,0.11145167052745819
1761315750681420300,4.406420166015625,1.1575065851211548,0.4876011610031128,0.08726043254137039
1761315750691403300,4.4164033203125,1.102136254310608,0.47415751218795776,0.04531591385602951
1761315750701385200,4.42638525390625,1.0568273067474365,0.46442919969558716,-0.01257797610014677
1761315750711367400,4.436367431640625,1.0254970788955688,0.4641466438770294,-0.07699558138847351
1761315750721349000,4.44634912109375,0.990122377872467,0.4557797610759735,-0.13712163269519806
1761315750731332400,4.456332275390625,0.961277425289154,0.4528031349182129,-0.18435119092464447
1761315750741314000,4.46631396484375,0.9350447058677673,0.45301496982574463,-0.21946822106838226
1761315750751296300,4.476296142578125,0.9144006371498108,0.46667352318763733,-0.2339552789926529
1761315750761278200,4.4862783203125,0.9070554375648499,0.4818871319293976,-0.2415188103914261
1761315750771260200,4.49626025390625,0.903840959072113,0.4964844584465027,-0.234092578291893
1761315750781243400,4.506243408203125,0.8908825516700745,0.5178070664405823,-0.20776818692684174
1761315750791225000,4.51622509765625,0.8874803185462952,0.5438311696052551,-0.17311513423919678
1761315750801207300,4.526207275390625,0.8683173656463623,0.5606169700622559,-0.14616255462169647
1761315750811189200,4.536189208984375,0.8522984385490417,0.5712001323699951,-0.13302704691886902
1761315750821172200,4.546172119140625,0.8335803747177124,0.5829817056655884,-0.13668519258499146
1761315750831154400,4.556154541015625,0.8180602788925171,0.5916668176651001,-0.159544438123703
1761315750841136000,4.56613623046875,0.7959387302398682,0.5917482376098633,-0.19350473582744598
1761315750851118300,4.576118408203125,0.7748973369598389,0.577718198299408,-0.23182149231433868
1761315750861100300,4.586100341796875,0.762554407119751,0.5288381576538086,-0.2577897012233734
1761315750871083300,4.596083251953125,0.7399247288703918,0.4529053568840027,-0.2793431878089905
1761315750881065500,4.6060654296875,0.7197081446647644,0.35995161533355713,-0.2900531589984894
1761315750891047200,4.616047119140625,0.6844074130058289,0.2412521094083786,-0.3062289357185364
1761315750901029400,4.626029296875,0.6308759450912476,0.12105444818735123,-0.3206478953361511
1761315750911012000,4.63601220703125,0.5649118423461914,0.012347681447863579,-0.33193889260292053
1761315750920994300,4.645994384765625,0.4892972707748413,-0.06925611943006516,-0.3319472670555115
1761315750930976300,4.655976318359375,0.4291455149650574,-0.08889613300561905,-0.3217950463294983
1761315750940958200,4.665958251953125,0.4080637991428375,-0.029196178540587425,-0.2991991341114044
1761315750950940400,4.6759404296875,0.42219212651252747,0.015266627073287964,-0.2980976402759552
1761315750960923100,4.685923095703125,0.42939940094947815,-0.01997806318104267,-0.34687644243240356
1761315750970905300,4.6959052734375,0.3955519497394562,-0.09414709359407425,-0.46350157260894775
1761315750980887300,4.70588720703125,0.3162280321121216,-0.14778287708759308,-0.619515061378479
1761315750990869200,4.715869140625,0.2322004735469818,-0.166526198387146,-0.7729916572570801
1761315751000852200,4.725852294921875,0.1632498949766159,-0.1316775232553482,-0.8946466445922852
1761315751010834200,4.735834228515625,0.13886812329292297,-0.031589001417160034,-0.9455101490020752
1761315751020816400,4.74581640625,0.16106516122817993,0.11205826699733734,-0.9180640578269958
1761315751030798000,4.755798095703125,0.21897399425506592,0.2556428611278534,-0.8297056555747986
1761315751040780300,4.7657802734375,0.31001517176628113,0.3558725118637085,-0.6849765777587891
1761315751050763300,4.77576318359375,0.4255686402320862,0.40616923570632935,-0.49980244040489197
1761315751060745200,4.7857451171875,0.5569194555282593,0.3918001353740692,-0.29459285736083984
1761315751070727400,4.7957275390625,0.6829357147216797,0.321098268032074,-0.08217883855104446
1761315751080709000,4.805709228515625,0.8145759105682373,0.21425455808639526,0.1151469275355339
1761315751090692400,4.8156923828125,0.9009603261947632,0.0861264169216156,0.2869463860988617
1761315751100674000,4.825674072265625,0.9492670297622681,-0.0642523467540741,0.4199564456939697
1761315751110656300,4.83565625,0.9646744728088379,-0.20482277870178223,0.5192582607269287
1761315751120638500,4.845638427734375,0.981133759021759,-0.3052924573421478,0.5831894874572754
1761315751130621200,4.85562109375,1.0031520128250122,-0.35575565695762634,0.6114421486854553
1761315751140603400,4.865603271484375,1.0295937061309814,-0.3749622404575348,0.613865077495575
1761315751150585000,4.875585205078125,1.0264298915863037,-0.3892253339290619,0.6002829670906067
1761315751160567300,4.8855673828125,1.008628010749817,-0.38988301157951355,0.5890350341796875
1761315751170549200,4.89554931640625,0.9736250638961792,-0.3942122459411621,0.5789222121238708
1761315751180532200,4.9055322265625,0.9324843287467957,-0.4253048896789551,0.5571392774581909
1761315751190514700,4.9155146484375,0.87022465467453,-0.46676790714263916,0.530301570892334
1761315751200497000,4.925496826171875,0.7974603176116943,-0.4953763782978058,0.5069402456283569
1761315751210478800,4.935478759765625,0.7035439014434814,-0.5096864104270935,0.49344947934150696
1761315751220460800,4.945460693359375,0.5977829098701477,-0.46619758009910583,0.4898073971271515
1761315751230444000,4.955444091796875,0.4931603968143463,-0.3841751515865326,0.4765169024467468
1761315751240425700,4.96542578125,0.3962305784225464,-0.25580182671546936,0.4664338529109955
1761315751250408000,4.975407958984375,0.3227483630180359,-0.10524055361747742,0.4598531723022461
1761315751260390000,4.985389892578125,0.2652330696582794,0.0500115230679512,0.4509032666683197
1761315751270372900,4.995372802734375,0.22341078519821167,0.20562401413917542,0.4472635090351105
1761315751280355000,5.00535498046875,0.2005024254322052,0.35314154624938965,0.4477696716785431
1761315751290336800,5.015336669921875,0.18598447740077972,0.4714391529560089,0.4393990933895111
1761315751300319000,5.025319091796875,0.1874871850013733,0.5423002243041992,0.41186562180519104
1761315751310301700,5.0353017578125,0.20335429906845093,0.5822824835777283,0.38184645771980286
1761315751320284000,5.045283935546875,0.2215385138988495,0.5917242169380188,0.3405630886554718
1761315751330266000,5.05526611328125,0.24074949324131012,0.5730584263801575,0.3001413643360138
1761315751340247800,5.065247802734375,0.25392213463783264,0.53834468126297,0.25680288672447205
1761315751350230000,5.07522998046875,0.26144957542419434,0.4904903471469879,0.2125193178653717
1761315751360212700,5.085212646484375,0.2725018560886383,0.42475858330726624,0.15608994662761688
1761315751370195000,5.09519482421875,0.2751162648200989,0.35880085825920105,0.09177833795547485
1761315751380177000,5.105177001953125,0.28189703822135925,0.28828877210617065,0.02042326331138611
1761315751390158800,5.115158935546875,0.27514326572418213,0.20015914738178253,-0.07185953110456467
1761315751400142000,5.12514208984375,0.2635381817817688,0.14434918761253357,-0.17924658954143524
1761315751410123800,5.135123779296875,0.24577143788337708,0.1264522224664688,-0.2847953736782074
1761315751420106000,5.14510595703125,0.22993744909763336,0.1197216585278511,-0.3869694769382477
1761315751430087700,5.155087646484375,0.2082097828388214,0.13889135420322418,-0.48952218890190125
1761315751440070000,5.16506982421875,0.19141477346420288,0.16250231862068176,-0.5884938836097717
1761315751450052900,5.175052978515625,0.17859511077404022,0.20418958365917206,-0.6720929145812988
1761315751460034800,5.185034912109375,0.17005355656147003,0.23360925912857056,-0.7212598919868469
1761315751470017000,5.19501708984375,0.17402006685733795,0.28091633319854736,-0.7184398770332336
1761315751479998700,5.204998779296875,0.1938190758228302,0.3559897840023041,-0.669984757900238
1761315751489982000,5.21498193359375,0.22769208252429962,0.434152215719223,-0.5910673141479492
1761315751499964000,5.2249638671875,0.2975570857524872,0.4926598370075226,-0.49769356846809387
1761315751509945900,5.23494580078125,0.383756160736084,0.5117312073707581,-0.40647977590560913
1761315751519928000,5.244927978515625,0.47199633717536926,0.5124727487564087,-0.3246455192565918
1761315751529909800,5.25490966796875,0.546389639377594,0.5037218928337097,-0.25083789229393005
1761315751539893000,5.26489306640625,0.5950329303741455,0.47201141715049744,-0.19034315645694733
1761315751549874700,5.274874755859375,0.6242952346801758,0.4340645670890808,-0.1377001851797104
1761315751559857000,5.28485693359375,0.651342511177063,0.38378486037254333,-0.10506485402584076
1761315751569838800,5.2948388671875,0.6575428247451782,0.31579354405403137,-0.09433817863464355
1761315751579821800,5.30482177734375,0.6489407420158386,0.2635844647884369,-0.09580454975366592
1761315751589804000,5.314803955078125,0.6326677799224854,0.20704315602779388,-0.10043179243803024
1761315751599785700,5.32478564453125,0.6036754250526428,0.1685706228017807,-0.10600299388170242
1761315751609768000,5.334767822265625,0.5756808519363403,0.14135445654392242,-0.10677345097064972
1761315751619750000,5.34475,0.5438023805618286,0.12309832125902176,-0.1027408093214035
1761315751629732900,5.35473291015625,0.5175318717956543,0.11087413877248764,-0.09351428598165512
1761315751639715000,5.364715087890625,0.4960043132305145,0.10737178474664688,-0.09145791083574295
1761315751649696800,5.37469677734375,0.46967390179634094,0.1108807697892189,-0.09607317298650742
1761315751659679000,5.384678955078125,0.4401816725730896,0.12706321477890015,-0.10752890259027481
1761315751669662000,5.394661865234375,0.40601250529289246,0.14903029799461365,-0.12520776689052582
1761315751679644000,5.404643798828125,0.36971521377563477,0.1731068193912506,-0.15490463376045227
1761315751689625900,5.4146259765625,0.33782652020454407,0.1859147548675537,-0.1878969520330429
1761315751699607800,5.42460791015625,0.3118528425693512,0.17810827493667603,-0.2169196903705597
1761315751709590000,5.434590087890625,0.2993365228176117,0.16187576949596405,-0.2448895424604416
1761315751719572700,5.44457275390625,0.2923698127269745,0.12049194425344467,-0.25891661643981934
1761315751729555000,5.454554931640625,0.2941506505012512,0.08204174786806107,-0.25423264503479004
1761315751739536600,5.46453662109375,0.3188895583152771,0.06423479318618774,-0.22818930447101593
1761315751749518800,5.474518798828125,0.3500376343727112,0.07474628835916519,-0.1769181340932846
1761315751759501800,5.484501708984375,0.36989566683769226,0.10748940706253052,-0.11019839346408844
1761315751769483800,5.49448388671875,0.3969952166080475,0.2345016896724701,-0.05593302473425865
1761315751779466000,5.504466064453125,0.4462280571460724,0.4321514368057251,-0.02821275033056736
1761315751789447700,5.51444775390625,0.48401379585266113,0.5901693105697632,-0.042977578938007355
1761315751799430000,5.524429931640625,0.4963834583759308,0.6836369037628174,-0.12519575655460358
1761315751809412900,5.534412841796875,0.4614470601081848,0.6976627111434937,-0.2535547912120819
1761315751819394800,5.544394775390625,0.39563485980033875,0.6480538249015808,-0.39733976125717163
1761315751829377000,5.554376953125,0.30616381764411926,0.5136134624481201,-0.5266649723052979
1761315751839358700,5.564358642578125,0.19276246428489685,0.2684134542942047,-0.6334341168403625
1761315751849342000,5.574342041015625,0.0634223073720932,-0.07167886942625046,-0.690036416053772
1761315751859324000,5.584323974609375,-0.04840146377682686,-0.3684047758579254,-0.6544159650802612
1761315751869305900,5.594305908203125,-0.11795736849308014,-0.5173553824424744,-0.5325667858123779
1761315751879288000,5.6042880859375,-0.1302870810031891,-0.5688308477401733,-0.343875914812088
1761315751889269800,5.614269775390625,-0.10847499221563339,-0.4910399317741394,-0.10571395605802536
1761315751899253000,5.6242529296875,-0.06240648403763771,-0.31695935130119324,0.1494680643081665
1761315751909234700,5.634234619140625,0.01836000196635723,-0.12658007442951202,0.37023240327835083
1761315751919217000,5.644216796875,0.12613755464553833,0.087812140583992,0.5370795726776123
1761315751929199000,5.65419921875,0.2611720561981201,0.292513370513916,0.6430289149284363
1761315751939181800,5.664181884765625,0.40261411666870117,0.463356077671051,0.690851092338562
1761315751949164000,5.6741640625,0.5358704924583435,0.5858718752861023,0.6997691988945007
1761315751959145700,5.684145751953125,0.6447544097900391,0.6627640724182129,0.6983640193939209
1761315751969128000,5.6941279296875,0.7277036309242249,0.7030054926872253,0.7057135701179504
1761315751979110000,5.70410986328125,0.7858168482780457,0.6968750953674316,0.7145437002182007
1761315751989092900,5.7140927734375,0.8126809597015381,0.6318071484565735,0.7053347826004028
1761315751999074800,5.72407470703125,0.8098366260528564,0.5094215869903564,0.6721705794334412
1761315752009056800,5.734056884765625,0.7838223576545715,0.33477601408958435,0.6021081209182739
1761315752019039000,5.7440390625,0.7594018578529358,0.1312597692012787,0.5122374296188354
1761315752029022000,5.75402197265625,0.7102425694465637,-0.04586892947554588,0.4103158712387085
1761315752039004000,5.76400390625,0.6611495614051819,-0.18736247718334198,0.3228073716163635
1761315752048985900,5.77398583984375,0.6092604994773865,-0.28977617621421814,0.23569536209106445
1761315752058967800,5.7839677734375,0.5540708303451538,-0.376001238822937,0.1483428180217743
1761315752068950000,5.793949951171875,0.49888426065444946,-0.44645488262176514,0.07024935632944107
1761315752078932700,5.8039326171875,0.4452535808086395,-0.4766693413257599,0.003008970757946372
1761315752088915000,5.8139150390625,0.4029735028743744,-0.44229352474212646,-0.03775443881750107
1761315752098897000,5.82389697265625,0.3964807391166687,-0.31848660111427307,-0.04150298982858658
1761315752108878800,5.83387890625,0.41817963123321533,-0.08815539628267288,0.009091746062040329
1761315752118861800,5.84386181640625,0.4790531396865845,0.16594122350215912,0.09920158237218857
1761315752128843800,5.85384375,0.6041939854621887,0.40315166115760803,0.19576379656791687
1761315752138826000,5.863825927734375,0.7660446763038635,0.6046724319458008,0.28360968828201294
1761315752148807700,5.8738076171875,0.9091871380805969,0.7243365049362183,0.346329003572464
1761315752158790000,5.883789794921875,0.9868893623352051,0.7507537007331848,0.36636489629745483
1761315752168772900,5.89377294921875,1.0067099332809448,0.7317696213722229,0.3571447730064392
1761315752178754800,5.9037548828125,1.008446455001831,0.7096428275108337,0.3285812735557556
1761315752188737000,5.913737060546875,0.9820258021354675,0.6548826694488525,0.2828931510448456
1761315752198719000,5.923718994140625,0.9354880452156067,0.5681716799736023,0.22162768244743347
1761315752208702200,5.9337021484375,0.874790608882904,0.4897730052471161,0.16508503258228302
1761315752218684000,5.943683837890625,0.8335369229316711,0.42153608798980713,0.11519474536180496
1761315752228666000,5.953666015625,0.7984393835067749,0.36024051904678345,0.07738691568374634
1761315752238648000,5.96364794921875,0.7746347188949585,0.3157013952732086,0.05286100506782532
1761315752248630000,5.973630126953125,0.776993989944458,0.2782727777957916,0.04138943925499916
1761315752258613000,5.983613037109375,0.7693819999694824,0.2626470923423767,0.024957530200481415
1761315752268595000,5.993594970703125,0.7622835636138916,0.2637389898300171,0.006281847134232521
1761315752278577200,6.0035771484375,0.7467338442802429,0.2850356698036194,-0.02276906557381153
1761315752288558800,6.013558837890625,0.7273555994033813,0.3099713921546936,-0.06008075177669525
1761315752298542000,6.0235419921875,0.7013454437255859,0.32643356919288635,-0.10740785300731659
1761315752308523800,6.033523681640625,0.6759719252586365,0.3135579824447632,-0.14960776269435883
1761315752318506000,6.043506103515625,0.6425292491912842,0.31533387303352356,-0.19261398911476135
1761315752328488200,6.05348828125,0.6074279546737671,0.3121519088745117,-0.22843697667121887
1761315752338471000,6.063470947265625,0.5820624232292175,0.2871207892894745,-0.2543126046657562
1761315752348453000,6.073453125,0.5679413080215454,0.23422294855117798,-0.27317604422569275
1761315752358434800,6.083434814453125,0.5563725233078003,0.19054566323757172,-0.2810365557670593
1761315752368417000,6.0934169921875,0.5381538271903992,0.16697987914085388,-0.2905072867870331
1761315752378399000,6.10339892578125,0.5159986019134521,0.15976642072200775,-0.30438584089279175
1761315752388382000,6.1133818359375,0.4869091510772705,0.15839383006095886,-0.3110051453113556
1761315752398364200,6.1233642578125,0.46286821365356445,0.15964818000793457,-0.31054040789604187
1761315752408345900,6.133345947265625,0.4380028247833252,0.15055401623249054,-0.2977881133556366
1761315752418328000,6.143328125,0.41742005944252014,0.14662304520606995,-0.2696675956249237
1761315752428311000,6.15331103515625,0.39932042360305786,0.14805608987808228,-0.23043949902057648
1761315752438293000,6.16329296875,0.3934556543827057,0.15223421156406403,-0.18768344819545746
1761315752448275200,6.173275146484375,0.3957270681858063,0.13021279871463776,-0.16026780009269714
1761315752458257000,6.1832568359375,0.3908965587615967,0.08084016293287277,-0.1628842055797577
1761315752468239000,6.193239013671875,0.3750648498535156,0.006069514900445938,-0.20278635621070862
1761315752478221800,6.203221923828125,0.3415987193584442,-0.06685750931501389,-0.2507963180541992
1761315752488204000,6.2132041015625,0.29159411787986755,-0.12655439972877502,-0.2998690605163574
1761315752498186000,6.22318603515625,0.2457180917263031,-0.19328543543815613,-0.32722029089927673
1761315752508168000,6.23316796875,0.19846269488334656,-0.24898144602775574,-0.3309873342514038
1761315752518151200,6.243151123046875,0.15478330850601196,-0.27600035071372986,-0.3117298483848572
1761315752528132900,6.2531328125,0.11942746490240097,-0.2739119231700897,-0.28958672285079956
1761315752538115000,6.263114990234375,0.09780246019363403,-0.23189428448677063,-0.2670770585536957
1761315752548096800,6.2730966796875,0.102698415517807,-0.15646743774414062,-0.2247472107410431
1761315752558079000,6.283078857421875,0.12075246125459671,-0.1162041649222374,-0.1878909170627594
1761315752568062000,6.29306201171875,0.12779439985752106,-0.15121781826019287,-0.1912398338317871
1761315752578044000,6.3030439453125,0.09488827735185623,-0.25171831250190735,-0.2550369203090668
1761315752588026000,6.313026123046875,0.044364120811223984,-0.341743528842926,-0.3628062605857849
1761315752598007800,6.3230078125,-0.000054817995987832546,-0.38996946811676025,-0.48772498965263367
1761315752607991000,6.332990966796875,-0.03069208934903145,-0.39692962169647217,-0.5859876871109009
1761315752617973000,6.342972900390625,-0.05943647027015686,-0.33424216508865356,-0.6474663019180298
1761315752627955000,6.352954833984375,-0.08620336651802063,-0.22672715783119202,-0.6614190936088562
1761315752637937200,6.362937255859375,-0.08871801942586899,-0.08716067671775818,-0.6193028092384338
1761315752647918800,6.3729189453125,-0.06413384526968002,0.03985879197716713,-0.5264440178871155
1761315752657902000,6.382902099609375,0.011081433854997158,0.13612377643585205,-0.39890986680984497
1761315752667884000,6.392884033203125,0.10699810832738876,0.17424026131629944,-0.2516186833381653
1761315752677866000,6.402865966796875,0.18671317398548126,0.14393721520900726,-0.09326578676700592
1761315752687848200,6.41284814453125,0.22505177557468414,0.06304050981998444,0.06321091204881668
1761315752697831000,6.422830810546875,0.2337540239095688,-0.02024795673787594,0.19521407783031464
1761315752707813000,6.432813232421875,0.22360791265964508,-0.03819073736667633,0.28801482915878296
1761315752717794800,6.442794921875,0.21909211575984955,0.0015548388473689556,0.34457969665527344
1761315752727777000,6.452777099609375,0.22624510526657104,0.09251777082681656,0.3540131449699402
1761315752737760000,6.462760009765625,0.23273581266403198,0.18667222559452057,0.3317912220954895
1761315752747742000,6.472741943359375,0.23583173751831055,0.21902696788311005,0.2987475097179413
1761315752757724200,6.48272412109375,0.2532578110694885,0.1862937957048416,0.2859398126602173
1761315752767705900,6.492705810546875,0.2708203196525574,0.13703623414039612,0.3059785068035126
1761315752777688000,6.50268798828125,0.2798860967159271,0.11569854617118835,0.35237884521484375
1761315752787671000,6.512671142578125,0.25125735998153687,0.1135280653834343,0.41006505489349365
1761315752797653000,6.522653076171875,0.19125424325466156,0.11806411296129227,0.45755061507225037
1761315752807635000,6.532635009765625,0.10247058421373367,0.09336861968040466,0.4886568486690521
1761315752817617000,6.542616943359375,-0.006650046445429325,0.06706670671701431,0.49932095408439636
1761315752827600100,6.55260009765625,-0.12460225075483322,0.05437887832522392,0.49446389079093933
1761315752837582000,6.56258203125,-0.23555435240268707,0.06708093732595444,0.4625578224658966
1761315752847564000,6.57256396484375,-0.3336268663406372,0.08299359679222107,0.4098847508430481
1761315752857546000,6.5825458984375,-0.3974531590938568,0.11103127151727676,0.34632885456085205
1761315752867528000,6.59252783203125,-0.4291895031929016,0.14515116810798645,0.2694125175476074
1761315752877511000,6.602510986328125,-0.4422333538532257,0.16915369033813477,0.17376667261123657
1761315752887492900,6.612492919921875,-0.4364428222179413,0.2055487036705017,0.0728621780872345
1761315752897475000,6.62247509765625,-0.40918201208114624,0.24537263810634613,-0.010849141515791416
1761315752907457000,6.63245703125,-0.38218051195144653,0.28394588828086853,-0.06935612857341766
1761315752917440000,6.64243994140625,-0.3574826419353485,0.35866227746009827,-0.10092515498399734
1761315752927422000,6.652421875,-0.3453117311000824,0.4169436991214752,-0.13370174169540405
1761315752937404000,6.66240380859375,-0.3342908024787903,0.45007121562957764,-0.1732013076543808
1761315752947386000,6.67238623046875,-0.3187645673751831,0.47093653678894043,-0.22640646994113922
1761315752957367800,6.682367919921875,-0.3029039204120636,0.4383312165737152,-0.2966243028640747
1761315752967351000,6.69235107421875,-0.2865300178527832,0.3584587574005127,-0.3144685626029968
1761315752977333000,6.7023330078125,-0.33354422450065613,0.18408599495887756,-0.02785150334239006
1761315752987315000,6.71231494140625,-0.26781100034713745,-0.27729332447052,-0.08942512422800064
1761315752997297200,6.722297119140625,-0.1404314786195755,-0.33801013231277466,-0.15079370141029358
1761315753007280000,6.732280029296875,-0.03861883282661438,-0.24619874358177185,-0.17762744426727295
1761315753017262000,6.742261962890625,0.006405282765626907,-0.2223987579345703,-0.17952527105808258
1761315753027244000,6.752244140625,0.009534496814012527,-0.16159506142139435,-0.1930011361837387
1761315753037226000,6.76222607421875,-0.035905491560697556,-0.10643924027681351,-0.23169414699077606
1761315753047208200,6.772208251953125,-0.10284590721130371,-0.07915941625833511,-0.27202850580215454
1761315753057191000,6.78219091796875,-0.15443900227546692,-0.04297872260212898,-0.27622729539871216
1761315753067173000,6.792173095703125,-0.18209166824817657,-0.0214859452098608,-0.2624363899230957
