time,seconds_elapsed,z,y,x
1761315754125414700,0.07341455078125,-1.5470722056120634,-1.449672007959336,-0.1188349258747883
1761315754135396600,0.083396728515625,-1.723798891827464,-1.4047696209155023,-0.26893402793277055
1761315754145378600,0.093378662109375,-2.005439658457041,-1.2893266938328742,-0.3615444705583155
1761315754155360500,0.103360595703125,-2.273523024377227,-1.0810789340637623,-0.43303968097344037
1761315754165343500,0.113343505859375,-2.5596599333822727,-0.8096854206822812,-0.4516004429280758
1761315754175325700,0.12332568359375,-2.77173441183269,-0.46653512334004044,-0.3916089155629277
1761315754185307400,0.133307373046875,-2.90653685003221,-0.17388386400491,-0.1870327569786459
1761315754195289000,0.1432890625,-2.9265087939590213,0.04818550036773085,0.04451013632323593
1761315754205272300,0.153272216796875,-2.8518595034271477,0.21335282782316206,0.23457477181106803
1761315754215254000,0.16325390625,-2.70591841609776,0.32666780296638603,0.30669268070179967
1761315754225236200,0.173236328125,-2.386999181431532,0.4167416032537818,0.26925829145107416
1761315754235218200,0.18321826171875,-1.9874334616452454,0.47414720577895636,0.15100861811833455
1761315754245201200,0.193201171875,-1.5436644429951905,0.5149320745013654,0.00885366173153743
1761315754255183000,0.20318310546875,-1.0756471182733773,0.5875108423694968,-0.07128691969299689
1761315754265165000,0.2131650390625,-0.6157640001684427,0.6960057038798928,-0.04464722497267648
1761315754275147300,0.223147216796875,-0.2030868698745966,0.830412420760095,0.013850337507668882
1761315754285129000,0.23312890625,0.20104805752336977,0.9661413261547684,0.06914033611835911
1761315754295112200,0.2431123046875,0.5903998418092727,1.0821689212575554,0.03950323141403496
1761315754305094100,0.25309423828125,0.9150479755163192,1.129059851770103,-0.04715241272663697
1761315754315076000,0.263076171875,1.1565157217115163,1.1142708634391427,-0.19660282335123047
1761315754325058300,0.273058349609375,1.3478010946333407,1.0841568802043795,-0.3259298440806567
1761315754335041000,0.283041015625,1.419980195659399,1.0452584097504616,-0.46568858951330183
1761315754345023200,0.293023193359375,1.4931792873829601,0.9882096578389405,-0.6469772498819977
1761315754355005000,0.3030048828125,1.5434247890204191,0.9339388462081551,-0.7655925964556634
1761315754364987100,0.312987060546875,1.5352052422076463,0.8973892769679427,-0.8868183447234332
1761315754374969300,0.32296923828125,1.562766618350148,0.8467448391407728,-0.9950183149404823
1761315754384952000,0.3329521484375,1.5562036065727471,0.842266524682939,-1.0697106408964843
1761315754394934300,0.342934326171875,1.472597687125206,0.8935457532823086,-1.122877363742888
1761315754404916000,0.352916015625,1.2915589829295873,0.977591233190894,-1.1417379854269325
1761315754414898200,0.362898193359375,1.0631541319251059,1.0644921025305987,-1.138298804758489
1761315754424881200,0.372881103515625,0.8561649939149618,1.1667083221629262,-1.0301217770256101
1761315754434863000,0.382863037109375,0.6996171723753214,1.308295890457928,-0.8635615339070558
1761315754444845300,0.39284521484375,0.6020020167976617,1.4188792486801742,-0.7023680785186588
1761315754454827000,0.402826904296875,0.583785976627469,1.4628627673134207,-0.5437033378902822
1761315754464809200,0.412809326171875,0.681655983749032,1.4557240014746784,-0.3616415377246216
1761315754474792200,0.422792236328125,0.8967050940960645,1.4231436281263827,-0.17141762002184985
1761315754484774100,0.432774169921875,1.2047142276912928,1.3275479956775902,0.003440824636258185
1761315754494756000,0.442756103515625,1.5093646985083817,1.182449204391241,0.11217621690426022
1761315754504738000,0.452738037109375,1.7199907317161558,0.9738391871809959,0.14888247454352677
1761315754514721300,0.46272119140625,1.8398574665904044,0.7603557187154889,0.12503149722628296
1761315754524703000,0.472702880859375,1.8733885647922752,0.5855939028322696,0.06835066531170159
1761315754534685200,0.482685302734375,1.8197288707971573,0.4698112224012613,-0.007526486514694989
1761315754544667100,0.492667236328125,1.7356097411304712,0.37532208988964555,-0.05093903685957193
1761315754554649000,0.502649169921875,1.6401146464467047,0.30485622252225875,-0.0407922483112663
1761315754564632000,0.512632080078125,1.4995178427547216,0.26391221771538254,-0.000460822444781661
1761315754574614000,0.522614013671875,1.3303636376202106,0.20872487576156853,0.021749036601930855
1761315754584596200,0.53259619140625,1.1920628359109162,0.14406477206349372,-0.007330141958687454
1761315754594578000,0.542577880859375,1.123378591263294,0.06454641419053077,-0.06073564199702814
1761315754604561200,0.55256103515625,1.076546697461605,-0.0678586074784398,-0.10664530638726427
1761315754614543000,0.562543212890625,1.02855043605566,-0.2334220946446061,-0.1343345649594441
1761315754624525000,0.572525146484375,0.9754320093303919,-0.3839782745540142,-0.16510173313962295
1761315754634507300,0.58250732421875,0.8964455663770436,-0.5172711849734187,-0.1942848287324421
1761315754644489000,0.592489013671875,0.8033914351046085,-0.6118474112465977,-0.18492875217041
1761315754654472200,0.60247216796875,0.7229998015284538,-0.6790683053433895,-0.16837260803645476
1761315754664454100,0.6124541015625,0.6631529433310032,-0.7743310525760054,-0.1437885489379987
1761315754674436000,0.62243603515625,0.576243890684843,-0.9016612551987171,-0.09108553461320698
1761315754684418300,0.632418212890625,0.48606443806588645,-1.0336793233767152,-0.055356487975642084
1761315754694401000,0.642401123046875,0.44888592327237126,-1.1495140262559056,-0.010109196484275162
1761315754704383200,0.65238330078125,0.5080617503404617,-1.2579767390623688,0.04086282932944595
1761315754714365200,0.662365234375,0.6641156508833169,-1.362489545199275,0.10001122040133922
1761315754724347100,0.67234716796875,0.8234107253044843,-1.4801982252568007,0.17751009167805312
1761315754734330000,0.682330078125,0.9407540791809559,-1.582513813610375,0.26616708397008476
1761315754744312000,0.69231201171875,0.9334498936474322,-1.6797022682085632,0.3262421249002218
1761315754754294300,0.702294189453125,0.8071826440811157,-1.7526733963951469,0.3738937741195783
1761315754764276000,0.71227587890625,0.6619622722417116,-1.8179998550474643,0.39775801277719436
1761315754774258200,0.722258056640625,0.4823205753624439,-1.906673871539533,0.38438407887592907
1761315754784241200,0.7322412109375,0.3042430590599775,-1.9876972271479665,0.35973986882176245
1761315754794223000,0.74222314453125,0.08297054415345191,-2.0139007589407263,0.3279426817404106
1761315754804205000,0.752205078125,-0.20292846444249152,-2.0083594914264977,0.2875015849543735
1761315754814187000,0.76218701171875,-0.5024865805566311,-1.9869863023996353,0.26437453799750654
1761315754824170200,0.772170166015625,-0.8113321649760007,-1.9355400466702877,0.23583938491940498
1761315754834152200,0.782152099609375,-1.0893179162293671,-1.869736618155986,0.22172931876331567
1761315754844134100,0.792134033203125,-1.349503222376108,-1.7953401333414016,0.2291265894077718
1761315754854116000,0.8021162109375,-1.5434855792969464,-1.6847851244308054,0.2256220884181559
1761315754864098000,0.81209814453125,-1.702743244317174,-1.574129577755183,0.30709282246790826
1761315754874081000,0.8220810546875,-1.8778326847195623,-1.4917809648923575,0.4143241303158924
1761315754884063200,0.832063232421875,-2.0693945364952087,-1.4786591791212558,0.5518719582334161
1761315754894045200,0.842045166015625,-2.1064491326481103,-1.605360582321137,0.913288710758835
1761315754904027100,0.852027099609375,-1.8836013312488793,-1.8208279180802405,1.3100513558231293
1761315754914010000,0.862010009765625,-1.6089327417194843,-1.9043295003704725,1.498722308462858
1761315754923992000,0.871991943359375,-1.439641173940897,-1.9152987842828033,1.4840294739827513
1761315754933974000,0.88197412109375,-1.4726421107888221,-1.9543160588108002,1.385285314375162
1761315754943956200,0.891956298828125,-1.7444564799308775,-1.9285338211700318,1.1801274834454059
1761315754953938200,0.901938232421875,-2.1838374927550555,-1.7547613085851073,0.895663476088643
1761315754963921200,0.911921142578125,-2.846978161126375,-1.4869884699188172,0.6055289488147944
1761315754973903000,0.921903076171875,-3.5366000091880556,-1.1487431880138814,0.36072453247755765
1761315754983885000,0.931885009765625,-3.902745105409622,-0.6708731623195111,0.1994846806641668
1761315754993867300,0.9418671875,-3.987735172691941,-0.225098795196414,0.2227201381652616
1761315755003850200,0.951850341796875,-3.8670834249198434,0.13411840145811438,0.3279118116781115
1761315755013832200,0.961832275390625,-3.5597868235081433,0.43615649781972166,0.484431576167047
1761315755023814100,0.971814208984375,-3.1124726795971394,0.6613740970902144,0.647441068001464
1761315755033796000,0.981796142578125,-2.603290985316038,0.847934341186285,0.8099477248802781
1761315755043778300,0.9917783203125,-2.040083686336875,1.0362668556518853,0.8842338081229477
1761315755053761300,1.00176123046875,-1.395308111217618,1.2146079913266001,0.8854199491675943
1761315755063743200,1.0117431640625,-0.7264461425900459,1.3099766831517219,0.8855926023207604
1761315755073725200,1.02172509765625,-0.1101589953303337,1.2907473742857574,0.9405629405230284
1761315755083707100,1.03170703125,0.48160395152568813,1.1887652556702495,1.0204737317796797
1761315755093690000,1.041690185546875,1.0429027865350247,1.084898053960502,1.0851520287215708
1761315755103672000,1.051672119140625,1.5045494071811436,1.0507678208217024,1.0617764138311148
1761315755113654000,1.061654052734375,1.782097351539135,1.0500646409884093,1.0432613907143473
1761315755123636200,1.07163623046875,1.8808429724514484,1.0231950465023516,1.0391292593456805
1761315755133618200,1.0816181640625,1.8675503601580856,1.016200657570362,1.0415891466531901
1761315755143601200,1.09160107421875,1.7793840009272097,1.0425529501840471,1.0489123291481286
1761315755153583000,1.1015830078125,1.651845416250825,1.1182286611542105,1.0616570252351463
1761315755163565000,1.11156494140625,1.5036018971979617,1.2120137370496988,1.0379910490959883
1761315755173547000,1.121547119140625,1.246758302694559,1.2868565043270588,0.9561392798393964
1761315755183530000,1.131530029296875,0.9234107301920652,1.3668915795505046,0.8766539474532008
1761315755193512700,1.1415126953125,0.5716892961204052,1.4844061983406542,0.7949084150500595
1761315755203494700,1.15149462890625,0.22489479705691337,1.5758093475356698,0.7136066078264266
1761315755213476600,1.1614765625,-0.12096972768008708,1.6516668448135257,0.7128697449192404
1761315755223458600,1.17145849609375,-0.4110656034439802,1.7680185573041438,0.7380829505003988
1761315755233441500,1.181441650390625,-0.6301742183148861,1.873931585627794,0.7345155403424054
1761315755243423700,1.191423828125,-0.8056669788211583,1.9720932691723108,0.7141225214593112
1761315755253405700,1.20140576171875,-0.8587585175395012,2.0403063891768456,0.6672087215278297
1761315755263387600,1.2113876953125,-0.7540536959618329,2.1109806385979053,0.6188691265769303
1761315755273369600,1.22136962890625,-0.4593441889226436,2.136597018152475,0.6074721187718213
1761315755283352600,1.2313525390625,-0.05485854839086532,2.1000141311645506,0.6216698632113635
1761315755293334800,1.241334716796875,0.34478491280674933,1.9930019094273448,0.5848026063241064
1761315755303316500,1.25131640625,0.6739882256001234,1.835259325145185,0.4981837687961757
1761315755313298700,1.261298583984375,1.0111761074066161,1.6800316462934015,0.38406653735935686
1761315755323281400,1.271281494140625,1.3067659044116735,1.525548940590024,0.2571759682629257
1761315755333263600,1.281263671875,1.5834306361943482,1.3456655439093708,0.10948133353078737
1761315755343245800,1.291245849609375,1.78816761136353,1.1169143636852503,-0.010387301039602607
1761315755353227500,1.3012275390625,1.8454583553373813,0.9547583468750118,-0.08701092385174707
1761315755363209700,1.311209716796875,1.951283120855689,0.8637292916893958,-0.1670193667965941
1761315755373192400,1.3211923828125,1.944147277626395,0.7925695968389511,-0.1924678607046604
1761315755383174700,1.331174560546875,1.7881477376192807,0.7127429036691785,-0.18730209370562806
1761315755393156600,1.341156494140625,1.474057822805643,0.6318517961382866,-0.15799489680910483
1761315755403138600,1.351138671875,1.1096458339869975,0.6323711438372731,-0.11226444317698478
1761315755413121800,1.361121826171875,0.8153858242809772,0.6679255645602941,-0.07182555661434308
1761315755423103500,1.371103515625,0.6361719974249601,0.6556134877368808,-0.04877862568898126
1761315755433085700,1.381085693359375,0.5474357293516398,0.5804194228038192,-0.0662110412008129
1761315755443067600,1.391067626953125,0.5047872587144374,0.4262389149174094,-0.13986576773738488
1761315755453049600,1.401049560546875,0.46976504517197604,0.24488486116230487,-0.3034859022834338
1761315755463032800,1.41103271484375,0.44064650271534916,0.07207973230481148,-0.4711202957058325
1761315755473014500,1.4210146484375,0.4007639896601438,-0.11274667373597622,-0.5769380104288458
1761315755482996700,1.430996826171875,0.3025309944450855,-0.25893413704186674,-0.6318786841452121
1761315755492978700,1.440978759765625,0.1706523347377777,-0.3986278544142842,-0.6527231000576168
1761315755502961700,1.450961669921875,0.03057517100572586,-0.5224748910963535,-0.6532338260587305
1761315755512943900,1.46094384765625,-0.05191255806684494,-0.5990145254194736,-0.6434490757558494
1761315755522925600,1.470925537109375,-0.09797346749603748,-0.6877803118482232,-0.6630096624027937
1761315755532907800,1.48090771484375,-0.14669628961086273,-0.8174418800279497,-0.6584740647997707
1761315755542889500,1.490889404296875,-0.19972996066212653,-0.9662667061001062,-0.6599819851446896
1761315755552872700,1.500872802734375,-0.24719021549522877,-1.0831854048237204,-0.7027474332250654
1761315755562854700,1.510854736328125,-0.31712007628977296,-1.1527388335213065,-0.7696405566722154
1761315755572836600,1.520836669921875,-0.4487625891536474,-1.1880699668824672,-0.8401732056654989
1761315755582818800,1.53081884765625,-0.6375076299428939,-1.2107611066401005,-0.8994311580590904
1761315755592801500,1.540801513671875,-0.8248702764630317,-1.2102011346697807,-0.9369967724740504
1761315755602783700,1.55078369140625,-1.0146686256974935,-1.157508532141149,-0.9451749643631279
1761315755612765400,1.560765380859375,-1.167570199689269,-1.0754194469973444,-0.9299863091900944
1761315755622747600,1.57074755859375,-1.3161696925729511,-0.9973094946175813,-0.8866018524285405
1761315755632729600,1.5807294921875,-1.4075567674160003,-0.9884618790343404,-0.7506457141492515
1761315755642712600,1.590712646484375,-1.3468506620407104,-1.1663292597174644,-0.441906585779041
1761315755652694800,1.60069482421875,-0.9936930576860904,-1.3910048610657453,-0.13588521020123734
1761315755662676500,1.610676513671875,-0.5849935988515615,-1.5149252552449701,0.01726179905212484
1761315755672658700,1.62065869140625,-0.41456864312887187,-1.5142492556795477,-0.0026175620872527358
1761315755682641700,1.6306416015625,-0.6009475393086672,-1.446040227328241,-0.12506943635018541
1761315755692623600,1.64062353515625,-1.1253571978598833,-1.31100602619946,-0.3000249664409086
1761315755702605800,1.650605712890625,-1.8318676368802784,-1.0272238636270166,-0.5662739565407857
1761315755712587500,1.66058740234375,-2.507643914940953,-0.6256266380131245,-0.7977700880914926
1761315755722569700,1.67056982421875,-2.9075036492377517,-0.2026812116831541,-0.8474075408332049
1761315755732552400,1.680552490234375,-3.083723554974794,0.10472820245325565,-0.7662221995960921
1761315755742534700,1.69053466796875,-3.0017262397676703,0.3866720436826348,-0.5769520389541983
1761315755752516900,1.700516845703125,-2.7354350179612634,0.6001660335421561,-0.3924668475665152
1761315755762498600,1.71049853515625,-2.3428496585816143,0.7207233810290694,-0.25734431056715545
1761315755772481800,1.720481689453125,-1.9844617523580788,0.793589879797399,-0.22304767135288564
1761315755782463500,1.73046337890625,-1.6634177806228398,0.8434624564692378,-0.27796277223657817
1761315755792445700,1.74044580078125,-1.3424439515143631,0.8444725102946161,-0.36077929487209764
1761315755802427600,1.750427734375,-0.946236894506216,0.8167024598374962,-0.3638763475719839
1761315755812409600,1.76040966796875,-0.5250158077508211,0.7854927903205156,-0.28044308127760886
1761315755822392600,1.770392578125,-0.14930910245776174,0.7731839283674955,-0.16360555803142487
1761315755832374500,1.78037451171875,0.2197860757410526,0.7696519548490643,-0.023100104151014236
1761315755842356700,1.790356689453125,0.5717284590870142,0.7619868270486593,0.03510687788492069
1761315755852338400,1.80033837890625,0.812829125535488,0.7422901929318905,-0.02612606437606737
1761315755862321700,1.81032177734375,1.0123901593714952,0.6907882614925503,-0.19087631719689815
1761315755872303600,1.8203037109375,1.1248773053884507,0.5970362110838293,-0.3713400710487738
1761315755882285600,1.83028564453125,1.1173843192845583,0.5049547242358327,-0.6015292847193777
1761315755892267800,1.840267822265625,1.0778834990233181,0.41698856375217436,-0.8510833798017352
1761315755902249500,1.85024951171875,1.030631918504834,0.35460371150970454,-1.0616615552797912
1761315755912232700,1.860232666015625,0.9846949277162551,0.3613604922935366,-1.2814338947564363
1761315755922214700,1.870214599609375,0.8787766386955976,0.3850841899693012,-1.4530959910586476
1761315755932196600,1.880196533203125,0.7304062783926725,0.4112783694118261,-1.5500775249078869
1761315755942178800,1.8901787109375,0.5810135893046856,0.5016550981685519,-1.5328566332548856
1761315755952160500,1.900160400390625,0.41975569037795063,0.6649766516268253,-1.3661588813617824
1761315755962143700,1.910143798828125,0.3706926765233278,0.8643029999241232,-1.078545031671971
1761315755972125400,1.92012548828125,0.5351034865230322,1.0642477723807096,-0.7313877637106925
1761315755982107600,1.930107666015625,0.8433879299283027,1.1700044410988688,-0.3981714889489114
1761315755992089900,1.94008984375,1.2346534388810395,1.1717036462321877,-0.1310215862202458
1761315756002072600,1.950072509765625,1.6021137093544005,1.0786834172293542,0.03205666000144556
1761315756012054800,1.9600546875,1.8511258795797825,0.9556973812907934,0.09074490448199211
1761315756022036500,1.970036376953125,2.0413281334400177,0.818213448922336,0.1079418398706708
1761315756032018700,1.980018798828125,2.1827502820402382,0.6883262552931905,0.09332192449630237
1761315756042000600,1.990000732421875,2.304285826909542,0.5323951043471694,0.10867002628105692
1761315756051983600,1.999983642578125,2.374883796223998,0.37895986187011,0.10476207732339389
1761315756061965800,2.0099658203125,2.337292608976364,0.20851766275167463,0.04124664101526141
1761315756071947500,2.019947509765625,2.1966221555262804,0.07630231843590736,0.037164513667626305
1761315756081929700,2.0299296875,2.004827079516649,0.01728314323425293,0.05023695300482213
1761315756091912700,2.03991259765625,1.7467863841831683,0.037053427109122274,0.02022580909002572
1761315756101894700,2.049894775390625,1.4203934526354074,0.06089665951132774,-0.039076777029735964
1761315756111876600,2.059876708984375,1.0702034659147261,0.06218026958107948,-0.09704341097115539
1761315756121858600,2.069858642578125,0.7711626516729593,0.05989625029712915,-0.18663990346984938
1761315756131840800,2.0798408203125,0.5186141240149736,0.03107785983085632,-0.27349733552662653
1761315756141823500,2.089823486328125,0.22823826226592062,-0.05340162758082151,-0.36772045577950774
1761315756151805700,2.0998056640625,0.01229249534010887,-0.12068477325886487,-0.40896724292524156
1761315756161787600,2.10978759765625,-0.11177227574586868,-0.1420230371028185,-0.3977285674870014
1761315756171769600,2.11976953125,-0.17651508929133414,-0.14611907424479723,-0.3501042081333697
1761315756181752600,2.129752685546875,-0.1669698468327522,-0.1989715435102582,-0.26837453088648616
1761315756191733800,2.139733642578125,-0.00512041175365448,-0.2919502714589238,-0.1404457595824264
1761315756201716000,2.149716064453125,0.3030190702229738,-0.44618017144501204,0.0170833006800618
1761315756211698000,2.159697998046875,0.7104086155027151,-0.6597951573356986,0.14368255867972038
1761315756221679900,2.169679931640625,1.073866664597392,-0.920023279710859,0.22874113375414162
1761315756231663000,2.1796630859375,1.3025298742771148,-1.1514818191975353,0.2622295801243745
1761315756241644800,2.189644775390625,1.4313824641615152,-1.3298784844517708,0.27458030845774334
1761315756251627000,2.199626953125,1.4329501518696546,-1.5211650264173746,0.25983304037665944
1761315756261609000,2.20960888671875,1.3409247791230678,-1.6846087449505924,0.23316769975842908
1761315756271592000,2.219592041015625,1.249380467891693,-1.810827479200065,0.15420567886028438
1761315756281574000,2.229573974609375,1.1124755044549703,-1.948235715983808,0.06418645830433815
1761315756291555800,2.239555908203125,0.8539940796166657,-2.0907532586053015,0.04492898278981447
1761315756301538000,2.2495380859375,0.48289691394567485,-2.1986798187084493,0.10021989471595734
1761315756311519700,2.259519775390625,0.028841479080915448,-2.233946508531272,0.1280736779337749
1761315756321503000,2.2695029296875,-0.4578425521880388,-2.156140215273201,0.14495339146628974
1761315756331484700,2.279484619140625,-0.9326286403924227,-2.010609900701791,0.17533519532438366
1761315756341467000,2.289466796875,-1.3589701389014721,-1.854410161947459,0.24700590843688694
1761315756351448800,2.29944873046875,-1.711730268371105,-1.6811726330220698,0.38282227291930465
1761315756361431800,2.309431884765625,-1.9960019680261611,-1.5346008465737104,0.5749961556460708
1761315756371414000,2.3194140625,-2.1634522918522356,-1.534917511307448,0.9044001055780798
1761315756381395700,2.329395751953125,-2.0802233890235424,-1.6886990830041466,1.3112006719887255
1761315756391378000,2.3393779296875,-1.667473778015375,-1.843386517499387,1.591424557557702
1761315756401360000,2.34935986328125,-1.1859475679010152,-1.958630853269994,1.8031003920793531
1761315756411342800,2.3593427734375,-0.9369669618576765,-2.0281061021648346,1.9722078354626893
1761315756421325000,2.369324951171875,-1.0727139874309302,-1.9387204302720724,1.9504449164658784
1761315756431306800,2.379306640625,-1.6502677916705608,-1.6521376771956682,1.7325567833006381
1761315756441289000,2.3892890625,-2.6433155371904373,-1.3203317806884645,1.4544560273654759
1761315756451271700,2.399271728515625,-3.732266958194971,-0.8932619679048657,1.2045072338771075
1761315756461254000,2.40925390625,-4.573787340685725,-0.3851524328999221,1.1090068054310978
1761315756471236000,2.419236083984375,-5.140595879027247,0.005040332254767418,1.1598866594493389
1761315756481217800,2.4292177734375,-5.2806029001325365,0.3644545127861202,1.2472500317342579
1761315756491200000,2.439199951171875,-4.953037417674064,0.7072451830357313,1.2795410667471587
1761315756501182700,2.4491826171875,-4.2143934722900385,0.9098837246209383,1.233555706772208
1761315756511165000,2.4591650390625,-3.265315801399946,0.8948675034053624,1.189210807480663
1761315756521147000,2.46914697265625,-2.366000817066431,0.7786500848188996,1.116960687045008
1761315756531128800,2.47912890625,-1.698768495467305,0.7139722993336618,0.9970507706161588
1761315756541112000,2.489112060546875,-1.283392627608776,0.747750942555815,0.9153902130827307
1761315756551093800,2.49909375,-0.9169406573951244,0.8214160443559289,0.8552882110804318
1761315756561076000,2.509075927734375,-0.4587134898036718,0.8840515103586017,0.8493449386365711
1761315756571058000,2.519057861328125,0.13009820603132247,0.8956031242035328,0.9125196260824799
1761315756581039900,2.529039794921875,0.8032096487969159,0.853548820067197,1.0009035735867917
1761315756591022800,2.53902294921875,1.4871020132958888,0.8059192000165581,0.9723739369340241
1761315756601004800,2.5490048828125,2.076714504119754,0.7174409983575344,0.9108360569097101
1761315756610987000,2.558987060546875,2.4779092864125967,0.5762710709527135,0.9035138973280787
1761315756620968700,2.56896875,2.652138895115256,0.4555497650757432,0.8884167198307812
1761315756630951000,2.578950927734375,2.7179759336382148,0.4341819828763604,0.8400634616807102
1761315756640934000,2.588933837890625,2.6185236257612705,0.5001487852588296,0.8072937763053923
1761315756650915800,2.598915771484375,2.3027853592187166,0.6233490484699606,0.7879720399156213
1761315756660898000,2.60889794921875,1.7874585863113401,0.7879433983430266,0.8091938377730548
1761315756670879700,2.618879638671875,1.1565583918094635,0.9776520234674215,0.8118694136578589
1761315756680863000,2.628863037109375,0.5175900416642427,1.1864470418557524,0.8614249602697789
1761315756690844700,2.6388447265625,-0.015720131701231002,1.3822592445522546,1.0340964528102428
1761315756700827000,2.648826904296875,-0.5480658439487218,1.574984587149322,1.2361232191726566
1761315756710809000,2.65880908203125,-0.9530728780061006,1.8315566712349651,1.3819932870924472
1761315756720790800,2.668790771484375,-1.1860504437536001,2.0424442779883742,1.4988506110176443
1761315756730774000,2.67877392578125,-1.2102981653034686,2.2034493711978196,1.5795619780674577
1761315756740755700,2.688755615234375,-1.0817512803673743,2.2626658225372434,1.5648163904868064
1761315756750738000,2.698738037109375,-0.8960796556740999,2.1923037078052756,1.4886894286178052
1761315756760720000,2.708719970703125,-0.6109826111108064,2.049585966436565,1.3367099379070102
1761315756770702800,2.718702880859375,-0.2732996392637491,1.8817402135521173,1.1091193989600985
1761315756780685000,2.72868505859375,0.12477438066005705,1.697821277745068,0.8773623879835009
1761315756790666800,2.738666748046875,0.56166533023417,1.5045087829098105,0.7436845698997377
1761315756800649000,2.74864892578125,0.9766022221535444,1.3357140587374567,0.6876854731716215
1761315756810631000,2.758630859375,1.3155284720599651,1.21795160266608,0.6825430687818675
1761315756820614000,2.76861376953125,1.5516916821062563,1.10835462513268,0.6668795626387
1761315756830596000,2.77859619140625,1.721920822995901,1.0155597293183207,0.6517096121661364
1761315756840577800,2.788577880859375,1.8092507314026354,0.9708055185735225,0.6793902307741344
1761315756850560000,2.79856005859375,1.7943454232156275,0.8943421643570065,0.678630425382778
1761315756860542700,2.808542724609375,1.6479074922800063,0.8143962287217378,0.6469209896501154
1761315756870525000,2.81852490234375,1.488821092173457,0.7865615885958075,0.5548137838389724
1761315756880507000,2.8285068359375,1.3375538413852452,0.7298419225081801,0.42795930896922946
1761315756890488800,2.83848876953125,1.166639640840888,0.633158202561736,0.354396608097665
1761315756900471000,2.848470947265625,1.0479629925340412,0.55220045953542,0.3481609651111066
1761315756910453800,2.858453857421875,1.019962640452385,0.5246367453053593,0.3426906074086204
1761315756920436000,2.86843603515625,1.0135054271370172,0.5091071677401662,0.3221288078298792
1761315756930417700,2.878417724609375,0.9133324037700891,0.4448451234489679,0.29813593782391395
1761315756940399900,2.88839990234375,0.7502560572445393,0.35643443406820297,0.23951648426325992
1761315756950382800,2.8983828125,0.5336421817988157,0.22733722177296875,0.12655872505987062
1761315756960364800,2.90836474609375,0.3655278411060571,0.04048340155780315,0.007779895020183176
1761315756970347000,2.918346923828125,0.2889554735571146,-0.13897387866526842,-0.08645379229248501
1761315756980328700,2.92832861328125,0.26623510770499703,-0.30056612411290407,-0.18870171310417352
1761315756990311000,2.938310791015625,0.23865385781824588,-0.4989359023377299,-0.27210352481435984
1761315757000294000,2.9482939453125,0.13030980295538902,-0.7583695133343339,-0.30213235051631926
1761315757010275800,2.95827587890625,-0.05073299289345741,-1.015628118379414,-0.3353725029475987
1761315757020258000,2.968258056640625,-0.28061376166939733,-1.177870644429326,-0.414588078481704
1761315757030239700,2.97823974609375,-0.40615269696116446,-1.2360039767071604,-0.5093099237706512
1761315757040222000,2.988221923828125,-0.47664252972602844,-1.26822253100574,-0.6615032764278352
1761315757050205000,2.998204833984375,-0.6227262403964996,-1.3298700088843702,-0.8186513288829476
1761315757060187000,3.008186767578125,-0.8721627735137939,-1.369942199292779,-0.9063234017908572
1761315757070169000,3.018169189453125,-1.1536334442734717,-1.3317752579838036,-0.9747736915521323
1761315757080150800,3.02815087890625,-1.4268565111696718,-1.1975561726301909,-1.024805696569383
1761315757090134000,3.038134033203125,-1.6855530400633811,-1.0362561881273984,-1.0284077396493405
1761315757100115700,3.04811572265625,-1.9199165072113273,-0.9150269327282905,-0.9752562143720686
1761315757110098000,3.058097900390625,-2.1593144613951445,-0.839825269010663,-0.9137797091461718
1761315757120080000,3.068079833984375,-2.315653024098277,-0.7935615304857492,-0.8007238233305514
1761315757130062800,3.078062744140625,-2.363506662163138,-0.9083448246158659,-0.6212300835546106
1761315757140044800,3.088044921875,-2.1244015534460545,-1.1450417031474411,-0.3722756713984534
1761315757150026800,3.09802685546875,-1.561395914518833,-1.3961591750890017,-0.18554916735738514
1761315757160009000,3.108009033203125,-0.9995195718824863,-1.6101012009769677,-0.05372877717595547
1761315757169990700,3.11799072265625,-0.6171639300942421,-1.674866080223769,-0.07010704855893272
1761315757179974000,3.127973876953125,-0.5242331329405308,-1.6609854389093814,-0.22222923110947013
1761315757189955800,3.137955810546875,-0.7537322089225054,-1.5773152220539748,-0.43276893774066116
1761315757199937800,3.147937744140625,-1.230491643026471,-1.4237171902306378,-0.6570395750172436
1761315757209920000,3.157919921875,-1.8744564862847326,-1.1814724683135747,-0.8615843886151909
1761315757219901700,3.167901611328125,-2.5175240884423253,-0.8653685833290219,-0.9662480744648724
1761315757229885000,3.177885009765625,-2.9907337211102245,-0.5348142943181097,-0.8545440416496246
1761315757239867000,3.187866943359375,-3.283049611011147,-0.22950506733134388,-0.587201082300581
1761315757249848800,3.197848876953125,-3.311545637655258,0.1328263158209622,-0.27532782062310723
1761315757259831000,3.2078310546875,-3.080305855485797,0.44437896724194287,-0.08320068138120695
1761315757269813800,3.217813720703125,-2.6033243030637503,0.6620030426435172,-0.0037517354826442895
1761315757279796000,3.2277958984375,-1.9761369916051625,0.7395417710065841,-0.06276751315081491
1761315757289778000,3.23777783203125,-1.34233815305233,0.7177521101333201,-0.16426181171676144
1761315757299759900,3.247759765625,-0.7369640294730663,0.6643497519001365,-0.2734050723996013
1761315757309742000,3.2577421875,-0.2384785012513399,0.653060734514147,-0.33076011378131803
1761315757319724800,3.267724853515625,0.1801853022366762,0.7036984503395854,-0.38269046323318034
1761315757329707000,3.27770703125,0.5603460643291474,0.7598239499263465,-0.38361134093776345
1761315757339688700,3.287688720703125,0.9008364948123693,0.8269377303868531,-0.32877610035724936
1761315757349671000,3.2976708984375,1.1726683996111154,0.8376803659364581,-0.25204521777834743
1761315757359654000,3.30765380859375,1.349880238994956,0.8025929782032966,-0.24617181396661325
1761315757369635800,3.3176357421875,1.4346452653497457,0.7691989503845572,-0.3312793153498322
1761315757379618000,3.3276181640625,1.4428297408491373,0.7685600679591298,-0.5193654173063114
1761315757389599700,3.337599853515625,1.39998545537889,0.7402297532707452,-0.7836508157156408
1761315757399582000,3.34758203125,1.34545248568058,0.7207479309484363,-1.0673260838475078
1761315757409565000,3.35756494140625,1.2802280260980128,0.7236082888156176,-1.2954204806633294
1761315757419547000,3.367546875,1.206615677398443,0.7467202843338251,-1.4279256017059088
1761315757429528800,3.37752880859375,1.1017015969842672,0.8451122695028781,-1.4578158591873942
1761315757439510800,3.3875107421875,0.9813274971097707,0.9984268082097172,-1.3641490028440952
1761315757449493800,3.39749365234375,0.9119944331645965,1.1463882954508064,-1.1664006444532424
1761315757459476000,3.40747607421875,0.9260685512244701,1.2890014074012637,-0.8698586612898855
1761315757469458000,3.4174580078125,1.0166980856984853,1.398741300536692,-0.505950895666331
1761315757479440000,3.42743994140625,1.145745905894041,1.47087451659441,-0.19238789080362767
1761315757489421800,3.437421875,1.3250824823468923,1.5097908149659633,0.04220385040855035
1761315757499404800,3.44740478515625,1.4806161584079265,1.4527005620002746,0.1835246575261466
1761315757509386800,3.45738671875,1.6288474025011062,1.3226090779706834,0.23088965355753896
1761315757519369000,3.467368896484375,1.7741607133209705,1.1697063349351287,0.2283885939894244
1761315757529351000,3.477350830078125,1.9197557636916636,1.020126598842442,0.2405851364080794
1761315757539334000,3.487333984375,2.110088365933299,0.8781792573243379,0.2485768658143468
1761315757549315800,3.49731591796875,2.3225270015209913,0.7585834483459591,0.28096224631350486
1761315757559297800,3.5072978515625,2.50641875706017,0.6272960325300693,0.3313774419620633
1761315757569280000,3.517280029296875,2.6378654550909992,0.47990153152197595,0.39400918163768944
1761315757579261700,3.52726171875,2.600512168252468,0.33880525387525556,0.4345230879316106
1761315757589245000,3.537244873046875,2.3480969115853307,0.22840192839503287,0.4239307110402733
1761315757599227000,3.547226806640625,2.0191309146791694,0.1600663510546088,0.39674620538614686
1761315757609208800,3.557208740234375,1.70340316953063,0.11259235995709896,0.3806258953861892
1761315757619191000,3.56719091796875,1.449578046065569,0.05835515833497047,0.3530261599946767
1761315757629174000,3.577174072265625,1.2847341053456067,-0.030847558206319806,0.3058247752934694
1761315757639156000,3.587156005859375,1.1992390111505984,-0.14402327100932596,0.28823958037272096
1761315757649138000,3.597137939453125,1.1368185030728577,-0.24820932940989732,0.2950571514330804
1761315757659119900,3.607119873046875,1.055121632117033,-0.313921572509408,0.3140561586745083
1761315757669102000,3.61710205078125,0.8215963693588971,-0.3855845407068729,0.3611805326167494
1761315757679084800,3.627084716796875,0.4727648115098476,-0.41685149336904287,0.44929158146381376
1761315757689067000,3.63706689453125,0.13515315133333206,-0.41604689898788927,0.4972298290722072
1761315757699049000,3.647049072265625,-0.1453109727323055,-0.4279240915253758,0.5566902087027207
1761315757709031000,3.657031005859375,-0.3211795808136463,-0.5082698401331901,0.620850728848204
1761315757719014000,3.667013916015625,-0.38904140316247937,-0.6307739377737045,0.7097867572773248
1761315757728995800,3.676995849609375,-0.33157062644660473,-0.8094403598800302,0.796729127671197
1761315757738977800,3.686977783203125,-0.13710662348866462,-1.0026704371288417,0.8389880144689231
1761315757748959700,3.696959716796875,0.09993979913294315,-1.2192781750947237,0.86569160473831
1761315757758942000,3.70694189453125,0.22177637277543544,-1.5066571931153534,0.8758338632419704
1761315757768925000,3.716925048828125,0.21591537178754805,-1.7856024370506405,0.8558596542928367
1761315757778907000,3.726906982421875,0.12494915270507335,-1.9865622317686675,0.8305665153432636
1761315757788888800,3.736888916015625,-0.01806523352265358,-2.1581708443179726,0.8092676336616277
1761315757798870800,3.746870849609375,-0.20374387247860432,-2.2634236551672218,0.8009170078150928
1761315757808853800,3.756853759765625,-0.48092824422121044,-2.3345962094992396,0.7413377875778824
1761315757818836000,3.7668359375,-0.8252011158525944,-2.3287580048650502,0.6518892795819788
1761315757828818000,3.77681787109375,-1.2247621594637632,-2.2011308651223778,0.5549326609782874
1761315757838800000,3.7867998046875,-1.6391653828978539,-2.0213301782891153,0.4786643178772181
1761315757848781800,3.79678173828125,-2.0580425368756057,-1.817617869992554,0.4215974457871169
1761315757858764800,3.806764892578125,-2.5139450609117744,-1.6256225952357053,0.43402123935669656
1761315757868747000,3.8167470703125,-2.957147677850723,-1.599091438923776,0.6387726814426481
1761315757878729000,3.82672900390625,-3.2294968845218417,-1.7884148641228674,0.9630943596743047
1761315757888711000,3.8367109375,-3.1761633537411686,-1.872607643547654,1.1166739790581166
1761315757898694000,3.84669384765625,-2.8795594112575054,-1.8774936620235443,1.140875231117755
1761315757908675800,3.85667578125,-2.5713684913545847,-1.9446870835915206,1.1402810646168886
1761315757918657800,3.86665771484375,-2.3974510173410177,-1.9488310515284537,1.1003155494533479
1761315757928640000,3.876639892578125,-2.2910282859295603,-1.7419892130345105,0.9360300463337451
1761315757938622000,3.8866220703125,-2.3086826005637646,-1.415410695786774,0.6747774762816727
1761315757948605000,3.89660498046875,-2.5497441040456295,-1.0613529277220368,0.39503593086954203
1761315757958587000,3.9065869140625,-2.919948704791069,-0.6727849872902035,0.15685884198388084
1761315757968568800,3.91656884765625,-3.282332402652502,-0.20225012678951024,-0.006686400695051997
1761315757978550800,3.92655078125,-3.479078963589668,0.28878596220910546,-0.04887088881600648
1761315757988534000,3.936533935546875,-3.45294615894556,0.7358125213503837,-0.04648227664642036
1761315757998516000,3.946515869140625,-3.2171085275918245,1.1451739512249828,0.12690315458336845
1761315758008498000,3.956497802734375,-2.8294653007894754,1.4791919708237051,0.27232845614403484
1761315758018479900,3.96647998046875,-2.3800340185940265,1.6831702365800738,0.4722996051508933
1761315758028461800,3.9764619140625,-1.7839280740976333,1.761058070641756,0.619015987701714
1761315758038445000,3.986445068359375,-1.0089876574516297,1.7799059789746998,0.6942131944399327
1761315758048426800,3.9964267578125,-0.19080548045039175,1.740446075245738,0.6568724748220295
1761315758058409000,4.006408935546875,0.49941082637310025,1.6124892651572822,0.592343523222953
1761315758068391000,4.016390869140625,1.0696838259547947,1.504970262941718,0.5138150531701743
1761315758078372900,4.026372802734375,1.570513871476054,1.4620944132894276,0.35393783147949726
1761315758088355800,4.03635595703125,1.9016969599097966,1.433792447912693,0.18043284725695846
1761315758098337800,4.046337890625,2.0426964991837737,1.4091773543551562,0.0033348800437524913
1761315758108320000,4.056320068359375,1.9664386044114828,1.424483936819434,-0.22071124602826311
1761315758118302000,4.066302001953125,1.7526351102113722,1.494617795753479,-0.41452703247684985
1761315758128285000,4.076284912109375,1.4945722030460833,1.647973250992596,-0.4909219610996544
1761315758138267000,4.086266845703125,1.28842068490386,1.7762828200414775,-0.4235147506505251
1761315758148248800,4.096248779296875,1.0575205099523066,1.8683710288912057,-0.2922698405358009
1761315758158230800,4.106230712890625,0.8479255733579397,1.9213418638393283,-0.1328396593597252
1761315758168213000,4.116212890625,0.658960752338171,1.891334263588488,0.012050430212542413
1761315758178196000,4.126196044921875,0.5357201571166516,1.844119800209999,0.18019838091395796
1761315758188178000,4.136177978515625,0.47562312355041503,1.8398773403346538,0.33068931356742975
1761315758198160100,4.14616015625,0.43198038117885584,1.8642229693010448,0.3832649021202698
1761315758208142000,4.15614208984375,0.3870096050739288,1.8672519617334007,0.38166776912193745
1761315758218125000,4.166125,0.28836919810175893,1.8436483833059667,0.34644451658204195
1761315758228107000,4.17610693359375,0.11375731208324431,1.7775640920236706,0.20664704657420516
1761315758238089000,4.1860888671875,-0.014756255105137825,1.6693699670255182,0.02173172014094889
1761315758248071000,4.19607080078125,0.0004980126500129699,1.521743995349109,-0.16174012948572636
1761315758258053000,4.20605322265625,0.1077887590676546,1.302037414585054,-0.32616803675070405
1761315758268036000,4.2160361328125,0.232954184871912,1.0180500848293303,-0.38265973930135366
1761315758278018000,4.22601806640625,0.3317553353637457,0.7809905104652046,-0.4026164125937968
1761315758288000000,4.236,0.4049900829225778,0.6155877668187022,-0.4620069783911109
1761315758297982000,4.24598193359375,0.432638552826643,0.48836570074558255,-0.46564416584968565
1761315758307965000,4.25596484375,0.44678982777595516,0.43123365446478124,-0.4854644263461232
1761315758317947100,4.265947021484375,0.353862537753582,0.37087680091857905,-0.5329506924033165
1761315758327929000,4.27592919921875,0.19822715488374232,0.28681115500479937,-0.5333017708633094
1761315758337911000,4.2859111328125,0.06876140153706073,0.23750527230501173,-0.4916882692970335
1761315758347893000,4.29589306640625,-0.018949030619859693,0.2530091309070587,-0.4438614461738616
1761315758357876000,4.3058759765625,-0.0270136791318655,0.2630328045323491,-0.38150538163445885
1761315758367858200,4.315858154296875,-0.017311200284957886,0.24256050986796615,-0.283330765543133
1761315758377840000,4.325840087890625,-0.07377426126301288,0.2016726191624999,-0.15400909684225916
1761315758387822000,4.335822021484375,-0.12377251014113426,0.2111158625513315,-0.033549583706632254
1761315758397805000,4.34580517578125,-0.09205752145051956,0.2545268419936299,0.03777918410040438
1761315758407787000,4.355787109375,0.1596253292888403,0.2683618906006217,0.02200089247114956
1761315758417769000,4.36576904296875,0.6994073290169238,0.2002528154924512,0.0018550532821565865
1761315758427751200,4.375751220703125,1.3495464769959449,0.03572217850536108,0.047345980803668496
1761315758437733000,4.385733154296875,1.8929636183559893,-0.1737137681350112,0.11971110592111944
1761315758447716000,4.395716064453125,2.2605501455575228,-0.3982394396185875,0.15942198873646557
1761315758457698000,4.405697998046875,2.4450924739599227,-0.6319070334568619,0.29155776500999925
1761315758467680000,4.415679931640625,2.423081133159995,-0.8303007770791649,0.4824515082657337
1761315758477662200,4.425662109375,2.285090712574124,-0.9497042783558368,0.7555439345195889
1761315758487645200,4.435645263671875,2.105353154104948,-1.0220657502114772,1.0036076449137181
1761315758497627100,4.445627197265625,1.920461866134405,-1.0214753831028938,1.1891080777585505
1761315758507609000,4.455609130859375,1.731428656053543,-0.9930033218562603,1.3248507194176316
1761315758517591000,4.465591064453125,1.482802854797244,-0.9360317268341779,1.349423142877221
1761315758527573000,4.475572998046875,1.1727128232747315,-0.9339677800416946,1.3353323659434915
1761315758537556200,4.48555615234375,0.7682149077832698,-0.8948360853537917,1.325148241059482
1761315758547538000,4.495537841796875,0.3050584670960903,-0.8777253760769963,1.2604834611862896
1761315758557520100,4.50552001953125,-0.09876198752522468,-0.9014522886231541,1.1345027004111559
1761315758567502000,4.515502197265625,-0.4585170904487371,-0.9838543852388858,0.9723673610627651
1761315758577485000,4.525485107421875,-0.717124772015214,-1.1022989783555268,0.8871526181790977
1761315758587467000,4.535467041015625,-0.8918442100614309,-1.183213759022951,0.8487368897408246
1761315758597449000,4.545448974609375,-0.9391226785868406,-1.1421800301060079,0.8443611588746309
1761315758607431200,4.55543115234375,-0.8645137200653552,-1.092589485245943,0.8979995178207755
1761315758617413000,4.5654130859375,-0.721960521608591,-1.0660141975313424,0.932736557746306
1761315758627396000,4.57539599609375,-0.6085761344909668,-1.0654951420933008,0.9776420135300606
1761315758637378000,4.5853779296875,-0.5597562817424535,-1.0596396940633654,1.0120804358351976
1761315758647360000,4.595360107421875,-0.48847442181706424,-1.0717299448296427,0.9978289884470403
1761315758657342000,4.605342041015625,-0.3646452130526304,-1.1574082866370676,0.9862677299909293
1761315758667325000,4.615324951171875,-0.17047288651764392,-1.3102426406115293,1.0413840525351463
1761315758677307100,4.62530712890625,0.1298217271775007,-1.5078119161084294,1.1548682467654348
1761315758687289000,4.6352890625,0.4554974503666162,-1.7749232221260667,1.2188153798885644
1761315758697271000,4.64527099609375,0.7895774292856454,-2.0263348547086117,1.2205523597490042
1761315758707253000,4.6552529296875,0.986608652383089,-2.1907845354139805,1.1712024187117813
1761315758717236000,4.665236083984375,0.826053933289647,-2.240474156734347,1.1177180812835692
1761315758727218200,4.67521826171875,0.19647358921468258,-2.15921041649878,1.1433045040912926
1761315758737200000,4.6852001953125,-0.8630214356809854,-2.1966668714508413,1.5355644309088587
1761315758747182000,4.69518212890625,-1.8419997393161058,-2.4668729286134243,2.222214861944318
1761315758757165000,4.7051650390625,-2.4989561660945414,-2.2555147817388175,2.309218899397552
1761315758767147000,4.71514697265625,-2.8099808481186628,-1.5284011151507495,1.6839856446161865
1761315758777129200,4.725129150390625,-2.8145015404134988,-0.9781833538651465,0.8147427771370858
1761315758787111200,4.735111083984375,-2.822054732272029,-0.9280322525128721,0.23664858241043984
1761315758797093000,4.745093017578125,-2.9646657983958717,-1.0316200527593493,-0.02239237600676715
1761315758807076000,4.755076171875,-3.218643482074141,-0.8319102581024169,-0.17919402617700397
1761315758817058000,4.76505810546875,-3.4388387231379745,-0.34972266146987674,-0.39672304370626804
1761315758827040000,4.7750400390625,-3.4899417183876036,0.13680150306224823,-0.48270117217786607
1761315758837022000,4.78502197265625,-3.3284570249676704,0.5629200064703822,-0.33904205830581485
1761315758847005200,4.795005126953125,-3.0227281112641093,0.8831731200888753,-0.12479001662060618
1761315758856987000,4.80498681640625,-2.636778828898072,1.1329860853031277,-0.01130699143409729
1761315758866969000,4.814968994140625,-2.25505330170691,1.4013856775656341,-0.08509411217868328
1761315758876951000,4.824950927734375,-1.9514251596748828,1.5790604582861065,-0.22287194945979863
1761315758886933000,4.83493310546875,-1.6275474258184432,1.6386568488538265,-0.3960328329524025
1761315758896916200,4.844916259765625,-1.1887386599242686,1.6569620286121964,-0.5187006332546472
1761315758906898000,4.85489794921875,-0.6748714381754398,1.6194252019003033,-0.5838695267250761
1761315758916880100,4.864880126953125,-0.10988777717351912,1.562621364660561,-0.6116188997203483
1761315758926862000,4.874862060546875,0.45623628603518007,1.4766104298979044,-0.6718126351267099
1761315758936845000,4.884844970703125,0.9130342976063489,1.3243430621564387,-0.7944382402550428
1761315758946827300,4.8948271484375,1.219035013988614,1.1077993293374777,-1.01237174693197
1761315758956809000,4.90480908203125,1.3735785099685192,0.900066679483652,-1.3098679620802403
1761315758966791200,4.914791259765625,1.3644348340481518,0.7758744826257229,-1.6894111767962574
1761315758976773000,4.924773193359375,1.1652917333632706,0.7522481078445911,-2.1305013316258785
1761315758986756000,4.934756103515625,0.761067958638072,0.8221338372364639,-2.5556048127725717
1761315758996738000,4.944738037109375,0.3098509620696306,0.9572940028324722,-2.8271637458488343
1761315759006720000,4.954719970703125,-0.05976911678612232,1.1086878026098013,-2.964329990570247
1761315759016702200,4.9647021484375,-0.19117139115333556,1.27860159393996,-2.9248475827485323
1761315759026685000,4.974684814453125,-0.04281798198521137,1.4735881594672797,-2.6269845801144838
1761315759036667100,4.984667236328125,0.2718997093379497,1.665377682518959,-2.164724357614666
1761315759046649000,4.994649169921875,0.7961988932520151,1.815486118660867,-1.6130793400049208
1761315759056631000,5.004631103515625,1.3339812435954808,1.8851848010480403,-1.0398965173911303
1761315759066613000,5.014613037109375,1.8231611833333967,1.8437629495963452,-0.6316915640752763
1761315759076596000,5.024595947265625,2.3195424327522516,1.7280384290933608,-0.3645837651889771
1761315759086578200,5.034578125,2.771169179165363,1.504504106734693,-0.14181567796245217
1761315759096560000,5.04456005859375,3.181761319878697,1.2440385223418473,0.045964682513102886
1761315759106542000,5.0545419921875,3.5955911273390053,0.9608537411406636,0.2167777607705444
1761315759116524000,5.06452392578125,3.9449581072390076,0.6839481863394379,0.34093024667259303
1761315759126507000,5.074507080078125,4.177179886183143,0.42616000446230173,0.41654008933231235
1761315759136489200,5.0844892578125,4.167348812520504,0.16963059047460555,0.44260874269902706
1761315759146471000,5.094470947265625,3.9616315941423177,-0.08103636122047901,0.4479877323236316
1761315759156453000,5.104453125,3.6485400427162644,-0.2891255694270134,0.5427299993460998
1761315759166435800,5.114435791015625,3.2656606693148613,-0.3842249427914619,0.638653073650971
1761315759176418000,5.12441796875,2.8160516924649475,-0.3772451669067144,0.7431558698505163
1761315759186400300,5.134400146484375,2.3398767802506684,-0.29893092412650585,0.913795052845776
1761315759196382700,5.1443828125,1.9112959783822296,-0.20536533620059488,1.1089818171203136
1761315759206365000,5.154364990234375,1.605160237443447,-0.15000585255026816,1.2769066265903413
1761315759216347600,5.16434765625,1.2460463550329208,-0.1242433425232768,1.3663418367132543
1761315759226329900,5.174329833984375,0.7801128508478402,-0.1067719832405448,1.3997894944153726
1761315759236311600,5.1843115234375,0.25568156498670574,-0.11335253067463635,1.4163415468961
1761315759246293800,5.194293701171875,-0.2776058120250702,-0.12510785039812325,1.411938051240146
1761315759256276700,5.20427685546875,-0.7665969511926174,-0.1852943158134818,1.379484665272385
1761315759266258700,5.2142587890625,-1.1071598623901604,-0.25122137070745226,1.3620435549974441
1761315759276241000,5.224240966796875,-1.3776286621421574,-0.2989402764767408,1.298467739404738
1761315759286222600,5.23422265625,-1.5306804582595823,-0.37290333831012246,1.2093562082782388
1761315759296204800,5.244204833984375,-1.534687355813384,-0.5116778950110078,1.216320640463382
1761315759306187800,5.254187744140625,-1.5025094257861376,-0.699285748463869,1.2237623347714544
1761315759316169700,5.264169677734375,-1.3572913920342922,-0.9129302527099847,1.1913116522174327
1761315759326152000,5.27415185546875,-1.123934471580386,-1.148862284348905,1.1527413908045738
1761315759336133600,5.284133544921875,-0.863079887869954,-1.40793992151469,1.050029496609792
1761315759346116900,5.294116943359375,-0.6383522640734911,-1.6641946102142333,0.9521399810701608
1761315759356098600,5.3040986328125,-0.5245949519902467,-1.9090397238880394,0.8430406508605927
1761315759366080800,5.314080810546875,-0.580975595381856,-2.101317614978552,0.7032556750081479
1761315759376063000,5.32406298828125,-0.7590899365633725,-2.19444071983397,0.5547604096839204
1761315759386044700,5.334044677734375,-0.9307692762613295,-2.211667748966813,0.4404403126187622
1761315759396028000,5.34402783203125,-1.1256406909763812,-2.1552155016437173,0.39956097054593265
1761315759406009600,5.354009521484375,-1.3731670065581798,-2.022901373128593,0.3799338945340365
1761315759415991800,5.36399169921875,-1.6627023258298634,-1.8183698574036358,0.32533775993902236
1761315759425973800,5.373973876953125,-1.9141613046854733,-1.6156708178028463,0.29397573113823305
1761315759435956700,5.383956787109375,-2.2168238165557383,-1.437968272292614,0.293876928672567
1761315759445939000,5.39393896484375,-2.5804081223785875,-1.2817656109288333,0.28586675029415637
1761315759455920600,5.403920654296875,-2.8733441900044676,-1.2391554264754057,0.4096601205602288
1761315759465902800,5.41390283203125,-2.9408921240985393,-1.3881895113840699,0.6880467076994479
1761315759475884800,5.423884765625,-2.6375164955228567,-1.5738649354696272,0.8453302961677313
1761315759485867800,5.43386767578125,-2.2038579519987107,-1.7075968218281865,0.8522555653862655
1761315759495849700,5.443849609375,-1.9118518586993216,-1.8332526614978908,0.7535571446165442
1761315759505831700,5.453831787109375,-1.8263731311172247,-1.8381781352013349,0.5479791885785759
1761315759515814000,5.46381396484375,-1.986477183833718,-1.6198308600917457,0.26900636251661925
1761315759525796600,5.473796630859375,-2.345770514464378,-1.2317644394412637,0.010949190972372888
1761315759535778800,5.48377880859375,-2.7151626297831535,-0.725327075432241,-0.13427498025931417
1761315759545760800,5.4937607421875,-2.9508196438729763,-0.24634353553801774,-0.17169998062718658
1761315759555742700,5.50374267578125,-2.9088533102810383,0.12876754194945098,-0.16322455935720354
1761315759565725000,5.513724853515625,-2.534721891480684,0.43829497115314003,-0.10805278029870241
1761315759575707600,5.523707763671875,-1.988834560614824,0.6993491690889001,-0.07338869601152836
1761315759585689900,5.53368994140625,-1.6016250490546227,0.8836451215147971,-0.024149521872401235
1761315759595671600,5.543671630859375,-1.4752099154502152,0.990916870971024,0.07448617239203303
1761315759605653800,5.55365380859375,-1.4960919599592686,1.1283169244483113,0.12772504715919494
1761315759615636700,5.56363671875,-1.486336874142289,1.3394374631747603,0.0872903070487082
1761315759625618700,5.57361865234375,-1.3067811019808053,1.529653453299403,0.019311141930520533
1761315759635601000,5.583600830078125,-0.856367823010683,1.6712983047395944,0.0757362089857459
1761315759645582600,5.59358251953125,-0.19914894590377807,1.7548685683518648,0.22334610631018875
1761315759655564800,5.603564697265625,0.5482078827679157,1.7743956911206245,0.35758148521147665
1761315759665547800,5.6135478515625,1.1931705048918724,1.7332170007750392,0.466779672685638
1761315759675529700,5.62352978515625,1.6818448331952094,1.6839572953045367,0.4813828561209142
1761315759685512000,5.633511962890625,2.022611742532253,1.6554706210106611,0.41652730291597545
1761315759695493600,5.64349365234375,2.179525474774837,1.6287679075241088,0.36862514953427017
1761315759705476900,5.653476806640625,2.219763377138972,1.5556135317251085,0.38345205872282384
1761315759715458800,5.663458740234375,2.1887761182010173,1.4791598221197724,0.4391377055875957
1761315759725440800,5.673440673828125,2.076813288319111,1.4546838447719812,0.4845031070332974
1761315759735423000,5.683423095703125,1.812582506173849,1.463361949007213,0.48662141436152156
1761315759745404700,5.69340478515625,1.3442472015440463,1.4669535437583923,0.40400867066979407
1761315759755388000,5.703387939453125,0.8661445361375808,1.4972534049540758,0.28027349686436354
1761315759765369600,5.71336962890625,0.48471302345693107,1.5617743924424052,0.17166472665071486
1761315759775351800,5.723351806640625,0.23754911144673824,1.6525176164239643,0.10060228162966668
1761315759785333800,5.733333740234375,0.05545008454322815,1.7317074729949236,0.0820638045720756
1761315759795316700,5.743316650390625,-0.09142214615643024,1.7586849117696284,0.12383951096273958
1761315759805298700,5.753298583984375,-0.23038696473240852,1.7967565760105848,0.14510982413701712
1761315759815280600,5.76328076171875,-0.30730770732760426,1.869618106342852,0.1923470838692039
1761315759825262800,5.773262939453125,-0.3418284010887146,1.9317220958173273,0.22991386732794344
1761315759835244500,5.78324462890625,-0.3152536978960037,1.9005691249236463,0.2437428515203297
1761315759845227800,5.793227783203125,-0.22452421017885207,1.8175261000558733,0.19556743415519595
1761315759855209700,5.803209716796875,-0.07663432686924934,1.670118447305262,0.09166523419730364
1761315759865191700,5.813191650390625,0.2237047104895115,1.4914932339921594,-0.030907690895721315
1761315759875174000,5.823173828125,0.5744599298775196,1.3183812311425804,-0.16391279734969139
1761315759885156900,5.833156982421875,0.8800129024922847,1.1227063910901547,-0.29254845654778183
1761315759895138800,5.843138916015625,1.0748001460552215,0.9183777044609188,-0.34528614032715554
1761315759905120800,5.853120849609375,1.1933031913608312,0.759889270247519,-0.3875238382063806
1761315759915102700,5.863102783203125,1.2348165204882622,0.6643664107739925,-0.3771794812593609
1761315759925085000,5.8730849609375,1.213427110978961,0.5958130990296602,-0.33620091659575696
1761315759935067600,5.883067626953125,1.1953484334528446,0.5912020981028676,-0.24657909785956142
1761315759945049900,5.8930498046875,1.252049394840002,0.6034644905656575,-0.09708828215934336
1761315759955031800,5.90303173828125,1.4059697904855013,0.5945701132312416,0.031714404168725015
1761315759965013800,5.913013671875,1.5127017339766025,0.4886395492509007,0.10808876492753625
1761315759974996700,5.922996826171875,1.5632693071752786,0.33882541988044973,0.12255655848011374
1761315759984978700,5.932978759765625,1.5186749631673098,0.1658341208010912,0.11572780843861401
1761315759994961000,5.9429609375,1.327822720965743,0.013610007679462433,0.1343129741821438
1761315760004942600,5.952942626953125,0.9548620995104312,-0.06437661058157682,0.16824622344411908
1761315760014924800,5.9629248046875,0.5484837770998477,-0.05031126035004854,0.17900814821608363
1761315760024907800,5.97290771484375,0.3211240512341261,-0.057550563953816886,0.10968085642457008
1761315760034889700,5.9828896484375,0.2502975338608026,-0.1332382576227188,0.11221088635884224
1761315760044871700,5.99287158203125,0.12434358802735805,-0.2804389896243811,0.1655371836811304
1761315760054853600,6.002853515625,-0.03217851454913616,-0.49421881068795914,0.21908296897299587
1761315760064836900,6.0128369140625,-0.18577333150207995,-0.719162999844551,0.2748845703676343
1761315760074818800,6.02281884765625,-0.25699323210716246,-0.8351625378966331,0.30569471917301416
1761315760084800800,6.03280078125,-0.29146657959520816,-0.9112631962805986,0.31628888616263867
1761315760094782700,6.04278271484375,-0.3991781817734241,-0.9973580099344252,0.23614494373723863
1761315760104764700,6.0527646484375,-0.5557090521782636,-1.111976030500233,0.1133717102991417
1761315760114747600,6.06274755859375,-0.6481704782545566,-1.2251070273786782,-0.03426635367386043
1761315760124729900,6.072729736328125,-0.7341840433657169,-1.3389189922586082,-0.1605212917478755
1761315760134711800,6.0827119140625,-0.8558592889666556,-1.4052102042898535,-0.25948238204177465
1761315760144693800,6.09269384765625,-1.0423708716154099,-1.379626850222051,-0.28470409972295163
1761315760154676700,6.1026767578125,-1.3544272347748278,-1.2406640774726867,-0.24192966461852192
1761315760164658700,6.11265869140625,-1.828058307725191,-1.0619988244101404,-0.21544830226507036
1761315760174640600,6.122640625,-2.2633599422812463,-0.9127774002358316,-0.19242526367194948
1761315760184622800,6.132622802734375,-2.6039924115836617,-0.8277762270376086,-0.08412508448343724
1761315760194604000,6.14260400390625,-2.739531347364187,-0.9040423051163554,0.22265395932756363
1761315760204587000,6.1525869140625,-2.5354168880075214,-1.084856845167279,0.5464337127022445
1761315760214569000,6.16256884765625,-2.1523411152511835,-1.1996794483944773,0.6196916950061917
1761315760224551000,6.172551025390625,-1.7351894698917865,-1.1713611164048314,0.401689397409372
1761315760234532900,6.182532958984375,-1.580249668070674,-1.1464271661564707,0.1463661443410441
1761315760244515800,6.192515869140625,-1.6930980486154554,-1.1726637234359978,0.050377384388819335
1761315760254498000,6.202498046875,-1.9799603492856024,-1.0967080264806748,0.016754443185031415
1761315760264480000,6.21247998046875,-2.272366840079427,-0.9019432870104909,-0.052003999209962785
1761315760274462000,6.2224619140625,-2.3470172996550795,-0.6002154256418347,-0.13346534437686206
1761315760284444000,6.23244384765625,-2.2696429680734873,-0.26876871783584355,-0.11110168300792574
1761315760294427000,6.242427001953125,-2.044863321828842,0.028641280333697793,-0.045051915049739176
1761315760304408800,6.252408935546875,-1.8457295734941959,0.19531565135121345,0.05331321864500641
1761315760314390800,6.262390869140625,-1.7173697355628013,0.2485954061180353,0.08762823376618326
1761315760324373000,6.272373046875,-1.5128367585331202,0.3583203939452767,0.044787017035856844
1761315760334355700,6.282355712890625,-1.2377321156740189,0.49393239496201274,-0.01696370202153921
1761315760344338000,6.292337890625,-0.9631436056435108,0.6198661747902632,-0.052572629410773515
1761315760354320000,6.30231982421875,-0.7073018816590309,0.7709794040605426,-0.04074680173434317
1761315760364301800,6.3123017578125,-0.4989852944374084,0.9334674293041229,-0.02902823382467031
1761315760374283800,6.32228369140625,-0.3556628651738167,1.1237643757104874,-0.10933262750878929
1761315760384266800,6.332266845703125,-0.3129699708729982,1.2675824795365334,-0.20905030832365154
1761315760394249000,6.3422490234375,-0.3860030583798885,1.3275471188947559,-0.328146935608238
1761315760404231000,6.35223095703125,-0.4097743945896625,1.3700997279420495,-0.41402350340150296
1761315760414212900,6.362212890625,-0.21150164699852467,1.4044123319104314,-0.6323544118981808
1761315760424196000,6.372196044921875,0.05726268692314625,1.358762925891578,-0.8494204150255769
1761315760434177800,6.382177734375,0.35572774710357186,1.2311524450227618,-1.0276642278056591
1761315760444160000,6.392159912109375,0.5918044479101896,1.0880527185991407,-1.1670446414452045
1761315760454142000,6.402141845703125,0.7437392226964235,0.9817854700103401,-1.2542486584499477
1761315760464124000,6.4121240234375,0.8062333805322647,0.9073834322378039,-1.3074945109471678
1761315760474107000,6.42210693359375,0.8989099106639623,0.888636353930831,-1.4432728084415196
1761315760484088800,6.4320888671875,1.0643079781353473,0.8389172142550348,-1.6243533059522508
1761315760494071000,6.442071044921875,1.2333183908849954,0.7284206575334071,-1.7943446925632656
1761315760504053000,6.452052978515625,1.295239132747054,0.6216349380284547,-1.8742124483957885
1761315760514036000,6.462035888671875,1.2600742958635092,0.634961744852364,-1.8272645269989967
1761315760524018000,6.472017822265625,1.10283381588459,0.7281552845954895,-1.6993445417895912
1761315760533999900,6.481999755859375,0.8736118032783269,0.8753601082503795,-1.4688424262449145
1761315760543981800,6.49198193359375,0.714319651466608,1.0210641719534992,-1.238464813862741
1761315760553963800,6.5019638671875,0.6644108344376087,1.0734335338771344,-0.9793407072067261
1761315760563947000,6.511947021484375,0.6518669946849346,1.058249116487801,-0.6873008577682077
1761315760573929000,6.521928955078125,0.7936796039074658,0.9915794265329837,-0.4852773793414235
1761315760583911000,6.531910888671875,1.0165677373170852,0.8850976584106683,-0.4325059394229203
1761315760593892900,6.541892822265625,1.2364888376146554,0.6702277040228247,-0.46648470832705496
1761315760603874800,6.551874755859375,1.434993055874109,0.4365253311321139,-0.45106231746338304
1761315760613858000,6.561858154296875,1.6029577589631079,0.2655807354494929,-0.3944418009012937
1761315760623839700,6.57183984375,1.6827660396933555,0.15725860015749932,-0.3190489985257387
1761315760633822000,6.581822021484375,1.6400743144363163,0.07161649870723485,-0.28041268613934517
1761315760643804000,6.591803955078125,1.5187912830233572,-0.004691080425679684,-0.2767937649898231
1761315760653787000,6.601786865234375,1.3816893357098101,-0.03850596400499344,-0.2584102592982352
1761315760663769000,6.61176904296875,1.2674492085456848,-0.07884937257021665,-0.2460059010814875
1761315760673750800,6.621750732421875,1.1398130087137222,-0.1526996216788888,-0.26196524836607277
1761315760683733000,6.63173291015625,1.020816626933217,-0.2192459775149822,-0.28502836324125524
1761315760693715000,6.64171484375,0.8894692976236342,-0.28257512487024067,-0.30648828070349987
1761315760703698000,6.651697998046875,0.738676678609848,-0.3156511727809906,-0.3701105657864362
1761315760713680000,6.661679931640625,0.6200251647442578,-0.329059812669456,-0.4366601364929229
1761315760723661800,6.671661865234375,0.6153712014585733,-0.31450872474759817,-0.4699368946075439
1761315760733644000,6.68164404296875,0.5834498765408992,-0.3673138477399945,-0.4604491544898599
1761315760743626800,6.691626708984375,0.5904378357321024,-0.44806174740791316,-0.40906098562330007
1761315760753609000,6.70160888671875,0.5906459255248308,-0.4967100429818034,-0.37677835311256347
1761315760763591000,6.7115908203125,0.5007639945477247,-0.5554626762017607,-0.4337419840238988
1761315760773572900,6.72157275390625,0.3093810064703226,-0.6395972956985235,-0.47668724565058945
1761315760783554800,6.731554931640625,0.13607260426580906,-0.709729985588789,-0.4781688625104725
1761315760793537800,6.741537841796875,-0.0028957214415073393,-0.7747086537167429,-0.3534453352548182
1761315760803520000,6.75152001953125,-0.14888532408773897,-0.8893383647203444,-0.1733823442235589
1761315760813502000,6.761501953125,-0.20702537836730478,-0.9959767847090959,-0.011356529664248228
1761315760823484000,6.77148388671875,-0.1796943038493395,-1.0692989182904362,0.09589271569922565
1761315760833467000,6.781466796875,-0.10408756646215915,-1.1903197916358708,0.14267624031454323
1761315760843448800,6.79144873046875,-0.01517301921248436,-1.3739447129324078,0.17492913527414203
1761315760853431000,6.80143115234375,0.09683598789870738,-1.5752540517404674,0.11432035279348492
1761315760863412700,6.811412841796875,0.18406126688718794,-1.7187991838440297,0.0006502806022763252
1761315760873395000,6.82139501953125,0.16784838323295115,-1.7964546704545616,-0.08545315474942326
1761315760883377700,6.831377685546875,0.03920212957561016,-1.8197493290632962,-0.18481193912401794
1761315760893359900,6.84135986328125,-0.060532502374053,-1.766427488720417,-0.27737419522628187
1761315760903342000,6.851342041015625,-0.17113573434054852,-1.7321487870216368,-0.3871664030708372
1761315760913323800,6.86132373046875,-0.30707740570306774,-1.7028011119842528,-0.4721835044905543
1761315760923307000,6.87130712890625,-0.45161447145342826,-1.6177569764271378,-0.5272280769728124
1761315760933288700,6.881288818359375,-0.6321645153492689,-1.4746093192085623,-0.5679955561690032
1761315760943271000,6.89127099609375,-0.8610562730878591,-1.3263430038020014,-0.5668235897801817
1761315760953252900,6.9012529296875,-1.1254571511030196,-1.159319088694453,-0.5557070063516497
1761315760963234800,6.91123486328125,-1.3375117558091878,-1.017011973953247,-0.565412846199423
1761315760973218000,6.921218017578125,-1.448063549849391,-0.977968249809742,-0.37458617683053014
1761315760983199700,6.93119970703125,-1.3420353707134722,-1.1631629046410321,-0.04506663769483566
1761315760993182000,6.941181884765625,-1.034000518155098,-1.276350600142777,0.13043284481316805
1761315761003164000,6.951163818359375,-0.821024122428894,-1.3203008010283113,0.05198839978203177
1761315761013147000,6.96114697265625,-0.8985591975301503,-1.4018246535047887,-0.04987666832506656
1761315761023129000,6.971129150390625,-1.2538684269607066,-1.4253753327012062,-0.16981018482521176
1761315761033110800,6.98111083984375,-1.74310915697515,-1.301096918864548,-0.3896808701097965
1761315761043093000,6.991093017578125,-2.24127086006999,-0.9945447060793637,-0.7347622816450894
1761315761053075000,7.001074951171875,-2.6252777761965986,-0.5831394954174757,-1.0829160863630474
1761315761063058000,7.011057861328125,-3.0066753866076468,-0.23972616322487592,-1.3121734625436365
1761315761073040100,7.0210400390625,-3.229166629654169,0.08835603658407926,-1.468816268890351
1761315761083021800,7.031021728515625,-3.261040023776889,0.39548984864950176,-1.5043940704889596
1761315761093004000,7.041004150390625,-3.108493254572153,0.6750906338840723,-1.4175247653312981
1761315761102986800,7.05098681640625,-2.726648484915495,0.8797463605105876,-1.2643579645320773
1761315761112969000,7.060968994140625,-2.205031671953201,0.9979153515562414,-1.1022525088652968
1761315761122951000,7.070950927734375,-1.700911352714896,1.1093953663572669,-1.0389935041368008
1761315761132932900,7.080932861328125,-1.3542518782079218,1.2949553473696112,-1.069836678428948
1761315761142914800,7.090914794921875,-1.2132546770215034,1.4738947411984205,-1.213113807246089
1761315761152897800,7.100897705078125,-1.2150912447988986,1.6100731439262628,-1.465783038674295
1761315761162880000,7.1108798828125,-1.1783885308235884,1.6897428929686544,-1.6166902239784597
1761315761172861700,7.12086181640625,-0.9714584295243024,1.77119601829648,-1.6112188068300484
1761315761182844000,7.130843994140625,-0.693804686704278,1.8345806952312587,-1.5032953154668212
1761315761192827000,7.140826904296875,-0.37556758908331395,1.8655232382446527,-1.376898594301939
1761315761202809000,7.15080908203125,-0.003973579806089401,1.853110915917158,-1.3547984061747789
1761315761212791000,7.160791015625,0.35686990287601944,1.759433392049372,-1.3831699296563862
1761315761222773000,7.17077294921875,0.6295037717074156,1.6886819857388733,-1.3601464892044663
1761315761232755000,7.1807548828125,0.7988274881899357,1.68621734919101,-1.311936292786896
1761315761242738000,7.190738037109375,0.8497428519129753,1.7508590404495596,-1.2757660782530904
1761315761252720000,7.20072021484375,0.8569587746411561,1.8726903533950447,-1.2698176912426948
1761315761262702000,7.2107021484375,0.815341400617361,1.9836448830172417,-1.2969552890151739
1761315761272684000,7.22068408203125,0.8476251291066408,2.0469439274951813,-1.2759984257042407
1761315761282667000,7.2306669921875,0.8877589865744113,2.0257105853304265,-1.276311437176168
1761315761292649000,7.24064892578125,0.9940086995065212,1.9674489504978059,-1.2858046571865678
1761315761302631000,7.250630859375,1.0505348888486623,1.9030083347693085,-1.1963216623991728
1761315761312613000,7.260613037109375,1.0541542483896016,1.800745353385806,-1.1279027906894683
1761315761322595000,7.270594970703125,1.049451769787073,1.6811673723250626,-1.112147587674856
1761315761332578000,7.280578125,1.0582301195263861,1.5518895427659154,-1.095808447292447
1761315761342560000,7.29056005859375,1.0556786814779042,1.3603510718658565,-1.0355191060245037
1761315761352542000,7.3005419921875,1.0695786120146513,1.1006509188875555,-1.0229664984434843
1761315761362524200,7.310524169921875,1.107837907782197,0.8860665034428238,-1.032385191912949
1761315761372505900,7.320505859375,1.0832020636975765,0.6950009107515216,-1.0654458961240947
1761315761382489000,7.330489013671875,1.0852104809105396,0.5141454541683197,-1.1143515274599194
1761315761392471000,7.340470947265625,1.0333347477227448,0.3835559574887156,-1.2473643057636916
1761315761402453000,7.350452880859375,0.8522451901227235,0.2591023332156241,-1.4189777406185864
1761315761412435000,7.36043505859375,0.6328402226537466,0.1614252183176577,-1.5071933458186686
1761315761422418200,7.370418212890625,0.3677911098629236,0.20525208508446813,-1.4788785209603608
1761315761432400000,7.38039990234375,0.10111059647798537,0.33689532860070465,-1.3356813255116342
1761315761442382000,7.390382080078125,-0.12189151870012283,0.4337574738539755,-1.1115231721661984
1761315761452364000,7.400364013671875,-0.32861411472856994,0.46345703106895086,-0.8550679924584925
1761315761462346000,7.410345947265625,-0.5175976404488086,0.5025178524777293,-0.6285033624932169
1761315761472329000,7.420328857421875,-0.6220780056208371,0.5381557137005031,-0.5003462075270713
1761315761482311000,7.430310791015625,-0.6096919867783784,0.5616986479818821,-0.46261648859158155
1761315761492293000,7.440293212890625,-0.49089668052792546,0.5856900566831231,-0.4459589299097657
1761315761502275000,7.450275146484375,-0.2660492297440767,0.5844510164074599,-0.42944560200423
1761315761512258000,7.460258056640625,-0.0009603694647550582,0.5038548001699149,-0.3700822895400226
1761315761522240000,7.470239990234375,0.23293548017144203,0.3479886772841215,-0.2434641807094216
1761315761532222000,7.480221923828125,0.43394495925009247,0.18916531202793122,-0.08539652919135987
1761315761542204000,7.490203857421875,0.5295341619580983,0.048449558131396765,0.10606953405961393
1761315761552186000,7.50018603515625,0.5332534747421741,-0.14305924828276037,0.39196985782980914
1761315761562169000,7.510169189453125,0.559945666834712,-0.3296716609574854,0.6914546895120293
1761315761572151000,7.520151123046875,0.559192218118906,-0.5122719153814017,0.891180923847109
1761315761582133000,7.530133056640625,0.5745546224236489,-0.6811126706525683,0.9912124198514968
1761315761592115000,7.540114990234375,0.5960661970078944,-0.8601862122550606,1.0328089702829717
1761315761602098000,7.550097900390625,0.6031599546611308,-1.0297801239810884,1.047703976271674
1761315761612080000,7.560080078125,0.5974047521352768,-1.172860999573767,1.0984796392630785
1761315761622062000,7.57006201171875,0.5314812043726443,-1.2580715777389704,1.188555046985671
1761315761632044000,7.5800439453125,0.4393254832446575,-1.2846231923170388,1.2763289728328584
1761315761642026000,7.59002587890625,0.2640191852211952,-1.2870581643790007,1.3790103257589041
1761315761652009000,7.600009033203125,-0.03215454915165901,-1.2445168073780835,1.488219765279442
1761315761661991200,7.6099912109375,-0.38724399835169315,-1.1656434694103897,1.5463111581116913
1761315761671972900,7.619972900390625,-0.7705074026346206,-1.0737779634006321,1.5707666771933435
1761315761681955000,7.629955078125,-1.1276847640246153,-1.0561571126446128,1.6113003476336598
1761315761691938000,7.63993798828125,-1.4984692104846238,-1.0486711408033966,1.671351203970611
1761315761701920000,7.649919921875,-1.8428543103188275,-0.9830227567203342,1.7430203096479175
1761315761711902000,7.65990185546875,-2.0371248365312815,-0.8324088552743196,1.8405305435463786
1761315761721884000,7.6698837890625,-2.1371225033313035,-0.6632290773071349,1.9545377387374638
1761315761731866000,7.6798662109375,-2.1240859116256234,-0.5672071822702884,2.0057643603667614
1761315761741848800,7.689848876953125,-2.0559142926752565,-0.5530199592247605,1.9378189513877033
1761315761751831000,7.6998310546875,-1.931702222073078,-0.5459397917054594,1.7667171193167566
1761315761761813000,7.70981298828125,-1.7319897970676421,-0.5541961633972823,1.633308765824139
1761315761771795000,7.719794921875,-1.5568483342170714,-0.6194171158485114,1.5366029801763594
1761315761781778200,7.729778076171875,-1.4488327806562185,-0.6687266518101096,1.4104123029775917
1761315761791760000,7.739759765625,-1.3804051411181688,-0.6977675989858806,1.4134952175542712
1761315761801742000,7.7497421875,-1.3486416371107102,-0.8498862059064209,1.649828815731406
1761315761811724000,7.75972412109375,-1.1935656416893006,-1.067312274517864,1.8720586313627658
1761315761821706000,7.7697060546875,-0.9356365900367498,-1.140807280448079,1.8180606453239916
1761315761831689200,7.779689208984375,-0.6775403651237487,-1.178503097113967,1.531425431407988
1761315761841671000,7.7896708984375,-0.5177244816988706,-1.3070415064826606,1.165326147089526
1761315761851653000,7.799653076171875,-0.4476981747925281,-1.4525677294008432,0.7453332138895988
1761315761861635000,7.809635009765625,-0.5310059880763291,-1.5127395817689597,0.3093491865599528
1761315761871617000,7.819616943359375,-0.7489718626528978,-1.4452439623840152,-0.04806359102111309
1761315761881600000,7.82960009765625,-1.0519015010267496,-1.2057109836436808,-0.3062372285518795
1761315761891582000,7.83958203125,-1.3079969075113533,-0.7578190398447215,-0.39568559041731055
1761315761901564200,7.849564208984375,-1.3318670279204845,-0.18387641183957457,-0.39054209004901347
1761315761911546000,7.859546142578125,-1.1299877802699803,0.3288878171034157,-0.47843156856726854
1761315761921529000,7.869529052734375,-0.8618471312046051,0.7082055525004863,-0.7493760595396161
1761315761931511000,7.879510986328125,-0.5892816514343023,0.8984712269857525,-1.1113980844818054
1761315761941493000,7.889492919921875,-0.4152385052144527,0.9027768152251839,-1.5350785470880568
1761315761951475000,7.899474853515625,-0.43003801493942734,0.8330158812567591,-1.8979367305934427
1761315761961457000,7.909456787109375,-0.4528577495127916,0.7952148506507277,-2.1213776755802334
1761315761971440000,7.919440185546875,-0.37618659776449204,0.8254463227853178,-2.243092376408726
1761315761981421800,7.929421875,-0.30442542988955973,0.9073230803526937,-2.294540970225632
1761315761991404000,7.939404052734375,-0.1752794100165367,1.0662618886820971,-2.223691364237666
1761315762001386000,7.949385986328125,-0.024676760616898535,1.270081164484471,-2.1502000115692614
1761315762011369000,7.959368896484375,0.13166004852056504,1.3933841574177146,-2.081838715265691
1761315762021351200,7.96935107421875,0.22576748823821544,1.40740347655043,-2.0201590886831284
1761315762031332900,7.979332763671875,0.2734831791371107,1.3669609915249048,-2.054033155103773
1761315762041315000,7.989315185546875,0.24811785173416137,1.2056497549757361,-2.281267939415574
1761315762051297000,7.999297119140625,0.13065700895786284,0.9333883727185428,-2.6319378186076876
1761315762061280000,8.009280029296875,0.05294365468025207,0.7236522740878164,-2.933712441727519
1761315762071262200,8.01926220703125,0.06705810475051403,0.6383725762091577,-3.10033946647197
1761315762081244000,8.029243896484376,0.22035540006160734,0.6530638032540679,-3.1494103713721033
1761315762091226000,8.03922607421875,0.5021078103721142,0.7598615054577589,-3.012411592172086
1761315762101208800,8.049208740234375,0.8232529043942689,0.8874483131900429,-2.7204382320985196
1761315762111191000,8.05919091796875,1.119755140069127,0.9771841136947274,-2.3611697436481713
1761315762121173000,8.069173095703125,1.2850924172639846,0.976996482168138,-2.0235881863489746
1761315762131155000,8.079155029296874,1.326341542497277,0.9135714732229709,-1.8089340666688978
1761315762141137200,8.08913720703125,1.260169572931528,0.8120116716727613,-1.6863563192702828
1761315762151120000,8.099119873046876,1.221099545302987,0.7169198970928787,-1.5980157725162802
1761315762161102000,8.10910205078125,1.2505594485431908,0.6506199172332883,-1.5127388511165976
1761315762171084000,8.119083984375,1.318568570408225,0.553432923939824,-1.505930924667418
1761315762181066000,8.12906591796875,1.4482576111167669,0.41280923224091526,-1.4888644929237662
1761315762191049200,8.13904931640625,1.5824755274266005,0.23918927986919877,-1.436919932283461
1761315762201031700,8.14903173828125,1.6800778235226868,0.12749825266599654,-1.2847712224856018
1761315762211014000,8.159013916015626,1.7864520396173,0.11435790832489728,-0.9952281582988798
1761315762220995600,8.16899560546875,1.82162564432919,0.14626169758588076,-0.6301252646066248
1761315762230977800,8.178977783203125,1.8016379183113573,0.2006222333267331,-0.274866450189054
1761315762240960500,8.18896044921875,1.7118097633481024,0.18662381085157392,-0.0049628465717658395
1761315762250942700,8.198942626953125,1.5911322966128587,0.12185323251634836,0.1130233717855066
1761315762260924700,8.208924560546874,1.4622873055130243,0.024683190357685087,0.12034914809633046
1761315762270906600,8.21890673828125,1.3386053962647915,-0.09263941299170256,0.0262866069663316
1761315762280889900,8.228889892578126,1.2168635151684284,-0.23910218610763548,-0.1365190693916753
1761315762290871600,8.23887158203125,1.118112049037218,-0.3736407126739621,-0.2211246308684349
1761315762300853800,8.248853759765625,1.0340636465191841,-0.47452159204930067,-0.1849540875410661
1761315762310835700,8.258835693359375,1.003996425035596,-0.4911021399721503,-0.06959467402342706
1761315762320817700,8.268817626953124,0.988701240748167,-0.47535950417816636,0.08504596218802034
1761315762330801000,8.27880078125,0.9302093042910099,-0.46234220169484613,0.2618716517984867
1761315762340782600,8.288782470703126,0.8509002052545547,-0.43911987766996025,0.4610417500881478
1761315762350764800,8.298764892578125,0.7679542110204696,-0.446471263346076,0.618543620949611
1761315762360746500,8.30874658203125,0.6478074901610612,-0.4984250302061438,0.7291326051950454
1761315762370728700,8.318728759765625,0.5077835179209709,-0.6128755852505564,0.7635761420667171
1761315762380711700,8.328711669921875,0.3701344581186771,-0.7314733231022954,0.7668721879374235
1761315762390693600,8.338693603515624,0.25739947482049463,-0.8461386899411678,0.6917153132095932
1761315762400675800,8.34867578125,0.1922726303935051,-0.9901331732474267,0.606256240176037
1761315762410657500,8.358657470703125,0.18728022893369198,-1.1601850578740238,0.5853475633883849
1761315762420640800,8.368640869140625,0.21804244694411754,-1.2697908032357692,0.5394758929209783
1761315762430622500,8.37862255859375,0.22482523895204065,-1.354703859759122,0.47641252036243675
1761315762440604700,8.388604736328125,0.15871522870659827,-1.418694393632561,0.4318623808223754
1761315762450587000,8.3985869140625,0.02022270381748676,-1.4945061520725489,0.39793059286512433
1761315762460568600,8.408568603515626,-0.12103811674118041,-1.541468686516583,0.4433414774203673
1761315762470551800,8.4185517578125,-0.2215378878444433,-1.6172073797203599,0.5381568827442824
1761315762480533500,8.428533447265625,-0.2675970437079668,-1.6718791733674705,0.5747289560772478
1761315762490515700,8.438515625,-0.27644787416160105,-1.6737620645046234,0.5026555073827504
1761315762500497700,8.44849755859375,-0.2757756739884615,-1.6656147061452269,0.36902138231024145
1761315762510480600,8.458480712890625,-0.38686405912339683,-1.6217686962865292,0.19127207504883406
1761315762520462800,8.468462890625,-0.6444616868644952,-1.5817400527589023,-0.039794688641279934
1761315762530444500,8.478444580078126,-1.0661632506132126,-1.6339162301979957,-0.0908514335963875
1761315762540426800,8.4884267578125,-1.4739765742629765,-1.8683720518045126,0.19162629531398415
1761315762550408700,8.49840869140625,-1.6902134330898522,-2.0318428044751284,0.5229129902526736
1761315762560391700,8.5083916015625,-1.865703270986676,-1.9761200404703616,0.6747557028412818
1761315762570374000,8.518373779296875,-2.023481511104107,-1.8505749676987528,0.7100296261224895
1761315762580355600,8.52835546875,-2.1726041510790584,-1.7261664977416395,0.6836974264487624
1761315762590337800,8.538337890625,-2.43981950199306,-1.560344067378342,0.5787390685014426
1761315762600319700,8.54831982421875,-2.773933383181691,-1.287063863467425,0.36193303148448464
1761315762610302700,8.558302734375,-3.228089940333366,-0.8959485766403377,0.12030096157304943
1761315762620284700,8.56828466796875,-3.5168495990574358,-0.41249183685481544,-0.029455446260794996
1761315762630266600,8.5782666015625,-3.5984710666894912,0.008443857087939977,0.0034109774872660634
1761315762640248800,8.588248779296874,-3.396490696752071,0.21115794812738894,0.06629113896600902
1761315762650231600,8.5982314453125,-2.894938182175159,0.31781843381747604,0.044773061575740576
1761315762660213800,8.6082138671875,-2.154009340724349,0.4121721033811569,-0.002951177955791354
1761315762670195500,8.618195556640625,-1.4058306742757558,0.3705879009746015,-0.14191292779184878
1761315762680177700,8.628177734375,-0.8060837429285049,0.3402626130767166,-0.3773969234023243
1761315762690159900,8.638159912109375,-0.40267303815186023,0.42266310225725173,-0.5979110211569816
1761315762700142600,8.648142578125,-0.17408640083968638,0.5656134833380579,-0.6842899124491959
1761315762710124800,8.658124755859374,-0.11565174752771853,0.6961115023419261,-0.5698972250718624
1761315762720106500,8.6681064453125,-0.2277905184984207,0.7820411885619163,-0.27096893129386007
1761315762730088700,8.678088623046875,-0.23845102872252463,0.8465610070064663,0.06087795481085777
1761315762740071700,8.68807177734375,-0.16377017400860786,0.9050253248043357,0.3243188286874443
1761315762750053600,8.6980537109375,-0.25203531743884083,0.8841216529853642,0.4692403637107461
1761315762760035800,8.708035888671875,0.43507016388773917,0.7287032738670707,0.8441646133892238
1761315762770017500,8.718017578125,1.1402993309259415,0.7280771047927439,0.8855711211413144
1761315762779999700,8.727999755859376,1.8144862939685582,0.7805556261792779,0.558716709561646
1761315762789982700,8.737982666015625,2.1734189745932815,0.609472791069746,0.5485752547755837
1761315762799964700,8.747964599609375,2.1684470313996074,0.3528562833204865,0.7559030501555651
1761315762809947000,8.75794677734375,1.9730542231589554,0.30580154054835434,0.9001136604305356
1761315762819928600,8.767928466796874,1.6906453947663307,0.43988633199781174,0.8940263033408671
1761315762829911800,8.777911865234374,1.384354755526781,0.5744106839083135,0.7721238248553126
1761315762839893500,8.7878935546875,0.9316694399714469,0.6923202933654189,0.7320665397550911
1761315762849875700,8.797875732421875,0.4752957912921905,0.744448832270503,0.7950911512058227
