time,seconds_elapsed,z,y,x
1761315226444481000,0.06848095703125,-0.23427052816748617,0.02440459261201322,0.17302001371718942
1761315226454462000,0.0784619140625,-0.352180283755064,0.12796813520006833,0.19247019879221916
1761315226464444200,0.088444091796875,-0.35337095484435554,0.18898600993826983,0.17142821448110043
1761315226474425000,0.098425048828125,-0.24453180994093418,0.18470376604180783,0.12079130237326026
1761315226484407000,0.108406982421875,-0.07750526448488235,0.17216536964923143,0.11533880912102758
1761315226494389000,0.118388916015625,0.05289923101663589,0.1445649401379749,0.09762516551502048
1761315226504370000,0.128369873046875,0.06218728384375572,0.08536359503613784,0.07001790440417825
1761315226514352000,0.13835205078125,-0.10175181699097156,0.04018995330287144,0.03459880049861967
1761315226524334000,0.148333984375,-0.2500549572765827,0.07526488341325893,-0.03597797989733517
1761315226534315000,0.15831494140625,-0.2614537186473608,0.16400951745612546,-0.09118914111815392
1761315226544297000,0.168296875,-0.193072840860486,0.18888539910800753,-0.12100889064669608
1761315226554278100,0.178278076171875,-0.1795148556292057,0.15499197039976714,-0.08828509023971855
1761315226564260000,0.188260009765625,-0.16784429157972336,0.10125188637850806,0.0053818391688168045
1761315226574242000,0.198241943359375,-0.11463234135210514,0.0688219360852614,0.09584295827336609
1761315226584223000,0.208222900390625,-0.022287819653749465,0.04839662236776203,0.14978219986222682
1761315226594205200,0.218205078125,0.06207271755337715,0.002832666142657399,0.1983849757939577
1761315226604187100,0.228187255859375,0.0988783073812723,-0.07552682228507474,0.23904607200622557
1761315226614168000,0.23816796875,0.12065467038154601,-0.16096494386214763,0.24216164674349128
1761315226624150000,0.24814990234375,0.10993804605603218,-0.1968168131617829,0.20815883937664328
1761315226634132200,0.25813232421875,0.0744143127322197,-0.23598978970814494,0.1535225554343313
1761315226644113200,0.268113037109375,0.014592004454135894,-0.2797646157604642,0.08414411797747015
1761315226654094800,0.2780947265625,-0.0685316844344139,-0.3003784012547694,0.0023490473441779612
1761315226664076000,0.288075927734375,-0.15574176585376262,-0.34886597157530486,-0.058289253491908305
1761315226674058000,0.29805810546875,-0.1856272010296583,-0.36223124724607914,-0.06669146339520812
1761315226684040000,0.3080400390625,-0.19957506236135958,-0.35242282380666584,-0.0341615050598979
1761315226694020900,0.318020751953125,-0.22582184877395628,-0.33397337673939764,0.039853725352138276
1761315226704002800,0.3280029296875,-0.25441432152986526,-0.31000312042403966,0.10129325956851243
1761315226713985000,0.337985107421875,-0.30683249103128907,-0.2507219880842604,0.1503861571047455
1761315226723966000,0.347966064453125,-0.41473523186743255,-0.17604074977785347,0.13930990568660198
1761315226733948000,0.357947998046875,-0.4805944822221994,-0.1383220819593407,0.1154152353581041
1761315226743928800,0.3679287109375,-0.48806116484105583,-0.12125004245880991,0.07710961623080075
1761315226753911000,0.3779111328125,-0.4351280315548181,-0.10552200144575909,0.05692490633614361
1761315226763893000,0.38789306640625,-0.3290793941527605,-0.11985981194311753,0.07530329746119678
1761315226773874000,0.3978740234375,-0.21066811878383157,-0.14099877208899705,0.09923866512626409
1761315226783855900,0.40785595703125,-0.1184247193723917,-0.16839933164659887,0.07539448287598788
1761315226793838000,0.417838134765625,-0.022306524354219436,-0.18008850906500593,0.02786233185045421
1761315226803819000,0.427819091796875,0.01207680676281452,-0.16109616902638227,0.017643281783536077
1761315226813800700,0.43780078125,-0.011620879688858984,-0.13148136748541145,0.03782324243783951
1761315226823783000,0.447782958984375,-0.04306698831021785,-0.10560290292855351,0.04188676554970443
1761315226833763800,0.457763916015625,-0.02886485995650291,-0.08162614380717277,-0.00803228061236441
1761315226843746000,0.46774609375,-0.06035539224147796,-0.064045351066906,-0.04955496209003031
1761315226853727000,0.47772705078125,-0.12150573425292968,-0.04677596236336976,-0.08513824358135462
1761315226863709000,0.487708984375,-0.11687924349606037,-0.0011238711970858275,-0.10907901807390152
1761315226873691000,0.49769091796875,-0.0507639725536108,0.022807624010462314,-0.0913995689984411
1761315226883672000,0.507672119140625,0.03342354617416859,0.01818021993814036,-0.05157923445925116
1761315226893653800,0.51765380859375,0.08464753745496273,-0.007738193036615848,0.018933979181200263
1761315226903636000,0.527635986328125,0.07069441542625426,-0.0393982001369819,0.05130618967153132
1761315226913617000,0.537616943359375,0.06813011789619922,-0.033045323978923256,0.03634111412130296
1761315226923599000,0.54759912109375,0.13858078769445417,-0.00014086977541446686,0.026717472664266825
1761315226933580000,0.557580078125,0.19654840801656245,-0.0028590061603114007,0.031448154447972776
1761315226943562000,0.56756201171875,0.23168343428373336,-0.058239587397594,0.021299758464470506
1761315226953544000,0.5775439453125,0.21792028186917303,-0.12017649494316428,0.02151354734562337
1761315226963524900,0.58752490234375,0.1661643756687641,-0.1661895649089478,0.04178761602416634
1761315226973506800,0.5975068359375,0.111165542024374,-0.18972004156755282,0.03112301414683461
1761315226983489000,0.607489013671875,0.02443652212023735,-0.19883569696983322,0.0322219883646816
1761315226993470000,0.617469970703125,-0.01699555846452713,-0.19834389486489817,0.026616496507823467
1761315227003452000,0.627451904296875,-0.010293430477380752,-0.19426780453240497,0.03373378116711974
1761315227013433900,0.637433837890625,-0.08432721945941447,-0.22657701452281326,0.07438187176734208
1761315227023414800,0.647414794921875,-0.22814883041679856,-0.2158850314482115,0.14800802979655564
1761315227033397000,0.65739697265625,-0.3093289840221405,-0.12042577526280655,0.177451128032431
1761315227043378000,0.6673779296875,-0.3358142553657293,-0.006894910612888634,0.18142580381706355
1761315227053359900,0.67735986328125,-0.3253659265875816,0.06412435285355896,0.18868761151358485
1761315227063341800,0.687341796875,-0.2648211492538452,0.07797691885093226,0.2143001186106354
1761315227073323000,0.697322998046875,-0.20966391017735003,0.08451709774201735,0.26279285829663274
1761315227083305000,0.707304931640625,-0.11141513287127017,0.07865067166034131,0.26451515204459425
1761315227093287000,0.717286865234375,-0.03356266238391399,0.03972547759627923,0.2398078501589596
1761315227103267800,0.727267822265625,0.004310264414548874,-0.033655784027464684,0.21731975869275627
1761315227113250000,0.73725,-0.03199848180711269,-0.1305481052232906,0.17201427074074743
1761315227123232000,0.74723193359375,-0.1018108537018299,-0.2164354866715148,0.10616824519373476
1761315227133213000,0.757212890625,-0.1587058763563633,-0.2473809522943571,0.024964564582332968
1761315227143195000,0.76719482421875,-0.17459844201505184,-0.2481876290347427,-0.04397884245812893
1761315227153175800,0.77717578125,-0.15560206512212751,-0.21100757987126706,-0.040484862862527365
1761315227163158000,0.787157958984375,-0.127355629324913,-0.15732342728832735,0.007109685874730348
1761315227173139700,0.7971396484375,-0.09543898058235645,-0.10282152858171612,0.048296851787716144
1761315227183121000,0.807120849609375,-0.042859483039379115,-0.061972581647150214,0.08402239129394293
1761315227193102800,0.817102783203125,-0.0030792613148689267,-0.04610934254764579,0.08666150762587785
1761315227203085000,0.8270849609375,-0.010714870759844779,-0.06268566181994974,0.09648834350481629
1761315227213066000,0.83706591796875,-0.061223407247662544,-0.1003847116225399,0.08619279413558542
1761315227223048000,0.8470478515625,-0.1395078394114971,-0.11711283305622637,0.0348825128108263
1761315227233028900,0.85702880859375,-0.20180150623917578,-0.11069446304705925,-0.03573693768307566
1761315227243011000,0.867010986328125,-0.19299509944915771,-0.09677623880179598,-0.11614559545926749
1761315227252992800,0.87699267578125,-0.1611240434139967,-0.11107567178383469,-0.1609169765345752
1761315227262974000,0.886973876953125,-0.15703005209863186,-0.1387994719464332,-0.1986880503937602
1761315227272956000,0.896955810546875,-0.10527531494200229,-0.14165041353129781,-0.20864881485067308
1761315227282938000,0.906938232421875,-0.05392155980169773,-0.11654227575981058,-0.19176073534861207
1761315227292919000,0.9169189453125,-0.038061142846941946,-0.12036437306492588,-0.17101656494028866
1761315227302901000,0.92690087890625,-0.08159984032213688,-0.162921466491092,-0.19370646258890628
1761315227312882000,0.9368818359375,-0.09388765948712825,-0.18484737576358018,-0.26776480149030685
1761315227322863900,0.94686376953125,-0.057065118524432176,-0.14150389033323152,-0.2628122205842286
1761315227332845800,0.956845703125,-0.023425299251079557,-0.08904842102872207,-0.21582031391523776
1761315227342826800,0.96682666015625,-0.04419043938219547,-0.07794127214881591,-0.11855952473320067
1761315227352809000,0.97680908203125,-0.1097404776573181,-0.06943172028036787,0.004079012941941618
1761315227362791000,0.986791015625,-0.14457681323885918,-0.04576976272920146,0.08187127767466008
1761315227372772000,0.996772216796875,-0.12395371192693709,-0.027538191629736683,0.12906469826512038
1761315227382753800,1.00675390625,-0.057305357021093364,-0.053253528913599434,0.17160992772355674
1761315227392736000,1.016736083984375,-0.014130816683173179,-0.13172162424838169,0.1834506607081741
1761315227402717000,1.026717041015625,-0.005842880809307098,-0.22605585845923049,0.13197327918820081
1761315227412699000,1.036698974609375,0.056256140229105946,-0.23900935672502963,0.05581131907105445
1761315227422679800,1.0466796875,0.06875672536194324,-0.16672717891698702,0.018365750839188694
1761315227432662000,1.056662109375,0.012872341054677962,-0.12597780163306743,-0.00420607338771224
1761315227442644000,1.06664404296875,-0.08529869484007357,-0.16793324850481003,-0.03633402679339051
1761315227452625200,1.076625244140625,-0.16543547687232493,-0.19922128048762677,-0.0719334557019174
1761315227462606800,1.08660693359375,-0.18216916953027248,-0.1937651157072745,-0.0987297657560557
1761315227472589000,1.096589111328125,-0.13200667000114916,-0.15638589070988818,-0.10635127361044287
1761315227482570000,1.106570068359375,-0.06493512124717235,-0.11575833144104107,-0.06665522303804755
1761315227492552000,1.116552001953125,-0.09264730403721332,-0.10015747873792424,0.031719226474314924
1761315227502532900,1.126532958984375,-0.1266378364443779,-0.059022271341038865,0.12620536331124604
1761315227512514800,1.136514892578125,-0.13194587972462177,-0.014319544188305736,0.16236673695147036
1761315227522497000,1.1464970703125,-0.08697744170725345,-0.0017565887432079762,0.1647352196484804
1761315227532478000,1.15647802734375,0.004261749097704887,-0.043407148083974605,0.16577289213314653
1761315227542460000,1.1664599609375,0.1103074638903141,-0.08234329736689106,0.1564220762681216
1761315227552441900,1.17644189453125,0.22396599177420137,-0.13514262080616316,0.1251473056256771
1761315227562423000,1.186423095703125,0.2800987978845835,-0.18049203009828924,0.0697373338971287
1761315227572404700,1.19640478515625,0.29426994657814504,-0.19033578057941047,0.01145619064643979
1761315227582387000,1.206386962890625,0.22503332874476908,-0.1720383092034608,-0.020824907494336367
1761315227592367900,1.216367919921875,0.10522621510326861,-0.1511105623891577,-0.05827259461805224
1761315227602350000,1.22635009765625,-0.057635611888766286,-0.1447433471784927,-0.0932898397244513
1761315227612331000,1.2363310546875,-0.23159984765350816,-0.16336922852490096,-0.0886067234095186
1761315227622313000,1.24631298828125,-0.3797989430427551,-0.19419344238825142,-0.04652560433149337
1761315227632295000,1.256294921875,-0.4363379918664694,-0.17440801574317738,0.023536358410120008
1761315227642275800,1.26627587890625,-0.37002573704719544,-0.11341287342659197,0.0949823228560388
1761315227652257800,1.2762578125,-0.24053309569358824,-0.050580355048435735,0.1799576309606433
1761315227662240000,1.286239990234375,-0.11552549079954623,-0.0004276562503524474,0.23417247462049126
1761315227672221000,1.296220947265625,-0.0026671733826398847,-0.016951431628433055,0.23491255239807068
1761315227682202600,1.30620263671875,0.08067863382399082,-0.09548728583664633,0.22774879824854433
1761315227692183600,1.31618359375,0.12323767261207103,-0.1829564474504441,0.18657726829610763
1761315227702165500,1.32616552734375,0.07804419366717338,-0.27780604730490593,0.1182222556028515
1761315227712147500,1.3361474609375,-0.01587444548010826,-0.33114735953323543,0.0603664250921458
1761315227722128600,1.346128662109375,-0.11285539480745792,-0.29745487849088387,0.03327485841847956
1761315227732110600,1.356110595703125,-0.16463643544912338,-0.21255882790125905,0.01115172780714929
1761315227742092500,1.366092529296875,-0.13877718704938888,-0.1368269662970677,0.017631591345742343
1761315227752073500,1.376073486328125,-0.050721886977553365,-0.0901343439687509,0.04886654143445193
1761315227762055700,1.3860556640625,0.013934417328238486,-0.09412712166565469,0.06347893108949065
1761315227772036600,1.39603662109375,0.05428980859220028,-0.10981858439482747,0.08113733737692236
1761315227782018600,1.4060185546875,0.046757074999809266,-0.09926498687760904,0.07973653066828847
1761315227792000500,1.41600048828125,0.016405775877833366,-0.06347113137552514,0.07251213237270712
1761315227801981400,1.4259814453125,-0.036789223214983936,-0.00577734129242599,0.06942834101319313
1761315227811963600,1.435963623046875,-0.14123042542040348,0.018739018298103472,0.020190993504971264
1761315227821945600,1.445945556640625,-0.2316898640245199,-0.011256987413065507,-0.05830109006017446
1761315227831926500,1.455926513671875,-0.27113281661868094,-0.012098821090155979,-0.0813541949979961
1761315227841908500,1.465908447265625,-0.24427462030947206,-0.004526558063330594,-0.07641849216148257
1761315227851889700,1.4758896484375,-0.19188275429308413,-0.006963926436711335,-0.09026018970496952
1761315227861871400,1.485871337890625,-0.14761924967467785,-0.011662019983422941,-0.09870916135944426
1761315227871853600,1.495853515625,-0.09205810597240924,-0.044339629461383444,-0.06333937648832798
1761315227881834500,1.50583447265625,-0.02875263175368309,-0.0421270679784473,-0.06758541656024754
1761315227891816700,1.515816650390625,0.03369476433098316,-0.035784578500373754,-0.07871369042657315
1761315227901798400,1.52579833984375,0.020309213057160377,-0.053743938212469214,-0.08737762000598012
1761315227911779600,1.535779541015625,0.012906243324279785,-0.06902541820153128,-0.08385375672876834
1761315227921761500,1.545761474609375,0.0011176058530807495,-0.06946363152228295,-0.0858949071675539
1761315227931743700,1.55574365234375,0.00030687399208545685,-0.050196936088264914,-0.08345226325578987
1761315227941724400,1.565724365234375,-0.011338555616140365,-0.0630878265797859,-0.08485898824855685
1761315227951706600,1.57570654296875,-0.028425884017348288,-0.09482188986362888,-0.0921739143718034
1761315227961687600,1.5856875,-0.03139350165128708,-0.14813315401356666,-0.12192870890535414
1761315227971669500,1.59566943359375,-0.06715045920908451,-0.18832263239240274,-0.14330467441119252
1761315227981651500,1.6056513671875,-0.0811234549820423,-0.20606077111884952,-0.15462525597922502
1761315227991632400,1.61563232421875,-0.0488379729270935,-0.17951217048177495,-0.14864844659194348
1761315228001614600,1.625614501953125,0.027111878809332846,-0.14482368240570648,-0.10305340110883116
1761315228011596500,1.635596435546875,0.07677519664466381,-0.14091673809504135,-0.048734074161201714
1761315228021577500,1.645577392578125,0.04444879805743694,-0.17584351017270236,0.01482778597138822
1761315228031559400,1.655559326171875,-0.04422434165179729,-0.171773940912541,0.050027548037841915
1761315228041540600,1.66554052734375,-0.11522153941690921,-0.12872228716877288,0.05723930604755878
1761315228051522600,1.6755224609375,-0.14533902978301047,-0.08625922870161011,0.041939737845957274
1761315228061504500,1.68550439453125,-0.14175123442411422,-0.07565676880767569,0.045537543142214414
1761315228071485400,1.6954853515625,-0.16095920824110507,-0.10433131209015846,0.05621208189167082
1761315228081467600,1.705467529296875,-0.1892787092745304,-0.12873731120796875,0.06093509182557463
1761315228091449600,1.71544970703125,-0.19577742364406583,-0.11647641658252104,0.043411637029424306
1761315228101430500,1.725430419921875,-0.19656243654191494,-0.11220994564392603,0.015026888740062713
1761315228111412500,1.73541259765625,-0.17677637057602405,-0.12528048528498037,0.021446473458781836
1761315228121393400,1.745393310546875,-0.13018296170532703,-0.11204828880880958,0.07064275830425322
1761315228131375600,1.755375732421875,-0.08833762414455414,-0.08372989288708195,0.11666998465955257
1761315228141357600,1.765357666015625,-0.07214929040968418,-0.06323458723986987,0.12481800060607492
1761315228151338500,1.77533837890625,-0.04956453363597393,-0.035490205513546244,0.13638364297635852
1761315228161320400,1.785320556640625,-0.019490297889709473,0.0019944023873424157,0.11677329890355467
1761315228171302700,1.795302734375,-0.01398527073264122,-0.01153156657074578,0.11150069226287304
1761315228181283600,1.80528369140625,-0.10775251871049403,-0.05276006914111785,0.1057804149199277
1761315228191265500,1.815265625,-0.1647533398270607,-0.07915248370263725,0.07937061996534467
1761315228201247500,1.82524755859375,-0.15961305432915687,-0.070395752140088,0.05536021430268884
1761315228211228700,1.835228759765625,-0.08480477384328841,-0.030141474029887465,0.05790113095715642
1761315228221210400,1.84521044921875,0.011412205374240874,-0.021839564429596066,0.06892784414514899
1761315228231191600,1.855191650390625,0.04106792344748974,-0.04582040607105009,0.0723614718556404
1761315228241173500,1.865173583984375,-0.0010036240845918655,-0.07736511622867547,0.08343940377421677
1761315228251155700,1.87515576171875,-0.04457973096072673,-0.08377447181432507,0.06119666537120938
1761315228261136600,1.88513671875,-0.049612464430928226,-0.0727106049537193,-0.013928060652688146
1761315228271118600,1.89511865234375,-0.023847324055433272,-0.09511626056716777,-0.040570495319366455
1761315228281100500,1.9051005859375,0.01637947239279747,-0.13042190329404546,-0.023538111975789068
1761315228291081700,1.915081787109375,0.01614800172448158,-0.13329397899848408,-0.016753347206488252
1761315228301063400,1.9250634765625,-0.07135843229293823,-0.13651175373489968,-0.05706073461025953
1761315228311044400,1.93504443359375,-0.15773206288814542,-0.11597855919613502,-0.10026946947872638
1761315228321026600,1.945026611328125,-0.1263461600214243,-0.06064076678780839,-0.12394056018441915
1761315228331008500,1.955008544921875,-0.03520166176259518,-0.050444193414179606,-0.14069383432567117
1761315228340989700,1.96498974609375,0.040999534386396405,-0.11805216886610723,-0.11545878223888575
1761315228350971400,1.974971435546875,0.05992109247744083,-0.16604131554467602,-0.06276135740466415
1761315228360953600,1.98495361328125,0.06196867265701293,-0.1589678882934153,-0.052143078887090084
1761315228370934500,1.9949345703125,0.04613923536241054,-0.12456930480832233,-0.06483275685124099
1761315228380916500,2.00491650390625,0.029615386062860488,-0.08332700204146094,-0.07909801356904209
1761315228390897400,2.0148974609375,0.01846738458275795,-0.05920458737169392,-0.08750877210497855
1761315228400879600,2.024879638671875,0.024002806878089904,-0.055014076879294584,-0.08055055046491325
1761315228410861600,2.034861572265625,0.04932487966120243,-0.06310415209350176,-0.06274922857545316
1761315228420842800,2.0448427734375,0.028017887738347052,-0.07349456753879785,-0.05017813548967242
1761315228430824400,2.054824462890625,-0.05662497354149818,-0.07958844570079818,-0.0466864209163934
1761315228440806700,2.064806640625,-0.14277707034051418,-0.02683518075980246,-0.06548435262776911
1761315228450787600,2.07478759765625,-0.18199439748525617,0.05044637623811141,-0.10030468692258
1761315228460769500,2.08476953125,-0.18696750972270965,0.07984205513568594,-0.1285180972330272
1761315228470750500,2.09475048828125,-0.13847908088564873,0.03891786014097742,-0.11430654346384107
1761315228480732400,2.104732421875,-0.06530453908145427,-0.02643294750130735,-0.07696721208542585
1761315228490714600,2.114714599609375,-0.032393618604540826,-0.10488138372097164,-0.10124942042678595
1761315228500695600,2.124695556640625,0.00014437690675258636,-0.11524308452843687,-0.08478950320892036
1761315228510677500,2.134677490234375,0.014653963774442672,-0.08001672671600245,-0.04642784304544329
1761315228520659500,2.144659423828125,0.014983634120225905,-0.03273093340066261,-0.0180430947560817
1761315228530640600,2.154640625,0.0075333181142807,-0.015849155775224787,0.036244156552851195
1761315228540622600,2.16462255859375,-0.04819382980465889,-0.05039311168091371,0.07746537086591124
1761315228550604500,2.1746044921875,-0.07737959227859974,-0.08794709959016181,0.09559702068828045
1761315228560585500,2.18458544921875,-0.08282032202780246,-0.1088435836165212,0.0760825382053852
1761315228570567700,2.194567626953125,-0.04434066150784492,-0.129104080427438,0.05923778638839721
1761315228580548600,2.204548583984375,0.03339607364535332,-0.1380768384939991,0.06339103361032902
1761315228590530600,2.214530517578125,0.1205506254851818,-0.14944931464605032,0.06854089065417647
1761315228600512500,2.224512451171875,0.15028525401353834,-0.1629012274206616,0.07714381076134741
1761315228610493700,2.23449365234375,0.1151701014906168,-0.1809527794778347,0.06164601657390594
1761315228620475600,2.2444755859375,0.004723521390557289,-0.16827413436435162,0.041404534990713
1761315228630457600,2.25445751953125,-0.0971884545981884,-0.11723309843502938,0.024047011345997453
1761315228640438500,2.2644384765625,-0.18814415228664874,-0.11740777001534589,0.03891710208915174
1761315228650420700,2.274420654296875,-0.248029004406929,-0.12512822646587154,0.08849990203417837
1761315228660401700,2.284401611328125,-0.280506209641695,-0.11295336615606211,0.13542312738113105
1761315228670383400,2.29438330078125,-0.27349311600923537,-0.08730833589574322,0.1402942405488342
1761315228680365800,2.30436572265625,-0.24151450794637203,-0.04364507132596336,0.17153445133455097
1761315228690347000,2.314346923828125,-0.22922318165004252,-0.026929946371167898,0.21996303974315523
1761315228700328700,2.32432861328125,-0.21353636769652365,0.008663363323826343,0.21613566347472368
1761315228710311000,2.334310791015625,-0.1776227582722902,0.028672132129687816,0.16921974465139208
1761315228720291800,2.344291748046875,-0.14516016608476637,0.0050397659991867835,0.13752740618400275
1761315228730273800,2.354273681640625,-0.10825053136050701,-0.03796287010423839,0.1116529602151364
1761315228740255000,2.3642548828125,-0.1246726738512516,-0.07767998173097149,0.06848294992186128
1761315228750236700,2.374236572265625,-0.13600713781416415,-0.09355082874819635,0.0113327103972435
1761315228760219000,2.384218994140625,-0.09584697686135768,-0.08402381606604903,0.003947349386289716
1761315228770199800,2.39419970703125,0.0027536826223134993,-0.05076642023902386,0.037802638041228055
1761315228780181800,2.404181640625,0.1361450849801302,-0.0324639986933209,0.07650412461832165
1761315228790163700,2.414163818359375,0.2863625344544649,-0.04812328531909734,0.1201975742638111
1761315228800145000,2.424144775390625,0.3831032452851534,-0.11379172580949962,0.14801752827726303
1761315228810126800,2.434126953125,0.3838894272267818,-0.16660369866779073,0.09720767075531184
1761315228820108000,2.44410791015625,0.28002456360459327,-0.19238020068751646,0.03128646108023822
1761315228830089700,2.45408984375,0.12745616708993912,-0.17275981014473363,0.01700987925082445
1761315228840072000,2.464072021484375,-0.011908464458584785,-0.11169805059903301,0.00913739231005311
1761315228850052900,2.474052978515625,-0.11116788011193275,-0.07487666041380725,0.004375365540012717
1761315228860034800,2.484034912109375,-0.15970482426583765,-0.04776587758301757,0.021502295299246906
1761315228870016800,2.494016845703125,-0.1663485000640154,-0.04305395529870875,0.0404904888857156
1761315228879997700,2.503997802734375,-0.16034195312559604,-0.05727545507317409,0.05241480850055814
1761315228889980000,2.51397998046875,-0.14439444240927696,-0.05846531331171281,0.06340213952623307
1761315228899961900,2.5239619140625,-0.1249906537592411,-0.06839511637478135,0.053574280733987685
1761315228909942800,2.53394287109375,-0.1515039821535349,-0.07575026491056196,0.02910517151840031
1761315228919924700,2.5439248046875,-0.20643559578061102,-0.1069049345709849,-0.022285408500954507
1761315228929906000,2.553906005859375,-0.2168359937638044,-0.12045926654045469,-0.06756408151127398
1761315228939887900,2.563887939453125,-0.14928864419162272,-0.11794248881340026,-0.0919566183593124
1761315228949869800,2.573869873046875,-0.07309913848042487,-0.12850519208568148,-0.0842294581733644
1761315228959850800,2.583850830078125,0.016722586742043494,-0.14987173217604868,-0.050226431610807774
1761315228969833000,2.5938330078125,0.03296586553454399,-0.16463786022122948,-0.05654292128123343
1761315228979814700,2.603814697265625,-0.0027659575819969176,-0.18580615605944767,-0.04880545889697969
1761315228989795800,2.6137958984375,-0.03571545650362968,-0.14912801940296777,-0.052166971219331025
1761315228999777800,2.62377783203125,-0.06499065082669257,-0.10038957046074792,-0.07507058468386531
1761315229009759000,2.633759033203125,-0.06820259861052036,-0.08029750728560611,-0.07734715131372213
1761315229019741000,2.643740966796875,-0.050376434540748596,-0.09369978136536665,-0.03672850600369274
1761315229029723000,2.653722900390625,-0.04214285920262337,-0.1300070297496859,-0.024142434544488785
1761315229039703800,2.663703857421875,-0.048777182650566096,-0.17630725522693247,-0.009831073662638664
1761315229049686000,2.67368603515625,-0.05095218860208988,-0.16499536842200904,-0.02189319431297481
1761315229059667700,2.683667724609375,-0.039971360382437704,-0.1043945774515625,-0.06256123172268271
1761315229069648600,2.693648681640625,-0.04550269102454185,-0.05494688426144421,-0.07820318362116813
1761315229079630800,2.703630859375,-0.03055237465202808,-0.03641314731105231,-0.0831189396481961
1761315229089611800,2.71361181640625,-0.03350830184817314,-0.05964598359679803,-0.09021101680099963
1761315229099594000,2.723593994140625,-0.04425181418061256,-0.10150744117530994,-0.09172828949615358
1761315229109575700,2.73357568359375,-0.05912555818557739,-0.13472500731544568,-0.05823240873813629
1761315229119556900,2.743556884765625,-0.07916647569537162,-0.13847025825837625,-0.030100100839883088
1761315229129538800,2.753538818359375,-0.10655834048986434,-0.14312033995338716,-0.005103460618853569
1761315229139520800,2.763520751953125,-0.12245324423611163,-0.1400494263417553,0.037226810914650556
1761315229149501700,2.773501708984375,-0.10068857167363167,-0.12636836272007784,0.047246392886713146
1761315229159484000,2.78348388671875,-0.07094634436070918,-0.12378594501144252,0.06922251624278723
1761315229169465900,2.7934658203125,-0.03390811482071876,-0.12168824207982978,0.08355053599849342
1761315229179447000,2.803447021484375,-0.04843582186698913,-0.13559949772818944,0.0937988121598959
1761315229189428700,2.8134287109375,-0.10846095924079417,-0.14485441547068767,0.10736636893711983
1761315229199409700,2.82340966796875,-0.19447920052707193,-0.14161146976039743,0.10973397485129535
1761315229209391900,2.833391845703125,-0.27317688966691495,-0.11744727090867235,0.11466551296934485
1761315229219373800,2.843373779296875,-0.26436288409233094,-0.09261862593200057,0.11232925204150378
1761315229229354800,2.853354736328125,-0.16834698040485382,-0.06664968834640458,0.08934658199138938
1761315229239336700,2.863336669921875,-0.07135843229293823,-0.09378661026544868,0.08212086852155626
1761315229249319000,2.87331884765625,-0.014915245059132574,-0.1344129639578983,0.10055902700982987
1761315229259299800,2.8832998046875,-0.005481646281480789,-0.15263917846223338,0.10040624760091305
1761315229269281800,2.89328173828125,-0.033956045615673065,-0.13200684353108516,0.07885492552816867
1761315229279262700,2.9032626953125,-0.0344248321712017,-0.09142064831908792,0.06820289087146521
1761315229289245000,2.913244873046875,-0.0502279659807682,-0.07744156986521557,0.10427198311835527
1761315229299227000,2.923226806640625,-0.09411153137087822,-0.07428064901572652,0.13621383936740458
1761315229309207800,2.933207763671875,-0.11234627624154091,-0.02388130852342583,0.1439188607867807
1761315229319189800,2.943189697265625,-0.11305822390317916,-0.00040491840592585504,0.12188128956705331
1761315229329172000,2.953171875,-0.10098960044682025,-0.02915778762162663,0.09031323506645858
1761315229339153000,2.96315283203125,-0.13733107989430426,-0.06450831066984683,0.07848558075912296
1761315229349134800,2.973134765625,-0.1579389836370945,-0.08507864974807015,0.031183292966708537
1761315229359115800,2.98311572265625,-0.13229600833654404,-0.09710123297246172,-0.013160510346293449
1761315229369098000,2.993097900390625,-0.08120587256848812,-0.10687051171157508,-0.023022271408140657
1761315229379080000,3.003079833984375,-0.017851883032917976,-0.11586425776723772,-0.003903217983618378
1761315229389060600,3.013060546875,0.04022328931689262,-0.1161489290606696,0.01432173614539206
1761315229399042800,3.023042724609375,0.06580664338469505,-0.11514499444882385,0.012912599999830125
1761315229409025000,3.03302490234375,0.08063654824793338,-0.12101230644648894,0.008793035851791501
1761315229419006000,3.043005859375,0.08213584689497948,-0.12224914563191122,-0.010771423252671957
1761315229428987600,3.052987548828125,0.07968319304585457,-0.11944408901538699,-0.0028856384389102457
1761315229438969900,3.062969970703125,0.03630465456843376,-0.1498463054738473,-0.012338818699866532
1761315229448950800,3.07295068359375,-0.0309001651763916,-0.1735755287081003,-0.021655074708163736
1761315229458933000,3.08293310546875,-0.11353577828705311,-0.1705804568116553,-0.019391879016533494
1761315229468914000,3.092913818359375,-0.1667699403464794,-0.11420883697671814,-0.023781053886190055
1761315229478895900,3.102895751953125,-0.14277356320917606,-0.04925780577436089,-0.04729658870398998
1761315229488877800,3.1128779296875,-0.09043371964097023,-0.025773478945577515,-0.05139964010864496
1761315229498859000,3.12285888671875,-0.02603285140097141,-0.0787563331250567,-0.03456577501185238
1761315229508840700,3.1328408203125,0.024192776492238045,-0.17305048192068934,-0.005817746368050575
1761315229518823000,3.142822998046875,0.06506663867235184,-0.2201809933427721,-0.010457827258855103
1761315229528803800,3.152803955078125,0.02650163795650005,-0.2113344372054562,-0.03216170954480767
1761315229538786000,3.1627861328125,-0.07393091312944888,-0.1715867295110598,-0.05540361505299806
1761315229548767000,3.17276708984375,-0.1801151596099138,-0.11379706870489753,-0.05348908666856587
1761315229558748700,3.182748779296875,-0.2547527597039938,-0.04031351575045846,-0.02849427307844162
1761315229568731000,3.19273095703125,-0.2505868721961975,0.021960816189087927,0.01911554629318416
1761315229578711800,3.2027119140625,-0.1954348938167095,0.029630885026091708,0.05272862369008362
1761315229588693800,3.21269384765625,-0.15447276883125305,-0.01341991933430545,0.05959587911106646
1761315229598675700,3.22267578125,-0.12772154002785682,-0.06404376189801841,0.06385368268601596
1761315229608657000,3.232656982421875,-0.14124445394575594,-0.10448087662868201,0.04871054715514183
1761315229618638800,3.242638916015625,-0.14474690910875795,-0.07683104588459246,0.0019439736746251581
1761315229628620800,3.252620849609375,-0.12878478534519672,-0.01987256607240997,-0.051368952709436415
1761315229638601700,3.262601806640625,-0.09686813660264014,-0.009246643104497342,-0.07633307890035211
1761315229648584000,3.272583984375,-0.042883448436856264,-0.035615329730557276,-0.04723506777510047
1761315229658564900,3.28256494140625,0.01523614757657051,-0.07718022464844397,-0.011456848233565688
1761315229668546800,3.292546875,0.014924012887477875,-0.10906960179158486,0.002107128347083926
1761315229678528500,3.302528564453125,-0.040372926920652384,-0.10744886872195639,0.008409589492157102
1761315229688509400,3.312509521484375,-0.0705798491358757,-0.053370118197705596,0.01611672980338335
1761315229698491600,3.32249169921875,-0.08183189551234245,-0.01683548166514374,0.025824323216825724
1761315229708473300,3.332473388671875,-0.08468085520267486,-0.033380163690168406,0.028593714864924548
1761315229718454500,3.34245458984375,-0.0998415994554758,-0.06197102901088074,0.052007177547737954
1761315229728436500,3.3524365234375,-0.12347148136794567,-0.07022781169465743,0.0472204547278583
1761315229738418700,3.362418701171875,-0.11543196729719638,-0.03991692678146064,0.003232113789021969
1761315229748399600,3.372399658203125,-0.1306686993956566,-0.021962615420529616,-0.04641534889005124
1761315229758381600,3.382381591796875,-0.09257657688856125,-0.045623175599053496,-0.06221804430820047
1761315229768362500,3.392362548828125,-0.016985621592402456,-0.07378540371153504,-0.046845483935624356
1761315229778344700,3.4023447265625,0.09865326645374298,-0.1255413190450985,-0.03675225220546126
1761315229788326400,3.412326416015625,0.18170330558419226,-0.15709745477903633,0.003197115540876984
1761315229798307600,3.4223076171875,0.21438567800223826,-0.17512798231448978,0.0009451718956232071
1761315229808289500,3.43228955078125,0.18541092793047428,-0.1844433798062615,-0.01823737521916628
1761315229818271700,3.442271728515625,0.08429623979926108,-0.17154650709852576,-0.020565891231969
1761315229828252700,3.452252685546875,-0.026702713486552235,-0.14302308099083602,-0.03370126713700592
1761315229838234600,3.462234619140625,-0.1313642804443836,-0.10074369939435272,-0.042550124829262494
1761315229848215600,3.472215576171875,-0.18398352547585964,-0.07255196205959655,-0.010995879658311605
1761315229858197500,3.482197509765625,-0.15923896031975746,-0.049245877874549475,0.0506951451011002
1761315229868179500,3.492179443359375,-0.08838204780817031,-0.04207488113348372,0.10590784069187939
1761315229878160400,3.502160400390625,-0.03315875775814056,-0.048404833073681215,0.14629479613788426
1761315229888142600,3.512142578125,-0.007529226461052894,-0.0677566449413076,0.16666976790763438
1761315229898124500,3.52212451171875,-0.05294365468025207,-0.08313510533170775,0.17067228154726324
1761315229908105700,3.532105712890625,-0.1310077220916748,-0.07946832645246758,0.15679017892815172
1761315229918087400,3.54208740234375,-0.1706955893576145,-0.06983806345839984,0.14796514050289988
1761315229928069600,3.552069580078125,-0.16754034019708633,-0.07573282058541662,0.10677293308861553
1761315229938050600,3.562050537109375,-0.15991817475557327,-0.11474338224483653,0.09678754564709961
1761315229948032500,3.572032470703125,-0.17900807515084743,-0.15134252624781802,0.08569098209328949
1761315229958013400,3.582013427734375,-0.21457214048504827,-0.12328817895660177,0.0518711300779134
1761315229967995600,3.59199560546875,-0.24235388137996194,-0.08119482145151123,0.023335209814831614
1761315229977977600,3.6019775390625,-0.2245271327883005,-0.0887279203700833,-0.016821444006636738
1761315229987958500,3.61195849609375,-0.18579554333388804,-0.12322846639230847,-0.033704043615981935
1761315229997940500,3.6219404296875,-0.16939911980628966,-0.17309225696949287,-0.022518632734939453
1761315230007922700,3.631922607421875,-0.1623959630459547,-0.18319321534838526,-0.011629062995314597
1761315230017903600,3.641903564453125,-0.16706453937888144,-0.1812115582781844,-0.012279708923771976
1761315230027885300,3.65188525390625,-0.12729308548271656,-0.16566634475244207,-0.011906930088624357
1761315230037866500,3.661866455078125,-0.04619885659515857,-0.12669701928570865,-0.012966887470334768
1761315230047848400,3.671848388671875,-0.001717325311899185,-0.10641151589769869,0.00680536916591227
1761315230057830700,3.68183056640625,0.0066857613742351526,-0.09573474865853786,0.02626088800318539
1761315230067811600,3.6918115234375,-0.0182125330388546,-0.12330821709763258,0.005913607957959175
1761315230077793500,3.70179345703125,-0.025508535265922543,-0.13525677610458806,-0.05181991134732961
1761315230087775500,3.711775390625,0.0017635025411844253,-0.1273105298078619,-0.10092340334281324
1761315230097756700,3.721756591796875,0.031825463327765466,-0.10845029171630739,-0.08669913622252642
1761315230107738400,3.73173828125,0.08642506852149963,-0.07315121572753414,-0.054802215093746776
1761315230117720600,3.741720458984375,0.13722294334471224,-0.051384424273204055,-0.033090734023228284
1761315230127701500,3.751701416015625,0.11315993071198463,-0.06666059333290904,-0.007790288550034165
1761315230137683700,3.76168359375,0.08384440437853335,-0.06582722951499745,0.016948212191462517
1761315230147664600,3.77166455078125,0.0516004233777523,-0.04494502060916274,0.0058110243663191796
1761315230157646600,3.781646484375,-0.005851648637652397,-0.03963778104651719,0.03364924468882382
1761315230167628500,3.791628662109375,-0.0680436086565256,-0.02539608786739409,0.0647646600510925
1761315230177609500,3.801609375,-0.1092570780545473,0.006579816781729459,0.07842216013409196
1761315230187591700,3.811591796875,-0.1351689334243536,0.04635006510149687,0.08098295053280889
1761315230197573600,3.82157373046875,-0.1749620146304369,0.053996762196067714,0.04265628861747682
1761315230207554600,3.831554443359375,-0.1958615947961807,0.029722865025326606,-0.0014173194520175456
1761315230217536500,3.84153662109375,-0.18234569514095783,0.0022904124921187758,-0.06936002501733601
1761315230227517700,3.851517578125,-0.11267945371866225,-0.043189792705979196,-0.12101232471279799
1761315230237499400,3.86149951171875,-0.04914192430973053,-0.07877194168614222,-0.12449103367403148
1761315230247481600,3.871481689453125,0.02858312040567398,-0.09459730559382587,-0.11358582797385751
1761315230257462500,3.881462646484375,0.08509703478813171,-0.07919409435465931,-0.1145537962231785
1761315230267444700,3.89144482421875,0.08802315136790274,-0.0441156936455518,-0.11947963525280356
1761315230277426400,3.901426513671875,0.0763093326985836,-0.021015023238956928,-0.12321268430128693
1761315230287407600,3.91140771484375,0.09186170661747455,-0.03333367593362927,-0.1105458026908338
1761315230297389600,3.9213896484375,0.07886895405352115,-0.06941528060222044,-0.1014172512743622
1761315230307371500,3.93137158203125,0.01957739165127277,-0.11366946940300986,-0.07127616083696484
1761315230317352400,3.9413525390625,-0.001052139401435852,-0.10165551700964569,-0.06023103520944714
1761315230327334700,3.951334716796875,-0.017201310169696806,-0.06496898698415607,-0.07208572365418076
1761315230337315600,3.961315673828125,-0.011667056918144226,-0.050601438935659826,-0.06440232954472302
1761315230347297500,3.971297607421875,-0.04635843107104301,-0.06872886924063787,-0.0201345140773803
1761315230357279500,3.981279541015625,-0.0785533122330904,-0.10517128831194714,0.005267199813202023
1761315230367260400,3.991260498046875,-0.12132862412035464,-0.12341909359358251,0.010597308794781565
1761315230377242600,4.00124267578125,-0.16633856319189072,-0.1360279796727933,-0.02296900685094297
1761315230387224300,4.011224365234375,-0.21828093187510966,-0.11626602523485198,0.011592530377209186
1761315230397205500,4.02120556640625,-0.20709142934083938,-0.09551027398658916,0.049412411814182995
1761315230407187500,4.0311875,-0.11884615965485572,-0.10560180695001035,0.10754727846197783
1761315230417169700,4.041169677734375,-0.03848492121696472,-0.1082613450154662,0.18719101628027857
1761315230427150600,4.051150634765625,0.019826982498168944,-0.1027411202892661,0.24077552614733574
1761315230437132500,4.061132568359375,0.013995792126655578,-0.0885939735257998,0.24639716542139647
1761315230447113500,4.071113525390625,-0.05798574050068855,-0.09148401414519175,0.21382731346711514
1761315230457095700,4.081095703125,-0.1175964518547058,-0.07680789333786815,0.16644465391486882
1761315230467077400,4.091077392578125,-0.1476999136954546,-0.0861440596230328,0.15430559557080267
1761315230477058600,4.10105859375,-0.10338321758508681,-0.0956236529668793,0.1639770947575569
1761315230487040500,4.11104052734375,-0.05703589242994785,-0.08583725869618355,0.16806925944201648
1761315230497022700,4.121022705078125,-0.0234539408236742,-0.07372386451633646,0.15234744724035262
1761315230507003600,4.131003662109375,-0.0005856909334659576,-0.08259323527365922,0.11869535300731658
1761315230516985600,4.140985595703125,-0.020287585747241973,-0.10413153346804901,0.09675554307363927
1761315230526966500,4.150966552734375,-0.04024959280192852,-0.14062049509482458,0.06873604790009558
1761315230536948500,4.160948486328125,-0.03550795123279094,-0.16251940676253288,0.04924516548849642
1761315230546930400,4.170930419921875,-0.03558277003467083,-0.14892616755478083,0.07566234003193675
1761315230556911400,4.180911376953125,-0.03188800716996193,-0.115974220947735,0.10725932836607098
1761315230566893600,4.1908935546875,-0.060532502374053,-0.10738512843651696,0.11695062823183834
1761315230576875500,4.20087548828125,-0.11504852093756199,-0.10900739587610586,0.10865852763950824
1761315230586856700,4.210856689453125,-0.21394728658497333,-0.1255147324322723,0.05645275877974927
1761315230596838400,4.22083837890625,-0.3009937018752098,-0.15796859332406893,-0.007489478972554206
1761315230606820600,4.230820556640625,-0.33026129741370674,-0.17054242635620756,-0.05033500655181706
1761315230616801500,4.240801513671875,-0.2848369323223829,-0.19181933366805315,-0.11289214662127196
1761315230626783500,4.250783447265625,-0.1631312915831804,-0.19947563884118572,-0.11462123543620109
1761315230636764400,4.260764404296875,-0.012591186025738716,-0.2014528937309049,-0.11093969737924635
1761315230646746600,4.27074658203125,0.0755816029459238,-0.21065368839967993,-0.10760836099945008
1761315230656728600,4.280728515625,0.0805617294460535,-0.23546708100829272,-0.10223718935512005
1761315230666709800,4.290709716796875,-0.001599251890182495,-0.2275011984293349,-0.12284107450991869
1761315230676691500,4.30069140625,-0.06753741270005703,-0.18811346488744018,-0.13060579022727906
1761315230686674400,4.31067431640625,-0.07954115422666072,-0.15769507361231372,-0.13952917446047067
1761315230696655400,4.3206552734375,-0.03286649681329727,-0.17078677477240561,-0.10196772476397455
1761315230706637300,4.33063720703125,0.06616437078118324,-0.19757740400442853,-0.036962022498622536
1761315230716619300,4.340619384765625,0.15477788925766944,-0.1956299779973924,0.027781229438260197
1761315230726600400,4.350600341796875,0.17070786431729792,-0.17287273246729745,0.04902516606226563
1761315230736582400,4.36058251953125,0.09109539842009544,-0.12670394221683964,0.04289879213646054
1761315230746563000,4.37056298828125,-0.01869301003217697,-0.06134020202774554,0.022136209288612006
1761315230756545300,4.380545166015625,-0.1453203250825405,-0.044354708299506454,0.0012590601503849029
1761315230766527500,4.390527587890625,-0.23691490519642827,-0.015074435942526906,-0.012367825598642228
1761315230776508400,4.40050830078125,-0.25646248623132706,0.006371252064965665,0.004215498803183436
1761315230786490000,4.410489990234375,-0.22060674447417258,0.01922565560415387,0.024228505392745136
1761315230796472300,4.420472412109375,-0.12688918085694312,0.028728173165861515,0.06061988839656114
1761315230806453200,4.430453369140625,-0.0029828152030706404,0.01817243849048391,0.09921667249016464
1761315230816435500,4.440435546875,0.04628185870349407,0.002920691485982388,0.12036606269851326
1761315230826417200,4.450417236328125,0.06210545077919959,0.004296071492414922,0.12515906912870706
1761315230836398300,4.4603984375,0.015472878941893576,0.027310817181225865,0.11714271673783659
1761315230846380300,4.47038037109375,-0.028420623320341107,0.07433463509213178,0.09410685519576072
1761315230856361500,4.480361572265625,-0.060031567114591594,0.10351765761971474,0.05075403568148613
1761315230866343200,4.49034326171875,-0.08903788136839866,0.0943869142461568,-0.016924100663512943
1761315230876325400,4.500325439453125,-0.06650397799909115,0.042595041683223096,-0.05072532104365527
1761315230886306300,4.510306396484375,-0.036512159839272494,-0.030804303586483,-0.04948708448559046
1761315230896288500,4.52028857421875,0.011330372309684754,-0.09196956917243078,-0.043349020121991634
1761315230906270200,4.530270263671875,0.06484101322293281,-0.09335304115377366,-0.02817220151722431
1761315230916251100,4.540251220703125,0.07936170600652694,-0.07611017513098195,-0.024554887802898884
1761315230926233300,4.5502333984375,0.060248424735665315,-0.07603601391622797,0.002399170096218586
1761315230936214300,4.56021435546875,0.026425065588951108,-0.08193089890740811,0.02277216910459101
1761315230946196200,4.5701962890625,-0.02098959653675556,-0.07574711397225037,0.0005766308441758156
1761315230956178200,4.58017822265625,-0.10666355443000793,-0.05661755742002278,-0.0377543419200927
1761315230966159400,4.590159423828125,-0.12282032398283481,-0.06598492256104946,-0.04900098146907985
1761315230976141300,4.600141357421875,-0.06188859315812587,-0.11616453762175515,-0.044744712264090776
1761315230986123300,4.610123291015625,-0.013833879563212394,-0.16686890720892697,-0.04591171021685004
1761315230996104200,4.620104248046875,0.05453238517642021,-0.19434289732892066,-0.02839848455376923
1761315231006086400,4.63008642578125,0.07763736643195152,-0.20457690750295296,-0.01371814422905445
1761315231016068000,4.640068115234375,0.0020499182671308517,-0.2035229597369209,-0.027425620933622122
1761315231026049300,4.65004931640625,-0.09123393010795115,-0.147889974641148,-0.025693244183063506
1761315231036031200,4.66003125,-0.14544365920126437,-0.0949215691121295,-0.01770202623344958
1761315231046012400,4.670012451171875,-0.13648703028559683,-0.060677208074368535,-0.005788301077857614
1761315231055994400,4.679994384765625,-0.09448504085838794,-0.07876585900522769,0.021005890084430573
1761315231065976300,4.689976318359375,-0.045157238587737084,-0.09696074678953737,0.06810922123864292
1761315231075957200,4.699957275390625,0.02000409263074398,-0.06785347464559599,0.07326382752284408
1761315231085939500,4.709939453125,0.04164075489938259,-0.04515241628214717,0.054016836869716645
1761315231095921200,4.719921142578125,-0.0022194296151399613,-0.04165432676700875,0.026112346377968786
1761315231105902000,4.729902099609375,-0.1441045195519924,-0.061908302505593746,0.016520999755337832
1761315231115884300,4.73988427734375,-0.2707254048615694,-0.0369786813724786,-0.022560133789107203
1761315231125866500,4.749866455078125,-0.26349837621748445,0.032655831470992415,-0.08401208909563719
1761315231135847400,4.759847412109375,-0.1762286735653877,0.0429045642901212,-0.11629340643212198
1761315231145829000,4.7698291015625,-0.0994189901292324,0.022308369251433757,-0.07055003851950169
1761315231155810300,4.779810302734375,-0.03671849606633186,-0.008749635101482271,-0.044874768384546036
1761315231165792300,4.789792236328125,-0.0022726211071014404,-0.03409123456897214,-0.03408179088719189
1761315231175774200,4.799774169921875,0.005718962168693542,-0.05591295281462371,-0.04083184966929257
1761315231185755100,4.809755126953125,-0.01864040306210518,-0.06677185342134907,-0.06674881960563361
1761315231195737300,4.8197373046875,-0.029355858343839643,-0.028653263032436368,-0.0686254271324724
1761315231205719300,4.82971923828125,-0.03024433161616325,-0.005890099218208342,-0.045918359153345224
1761315231215700500,4.839700439453125,0.011149755045771597,0.0055818735192529854,-0.034694150631874796
1761315231225682200,4.84968212890625,0.054957332590222355,-0.01581718060122803,-0.0733233756903559
1761315231235664400,4.859664306640625,0.0606195961356163,-0.03958541153846308,-0.10369323338232934
1761315231245645300,4.869645263671875,0.07511223186850548,-0.05942916250834241,-0.10819083706252276
1761315231255627500,4.87962744140625,0.036322190225124354,-0.07218525677220895,-0.135758935206756
1761315231265608200,4.889608154296875,0.011442600512504578,-0.1089606889238581,-0.13411416367441414
1761315231275590100,4.899590087890625,-0.02352759058177471,-0.15556927709737792,-0.12973952878676354
1761315231285572400,4.909572265625,-0.05380874707698822,-0.20221286351904272,-0.11960910685136913
1761315231295553300,4.91955322265625,-0.07014554937183856,-0.21241136398827656,-0.12286745106019079
1761315231305535200,4.92953515625,-0.06094985100328922,-0.18565604353165252,-0.08996252193264663
1761315231315517200,4.93951708984375,-0.04746785361766815,-0.1759824985182844,-0.01250102352425456
1761315231325498400,4.949498291015625,-0.037217677760124204,-0.17132071725232526,0.07634476933814585
1761315231335480300,4.959480224609375,-0.06911094562709331,-0.1735489877610467,0.12675349871329963
1761315231345462300,4.969462158203125,-0.07660510077476501,-0.1721168360660784,0.13325002112574874
1761315231355443200,4.979443115234375,-0.07615501891970634,-0.17048066796530037,0.1410726045101881
1761315231365425400,4.98942529296875,-0.10587211179137229,-0.1656708565307781,0.12058540453761815
1761315231375406300,4.99940625,-0.15271218889951704,-0.1632877607865259,0.10901895844973623
1761315231385388300,5.00938818359375,-0.22772563656866548,-0.1522537958738394,0.10849880703315139
1761315231395370200,5.019370361328125,-0.2894090625435114,-0.1585757106380537,0.1433678027752787
1761315231405351400,5.029351318359375,-0.35245968521833415,-0.1604824393085204,0.1922516606707126
1761315231415333400,5.03933349609375,-0.4084890309542417,-0.14498675487977453,0.24492658141218124
1761315231425315300,5.0493154296875,-0.3882230725169182,-0.10854290190320462,0.2608031457841396
1761315231435296300,5.059296142578125,-0.31096564531326293,-0.08233059314894489,0.26133717959560454
1761315231445278500,5.069278564453125,-0.2544330262303352,-0.06261590278567745,0.26718364060148597
1761315231455260200,5.07926025390625,-0.1943891841560602,-0.04874216613611206,0.24913740404024717
1761315231465241000,5.089240966796875,-0.15222762025296688,-0.03993650826476514,0.19161358196288347
1761315231475223300,5.099223388671875,-0.10945523097515106,-0.06729702807292341,0.132540338486433
1761315231485204200,5.109204345703125,-0.04806581951081752,-0.11154750881297514,0.07546835182979703
1761315231495186400,5.1191865234375,0.0226958159327507,-0.15171943326881154,0.044134982867911454
1761315231505168100,5.129168212890625,0.055370005044341086,-0.1335398709177971,0.018941943291947243
1761315231515149300,5.1391494140625,0.06660042411088943,-0.11688013854520395,0.016042057131975887
1761315231525131300,5.14913134765625,0.0657826779872179,-0.08680435016267,0.009363090824708343
1761315231535113200,5.15911328125,0.04951894092857837,-0.07611812097541988,0.014682751477509736
1761315231545094100,5.16909423828125,0.0066904375493526454,-0.089132957507018,0.014671572496369481
1761315231555076400,5.179076416015625,-0.017937807750701903,-0.09711959061305969,0.037066944177821276
1761315231565058300,5.189058349609375,-0.049176411101222034,-0.09312032837644219,0.03120134008005261
1761315231575039500,5.19903955078125,-0.059226680472493166,-0.07001644309945404,-0.00581109743155539
1761315231585021200,5.209021240234375,-0.06264671804904938,-0.04791599924396723,-0.05416618221253156
1761315231595002400,5.21900244140625,-0.12488310173153877,-0.045185350437369196,-0.10405519856251776
1761315231604984300,5.228984375,-0.19215689505934713,-0.04004705596715211,-0.10811192660741507
1761315231614966300,5.23896630859375,-0.23699907634854314,-0.019198767597228286,-0.1391364488158375
1761315231624947200,5.248947265625,-0.2586561968833208,-0.0010671177748590708,-0.14088197730891405
1761315231634929200,5.25892919921875,-0.25511282518804074,0.0010963804019615054,-0.12776421012580394
1761315231644911400,5.268911376953125,-0.21998189057409762,-0.02708442454682663,-0.136943176555261
1761315231654892300,5.278892333984375,-0.1731307075500488,-0.07205116379745304,-0.1130794858869165
1761315231664874200,5.288874267578125,-0.16568623676300048,-0.10899353174753486,-0.06273980315998197
1761315231674856200,5.298856201171875,-0.1352162796974182,-0.10998840627009049,-0.016794848260655998
1761315231684836400,5.30883642578125,-0.03771569041013718,-0.08947448268737643,0.008414192602038384
1761315231694818300,5.318818359375,0.0521627334356308,-0.07701457662479952,0.03570150104351341
1761315231704799500,5.328799560546875,0.12054478026628493,-0.09092572267530485,0.027503216214478016
1761315231714781200,5.33878125,0.14400924248397348,-0.09955145740248263,-0.020938523936644197
1761315231724763400,5.348763427734375,0.1353074651122093,-0.10320459134886041,-0.04415639098212123
1761315231734744300,5.358744384765625,0.10730652850866317,-0.08081992372451349,-0.05724113267846405
1761315231744726300,5.368726318359375,0.043747956311702724,-0.08122992929751054,-0.08341361174583435
1761315231754708200,5.378708251953125,-0.008668459624052048,-0.0798397170481272,-0.07005918626263738
1761315231764689200,5.388689208984375,-0.02104278802871704,-0.07706736625796183,-0.05449482964500785
1761315231774671400,5.39867138671875,-0.028328853383660316,-0.09767662170762195,-0.043521234883740545
1761315231784653300,5.4086533203125,-0.037194881406426426,-0.14364532280871645,-0.023287205954641104
1761315231794634200,5.41863427734375,0.013395488145947456,-0.16321153547884895,0.018590937897190452
1761315231804616200,5.4286162109375,0.062055766418576234,-0.16182645606230944,0.047327787559852
1761315231814597400,5.438597412109375,0.04600070367455482,-0.1700474276471883,0.06277158653773367
1761315231824579300,5.448579345703125,-0.024684359401464462,-0.1684709173117764,0.08048186914287507
1761315231834561300,5.458561279296875,-0.09124620506763458,-0.13472160978196188,0.07931194858066737
1761315231844542200,5.468542236328125,-0.12084054834246635,-0.09233553467430174,0.07971972566395998
1761315231854524400,5.4785244140625,-0.15364917748868465,-0.08495267614768817,0.09812259364314377
1761315231864506400,5.48850634765625,-0.1747048249989748,-0.11528945355396718,0.11217815313301979
1761315231874487300,5.4984873046875,-0.19840426501631736,-0.13748117415579036,0.1033433239661157
1761315231884469200,5.50846923828125,-0.20230770219564437,-0.15898845615740864,0.08746310633234679
1761315231894451500,5.518451416015625,-0.14040332694649696,-0.15121798655269666,0.0653209787596017
1761315231904432400,5.528432373046875,-0.051982700693607324,-0.15673967258362098,0.07936448248550296
1761315231914414300,5.538414306640625,-0.048317748445272445,-0.1897421072688885,0.08472381756156683
1761315231924396300,5.548396240234375,-0.067996262383461,-0.21434295310536397,0.07176387128867208
1761315231934377200,5.558377197265625,-0.06577624824643134,-0.1800367606114596,0.03393449137099087
1761315231944359400,5.568359375,-0.0696644878566265,-0.16005813121553508,0.036531741322577
1761315231954340000,5.578340087890625,-0.08710019130408764,-0.1656198387295939,0.05509082277677953
1761315231964322300,5.588322265625,-0.05988543664216995,-0.14959294263413175,0.06411131070889532
1761315231974304300,5.59830419921875,-0.01280278294980526,-0.11692401421954855,0.0633726211708039
1761315231984285400,5.608285400390625,0.060568742731213564,-0.09946726798405871,0.07503127558678388
1761315231994267100,5.61826708984375,0.08537818981707096,-0.10577480716304853,0.0765760938759893
1761315232004249300,5.628249267578125,0.05172843367159366,-0.12578370383307336,0.09138429836407304
1761315232014230300,5.638230224609375,0.01745265458226204,-0.11594892210969701,0.07503558643572032
1761315232024212500,5.64821240234375,-0.06269114171266556,-0.05719701954210177,0.06812237298116088
1761315232034194200,5.658194091796875,-0.13424772692620754,0.001112600884400308,0.10282061526626347
1761315232044175400,5.66817529296875,-0.20046938085258006,0.047619664912205185,0.12082082072868942
1761315232054157300,5.6781572265625,-0.26135961062312124,0.05545059599988162,0.10630378120690584
1761315232064138500,5.688138427734375,-0.27879356050491333,0.04060673567652702,0.10035656324028969
1761315232074120200,5.6981201171875,-0.2894260136783123,0.03084954923400655,0.08379530453979969
1761315232084102400,5.708102294921875,-0.28073534222245217,0.037693807371892034,0.07126607783436775
1761315232094083300,5.718083251953125,-0.21137597479224204,0.039528311056364326,0.08704984935633837
1761315232104065300,5.728065185546875,-0.1552981137394905,0.053400184542406345,0.10695639989674091
1761315232114047200,5.738047119140625,-0.06287526610791683,0.051707591812964526,0.11494907915107905
1761315232124028200,5.748028076171875,0.01320142687857151,0.04904100295221433,0.10477503726966679
1761315232134010400,5.75801025390625,0.05639584096074104,0.038955187343526626,0.06416201798282563
1761315232143992000,5.767991943359375,0.07062193471193313,-0.012338508172612636,0.008198065633326769
1761315232153973200,5.77797314453125,0.04388356539011001,-0.08298575998889282,-0.046418198434263466
1761315232163955200,5.787955078125,0.04090542636215687,-0.12339483593516051,-0.09477503678090869
1761315232173936400,5.797936279296875,0.07612111665010451,-0.12532832474838942,-0.1316322837308049
1761315232183918300,5.80791845703125,0.1412561443835497,-0.12572832038402557,-0.16817863810062408
1761315232193900300,5.817900390625,0.20046821180880067,-0.1330465709755197,-0.16194792701750993
1761315232203881200,5.827881103515625,0.16606559146940708,-0.15157313839960843,-0.139134549119696
1761315232213863400,5.837863525390625,0.08214519924521446,-0.16149393617231397,-0.15211320009306073
1761315232223845000,5.84784521484375,0.002439209845662117,-0.1535722945938818,-0.1464362504351884
1761315232233826300,5.857826416015625,-0.07556991250813007,-0.1288509093839675,-0.12381371893435716
1761315232243808300,5.867808349609375,-0.06862170080542564,-0.11496102531719952,-0.07540960737988352
1761315232253790500,5.87779052734375,-0.08432663493752479,-0.1278024963095784,-0.0344707171395421
1761315232263771400,5.887771484375,-0.11746434990763664,-0.11801190078780055,0.013570260190963744
1761315232273753300,5.89775341796875,-0.16313362967073916,-0.09412230849321931,0.03290463686659932
1761315232283734300,5.907734375,-0.18907529565691947,-0.056461234347149725,0.008098258520662784
1761315232293716200,5.91771630859375,-0.11894260576665401,-0.07487791165597736,-0.024450404515117406
1761315232303698200,5.9276982421875,-0.05152092840075492,-0.11832301256358622,-0.038573549348488445
1761315232313679000,5.93767919921875,-0.01455167244374752,-0.1399162010166794,-0.03606938450783491
1761315232323661300,5.947661376953125,0.020440730482339856,-0.14469064887687563,-0.046631256663054226
1761315232333643300,5.957643310546875,-0.004514262554049492,-0.14602167828492818,-0.0458951974734664
1761315232343624400,5.96762451171875,-0.07114332823753357,-0.1314208329372108,-0.011020721838623284
1761315232353606100,5.977606201171875,-0.142889298543334,-0.0976124521639198,0.027868396265059707
1761315232363588400,5.98758837890625,-0.1851525692552328,-0.05378931172415614,0.06993563294820487
1761315232373569300,5.9975693359375,-0.1731926668703556,-0.02586480135768652,0.1329446815036237
1761315232383551200,6.00755126953125,-0.1814537147372961,-0.009843165959231555,0.1647661262433976
1761315232393533200,6.017533203125,-0.1801853022366762,-0.01859875587746501,0.16356106130257247
1761315232403514400,6.027514404296875,-0.14550035782456397,-0.01754588582366705,0.15072664110548795
1761315232413496300,6.037496337890625,-0.08870762650072574,-0.03447597783654928,0.07650200572647153
1761315232423477500,6.0474775390625,-0.0022901567637920377,-0.03626603959109634,0.058666489306464786
1761315232433459200,6.057459228515625,0.05285831448435783,-0.054308988216705614,0.050245940028876064
1761315232443441400,6.06744140625,0.051936523464322086,-0.07041548888701946,0.03318542656935751
1761315232453422300,6.07742236328125,0.02712123115956783,-0.06236991040166467,0.015817746856808663
1761315232463404500,6.087404541015625,-0.022795769175887107,-0.05194510862957686,0.025884967362880706
1761315232473386200,6.09738623046875,-0.06692132662832737,-0.03285758285447955,0.04637735496722162
1761315232483367200,6.1073671875,-0.06744038206636906,-0.020911635929718612,0.047676820193231106
1761315232493349400,6.117349365234375,-0.07014671841561794,-0.036245069868303836,0.07290909580104053
1761315232503331000,6.1273310546875,-0.10096855765879154,-0.05205441422294825,0.10701032204106449
1761315232513312300,6.137312255859375,-0.08267009990215302,-0.0296181625418365,0.0927207345996052
1761315232523294200,6.147294189453125,-0.0805658210992813,-0.0023710765128955244,0.05058269770257175
1761315232533275400,6.157275390625,-0.06390986985266209,0.014420739540457724,-0.0010481208134442567
1761315232543257300,6.16725732421875,-0.02584288178682327,-0.006131598090194166,-0.0427094801094383
1761315232553239300,6.1772392578125,-0.013661445605754852,-0.08546345694772899,-0.05688347834721207
1761315232563220200,6.18722021484375,0.017754267877340316,-0.132677920326218,-0.06914389804862439
1761315232573202400,6.197202392578125,0.07641571568250656,-0.11592833597939461,-0.09369893198199569
1761315232583184100,6.20718408203125,0.10434007991850376,-0.09059154055118561,-0.0840302823394537
1761315232593165300,6.217165283203125,0.11861351994276045,-0.08546725634001195,-0.07412102887406945
1761315232603147300,6.227147216796875,0.06619944209456444,-0.09074757136311382,-0.03881912160739302
1761315232613129500,6.23712939453125,-0.014590250888466834,-0.09748469759840518,-0.041328108753636475
1761315232623110400,6.2471103515625,-0.05829787518978118,-0.10804843291714787,-0.03224719587117433
1761315232633092400,6.25709228515625,-0.053853170740604396,-0.10691139171123504,0.003812982416898012
1761315232643074300,6.26707421875,0.015243161839246748,-0.11157722809780389,0.07374883456081152
1761315232653055200,6.27705517578125,0.08845569756627082,-0.1278031538967043,0.11835991050787269
1761315232663037200,6.287037109375,0.10779051263332366,-0.12867171689216048,0.1417469235751778
1761315232673018000,6.29701806640625,0.06775134771168231,-0.11921071865092962,0.10128646450154483
1761315232683000300,6.307000244140625,0.00008417115211486816,-0.0906178440362215,0.027195246243849395
1761315232692982500,6.316982421875,-0.06773498109877109,-0.08846753413453698,-0.012766834853589534
1761315232702963500,6.32696337890625,-0.12061959906816482,-0.09823083979059011,-0.014832462146505713
1761315232712945400,6.3369453125,-0.17298574612140655,-0.1125120429961942,0.02785524452254176
1761315232722927400,6.34692724609375,-0.1849994245201349,-0.12052788393041118,0.0681629972524941
1761315232732908500,6.356908447265625,-0.19188509238064289,-0.10555425974754616,0.11226941161304711
1761315232742890200,6.36689013671875,-0.1760638383924961,-0.08123575625009834,0.12087751935198902
1761315232752872400,6.37687255859375,-0.20125497827231884,-0.08148799571180716,0.09075432989746332
1761315232762853400,6.386853271484375,-0.23794366372227668,-0.09773068998241796,0.07186543196700514
1761315232772835600,6.396835693359375,-0.2513888362288475,-0.10153187236366792,0.04403371445052325
1761315232782817300,6.4068173828125,-0.20375556291639804,-0.11163091278010978,0.00436499027647078
1761315232792798500,6.416798583984375,-0.10266367113888263,-0.12634345660768448,-0.03408149862624705
1761315232802780400,6.426780517578125,-0.013531097224354744,-0.16058485850337892,-0.05328180059343576
1761315232812761300,6.43676123046875,0.03254033359885215,-0.195576457711868,-0.07831380438879132
1761315232822743300,6.446743408203125,0.0007803367227315903,-0.21528779620742425,-0.09735906192474067
1761315232832725500,6.4567255859375,-0.043403088396787644,-0.2038046262225136,-0.10354125769101083
1761315232842706400,6.46670654296875,-0.10019640424251555,-0.15505044085504485,-0.10328129158057271
1761315232852688400,6.4766884765625,-0.13191080841124056,-0.11698739831196144,-0.08236644078046083
1761315232862670300,6.48667041015625,-0.11275251895487308,-0.09536823516739532,-0.016139672287553548
1761315232872651300,6.4966513671875,-0.07074176169931888,-0.09136537446789443,0.01851524231247604
1761315232882633500,6.506633544921875,-0.009009235885739326,-0.07883901557298377,0.026275501050427554
1761315232892615400,6.516615478515625,0.02608428932726383,-0.07587519733132794,0.004462970758229494
1761315232902596400,6.526596435546875,0.011328618744015693,-0.08666322465892881,-0.02015687203966081
1761315232912578300,6.536578369140625,0.010392214676737784,-0.07565439418749884,-0.06097988081537187
1761315232922559500,6.5465595703125,0.013871873486042022,-0.06923464507199824,-0.09408990406095981
1761315232932541400,6.55654150390625,0.012974632385373115,-0.07890561453578993,-0.10838402154706418
1761315232942523400,6.5665234375,-0.005318564674258232,-0.10617953377272933,-0.07608005398735404
1761315232952504300,6.57650439453125,-0.022080314382910728,-0.09034213236737995,-0.03825133165679872
1761315232962486500,6.586486572265625,-0.01824643530845642,-0.033353567944187666,-0.001879676266759634
1761315232972468500,6.596468505859375,-0.046963411226868625,-0.01698651664154604,0.0019311141930520533
1761315232982449400,6.606449462890625,-0.06005319442451,-0.033196039294917136,0.029509295339882374
1761315232992431400,6.616431396484375,-0.05396890607476234,-0.03807617601929232,0.04984269299022853
1761315233002413600,6.62641357421875,-0.07001403194665909,-0.0754996054845862,0.05105258023664355
1761315233012394500,6.63639453125,-0.07979659029245376,-0.09955796020850538,0.07092793192118406
1761315233022376400,6.64637646484375,-0.07805354601740837,-0.08320773217650129,0.09015366059057414
1761315233032357400,6.656357421875,-0.10254559771716594,-0.06709931354373692,0.08293408460058271
1761315233042339300,6.66633935546875,-0.113161099755764,-0.04740556550379842,0.08251666290611029
1761315233052321500,6.676321533203125,-0.10734510695338248,-0.013827742083370684,0.07517346053645015
1761315233062302500,6.686302490234375,-0.09442249701619147,-0.004484232741966843,0.0678828651368618
1761315233072284400,6.696284423828125,-0.05699322233200073,-0.030473226734902707,0.04782536181844771
1761315233082266400,6.706266357421875,-0.04731120175123214,-0.08948158828159794,0.008382263093814254
1761315233092247600,6.71624755859375,-0.04345452632308006,-0.14566400568736718,0.002537847914546728
1761315233102229200,6.726229248046875,-0.07071019751727581,-0.1518965068687685,-0.0017153525505214928
1761315233112211500,6.73621142578125,-0.1294745211750269,-0.14233528138976542,-0.009894128961488604
1761315233122192400,6.7461923828125,-0.15750409935116766,-0.10056337439138442,-0.012343421809747814
1761315233132174600,6.756174560546875,-0.15067688367962837,-0.06636279769642278,0.006604439766332507
1761315233142156300,6.76615625,-0.12294132001399993,-0.06780705995429306,0.01404847216196358
1761315233152137500,6.776137451171875,-0.07547229735255241,-0.06791791818393395,0.036734570418298244
1761315233162119400,6.786119384765625,-0.017273206362128257,-0.05685960428128019,0.03200973385348916
1761315233172100400,6.796100341796875,0.010532499930262566,-0.04294047585371882,0.02792341438792646
1761315233182082300,6.806082275390625,0.03323416108191013,-0.04930078639956191,0.004271028382703662
1761315233192064500,6.816064453125,0.02530921330153942,-0.09425768010960892,-0.05175554087422788
1761315233202045400,6.82604541015625,-0.022256839993596074,-0.13115852873921394,-0.06337335182316602
1761315233212027400,6.83602734375,-0.09656710782945155,-0.15004633069112897,-0.08088781959526241
1761315233222009300,6.84600927734375,-0.15035948829352855,-0.14359288023542613,-0.09497815813757479
1761315233231990300,6.855990234375,-0.16929799751937388,-0.12694418071350083,-0.08171930198334157
1761315233241972500,6.865972412109375,-0.15428396826088428,-0.09432858992135151,-0.061539560524746774
1761315233251954400,6.875954345703125,-0.1359825878947973,-0.07014562243707477,0.0038035570014268156
1761315233261935400,6.885935302734375,-0.09288169731497764,-0.043323538620863106,0.033448461419716476
1761315233271917300,6.895917236328125,-0.023763152903318405,-0.02194289693990722,0.03531403609588742
1761315233281899500,6.9058994140625,0.06258943490386008,-0.03707191261388361,0.03406841994896531
1761315233291880400,6.91588037109375,0.10083820927739143,-0.07510976591678335,0.03532821075171232
1761315233301862400,6.9258623046875,0.08439677756428718,-0.12804364812169222,0.01550327408015728
1761315233311843300,6.93584326171875,0.07498246800899505,-0.1550462213376537,-0.009000175796449184
1761315233321825500,6.945825439453125,0.055602644756436344,-0.18558721607914194,-0.013829568714275955
1761315233331807500,6.955807373046875,0.053100891068577766,-0.17763576388433575,0.011091595117747783
1761315233341788400,6.965788330078125,0.007595277434587478,-0.15323707129014655,0.04510653131380677
1761315233351770400,6.975770263671875,-0.033579028996825216,-0.11777487716153263,0.06291976283676921
1761315233361752600,6.985752685546875,-0.1105553011715412,-0.07288723102910444,0.06595635405369103
1761315233371733500,6.9957333984375,-0.1785597468614578,-0.04951033749701455,0.05901464515700936
1761315233381715500,7.005715576171875,-0.2288099246740341,-0.05869498474858701,0.07488952902853488
1761315233391697400,7.015697509765625,-0.2697673734843731,-0.08340413153143598,0.07224887832663952
1761315233401678300,7.02567822265625,-0.2472182725459337,-0.06571964095467701,0.07475501592867076
1761315233411660500,7.03566064453125,-0.16860300099253653,-0.05086504004159942,0.08093516586832701
1761315233421642500,7.045642578125,-0.09013561347723006,-0.08006097684968262,0.07749116289429366
1761315233431623400,7.05562353515625,-0.035463527569174765,-0.12366811818489803,0.08719590676352382
1761315233441605400,7.06560546875,-0.02868541173636913,-0.11772024263115599,0.07163133095018565
1761315233451586600,7.075586669921875,-0.05419453152418136,-0.10393716167341917,0.019325608847290277
1761315233461568300,7.085568359375,-0.06677168902456761,-0.10249918302586301,-0.024357830860838293
1761315233471550500,7.095550537109375,-0.04974339733421802,-0.10844439169848337,-0.04482354965396225
1761315233481531400,7.105531494140625,-0.02458849781155586,-0.12245249531744047,-0.049017713408172126
1761315233491513600,7.115513671875,-0.028369185394048688,-0.1449080362209119,-0.04605345677509903
1761315233501495300,7.125495361328125,-0.020608488264679908,-0.13972024005316197,-0.04682429501712322
1761315233511476500,7.1354765625,-0.03300327493548393,-0.11480645580999553,-0.045171705504506825
1761315233521458400,7.14545849609375,-0.045136195799708366,-0.08150268182428554,-0.040934798587113616
1761315233531440400,7.1554404296875,-0.05966565641164779,-0.07571134853912517,-0.027347587261348963
1761315233541421300,7.16542138671875,-0.07279810970723628,-0.12676791083114222,0.0036893560372292995
1761315233551403500,7.175403564453125,-0.07432488088309765,-0.13449503448447211,0.03290259103998542
1761315233561384400,7.185384521484375,-0.07486381006538867,-0.13256724475966766,0.04732771449461579
1761315233571366400,7.195366455078125,-0.07737140897214412,-0.11640968975555151,0.04259571753665805
1761315233581348400,7.205348388671875,-0.11410276452004908,-0.09438121515773236,0.029864319322630763
1761315233591329300,7.215329345703125,-0.1424146667689085,-0.061532345332670955,0.04634776354655623
1761315233601311500,7.2253115234375,-0.1433119078695774,-0.03908478680625558,0.03161803112216294
1761315233611293400,7.23529345703125,-0.12389058356285094,-0.03801419843267649,0.029133959221467373
1761315233621274400,7.2452744140625,-0.13019465214312076,-0.04766807063119486,0.0462719218313694
1761315233631256300,7.25525634765625,-0.14158055403232572,-0.04220264483215287,0.05755618997700512
1761315233641238500,7.265238525390625,-0.1297790570795536,-0.03819525408800691,0.07780169014818966
1761315233651219500,7.275219482421875,-0.11830489238500594,-0.05580081594334915,0.0748963971607387
1761315233661201400,7.285201416015625,-0.09898644393086432,-0.05525932947779074,0.05000489781461656
1761315233671183400,7.295183349609375,-0.04399053289592266,-0.05772529946621507,0.05530819185450673
1761315233681164500,7.30516455078125,-0.017501754420995712,-0.04745574305476621,0.06815773655548692
1761315233691146500,7.315146484375,-0.014805354943871498,-0.05077067628903314,0.07395151752606034
1761315233701127400,7.32512744140625,0.036004794839024544,-0.031131836774107066,0.07280081312097608
1761315233711109400,7.335109375,0.09150923991799353,-0.02558207542616874,0.052057957886904475
1761315233721091600,7.345091552734375,0.1142681842148304,-0.04366383995851501,0.03346760451160371
1761315233731072500,7.355072509765625,0.054447629502415655,-0.07631537884688004,0.004538227951526642
1761315233741054500,7.365054443359375,-0.05042962603271007,-0.09702190239224583,-0.05438778907395899
1761315233751036400,7.375036376953125,-0.16072598400712013,-0.09450339849898591,-0.09270845963992178
1761315233761017600,7.385017578125,-0.1939098762065172,-0.09356858360059558,-0.11767032080851494
1761315233770999600,7.39499951171875,-0.14284312131404875,-0.11922018059901893,-0.08419862464368343
1761315233780981500,7.4049814453125,-0.12251286546885967,-0.13342338666496797,-0.03625489714257419
1761315233790962400,7.41496240234375,-0.06379354999661445,-0.10666824887143447,-0.0013677081566303968
1761315233800944600,7.424944580078125,-0.015561726269125938,-0.06299001506138592,0.00646356999091804
1761315233810926300,7.43492626953125,-0.014023264655470847,-0.0418598592764698,-0.005887158342450857
1761315233820907300,7.4449072265625,-0.06499766508936881,-0.05563247363911941,-0.022685367603972554
1761315233830889500,7.454889404296875,-0.07890987058579921,-0.06345719418171793,-0.029338103491440413
1761315233840870400,7.464870361328125,-0.033737434428930284,-0.08573803610540925,-0.03883329626321792
1761315233850852600,7.4748525390625,-0.006828969237208366,-0.12735047822576015,-0.0640530777156353
1761315233860834300,7.484834228515625,0.03235620920360088,-0.15873084640083834,-0.03252564748637378
1761315233870815500,7.4948154296875,0.023168694141507146,-0.1562913260279223,-0.04112513352744281
1761315233880797400,7.50479736328125,-0.04778641804754734,-0.13906639752062036,-0.03574723988138139
1761315233890779400,7.514779296875,-0.12496493479609488,-0.10804251463301479,-0.008003639039769769
1761315233900760300,7.52476025390625,-0.16037936252653598,-0.07144632977209985,0.0014274024546146393
1761315233910742500,7.534742431640625,-0.13640461269915102,-0.04939524148367345,0.005327332502603531
1761315233920724500,7.544724365234375,-0.08825053038299083,-0.05849823833378032,0.0217574391040951
1761315233930705700,7.55470556640625,-0.06118015262782573,-0.09989225193047896,0.01318279524333775
1761315233940687400,7.564687255859375,-0.04182663286030292,-0.12892116160858422,0.0032524989899247883
1761315233950668500,7.57466845703125,-0.038138884258270264,-0.11299821907794103,0.002827989967539906
1761315233960650500,7.584650390625,-0.05153612596988678,-0.08508026631642132,0.015423852168396115
1761315233970632400,7.594632568359375,-0.08911737634539604,-0.07339770130189135,0.012432999789342283
1761315233980613400,7.60461328125,-0.07600888844728469,-0.0711117640554905,-0.017335019551962615
1761315233990595600,7.614595703125,0.008102642434835433,-0.0790977761070244,-0.006340235872194171
1761315234000577500,7.62457763671875,0.10058160416781901,-0.10680351088996975,0.021613646719232202
1761315234010558500,7.634558349609375,0.15760580615997313,-0.13754324307395144,0.040748043843358756
1761315234020540400,7.64454052734375,0.13165361877977846,-0.1545790056847036,0.026615400529280304
1761315234030522400,7.6545224609375,0.0913145941287279,-0.11990441826982423,0.025739129151403903
1761315234040503600,7.664503662109375,0.018124270233511923,-0.06774869909686967,0.048132235810533164
1761315234050485200,7.6744853515625,-0.0990875662177801,-0.06344647185830399,0.036091888600587846
1761315234060467500,7.684467529296875,-0.24994331359565256,-0.07330669855019077,0.02738653103224933
1761315234070448400,7.694448486328125,-0.3312619988888502,-0.081682714566309,0.07172726560533046
1761315234080430600,7.7044306640625,-0.29862112752497194,-0.013136179622635245,0.12526515985168515
1761315234090411500,7.71441162109375,-0.2626467278242111,0.07513606940181926,0.13266323421373963
1761315234100393500,7.7243935546875,-0.061360185369849204,0.06506241915496065,0.17538783882707357
1761315234110375400,7.73437548828125,0.10216273587942123,0.010863631580770016,0.31694508504904806
1761315234120356600,7.744356689453125,0.09354805226922035,-0.03599748831540346,0.1832029695574194
1761315234130338300,7.75433837890625,0.06924772374927997,-0.05224555288087576,0.013627324140444397
1761315234140320500,7.764320556640625,-0.035576340293884276,-0.08543492497298866,-0.10029489618092775
1761315234150301400,7.774301513671875,-0.1413642809331417,-0.16919616284640504,-0.16605601992346344
1761315234160283600,7.78428369140625,-0.18062369365394115,-0.22764539267299697,-0.1605881829716265
1761315234170265300,7.794265380859375,-0.14478139590024947,-0.21521328793279826,-0.1478364726219326
1761315234180246300,7.804246337890625,-0.12697393653094768,-0.18074246119540183,-0.13012750519104302
1761315234190228500,7.814228515625,-0.13688684325814246,-0.15639800127279013,-0.09363251568228005
1761315234200210700,7.824210693359375,-0.13590660004913807,-0.12029677858827635,-0.0012531418662518263
1761315234210191600,7.834191650390625,-0.12536591681241988,-0.06100119759803638,0.08319558508098125
1761315234220173300,7.84417333984375,-0.09280161781609057,0.0014962481734342873,0.14013773481287062
1761315234230155500,7.854155517578125,-0.03302548676729202,0.012708126936294138,0.1676678390342742
1761315234240136400,7.864136474609375,0.06397825891375541,-0.014333335251640527,0.14664602072834967
1761315234250118400,7.874118408203125,0.13976853617429733,-0.08506901427004486,0.11160985172577202
1761315234260099300,7.884099365234375,0.1664654044419527,-0.1517266301945783,0.03147613843344152
1761315234270081500,7.89408154296875,0.10914718793928622,-0.22467220381479708,-0.08707922158129512
1761315234280063500,7.9040634765625,-0.04493512026965618,-0.3031481216964312,-0.26891455604732034
1761315234290044700,7.914044677734375,-0.25415654737651344,-0.33359997684974224,-0.44006314986944195
1761315234300026400,7.9240263671875,-0.3197147689580917,-0.280163095292449,-0.44951092330291864
1761315234310008600,7.934008544921875,-0.29931320144236084,-0.23673890930870548,-0.28098705196119844
1761315234319989500,7.943989501953125,-0.214837513422966,-0.18813118320722133,-0.058738896955549715
1761315234329971500,7.953971435546875,-0.09648059858977794,-0.10622414009943604,0.09582030805014073
1761315234339953400,7.963953369140625,0.02395370703935623,0.021053802613075823,0.18189210615456103
1761315234349934600,7.9739345703125,0.06261223125755787,0.07770776478704064,0.2046538269303739
1761315234359916500,7.98391650390625,0.05035831436216831,0.06298513795686886,0.15998839044757188
1761315234369897500,7.9938974609375,0.008521744629740714,-0.0024139658065512777,0.09281060484014451
1761315234379879400,8.00387939453125,-0.058356327378749843,-0.0533252744089812,0.022199629913643
1761315234389861600,8.013861572265625,-0.1447071616202593,-0.08350083337156101,-0.033847616805136205
1761315234399842600,8.023842529296875,-0.20272738891243933,-0.093371873718407,-0.03893770648576319
1761315234409824300,8.03382421875,-0.21665245389044283,-0.07516836423622444,-0.014899170707166193
1761315234419806500,8.043806396484374,-0.20809914507865904,-0.04610034639043733,0.011815306282415986
1761315234429787400,8.053787353515625,-0.19940788910090923,-0.017811313560511917,0.03856814252100885
1761315234439769600,8.06376953125,-0.18314532108604906,0.0021332857016474007,0.08323562483042478
1761315234449751300,8.073751220703125,-0.14207155241966246,0.059926060913503165,0.12280841434933244
1761315234459732500,8.083732421875,-0.09044073390364646,0.10437931595034897,0.14081103096455336
1761315234469714400,8.09371435546875,-0.059573886474967,0.10251750413384288,0.14940854424424468
1761315234479696600,8.103696533203125,-0.020167174237966535,0.07690559982499107,0.14475290045812725
1761315234489677300,8.11367724609375,-0.01712707588970661,0.029898422521632162,0.10562390918396412
1761315234499659500,8.123659423828125,-0.010034487280249594,-0.015296389863826334,0.07071728484518826
1761315234509641500,8.133641357421874,-0.022865911802649498,-0.034865196349844335,0.05715038565509021
1761315234519622700,8.14362255859375,-0.028183307433128354,-0.023545966488681732,0.024918387353047727
1761315234529604400,8.153604248046875,0.02594926477074623,-0.04175265430863946,-0.03078326079845428
1761315234539585300,8.163585205078125,0.08453764733970165,-0.039860648283269254,-0.06373224826343357
1761315234549567500,8.1735673828125,0.1129822360575199,-0.08907514463886618,-0.0977609937891364
1761315234559549700,8.1835498046875,0.12552899841964243,-0.17118954688701776,-0.14012326789610088
1761315234569530400,8.1935302734375,0.05465162764191627,-0.217182414314989,-0.15782595171667635
1761315234579512300,8.20351220703125,-0.05642155992388725,-0.215047539444454,-0.1513408274810761
1761315234589494500,8.21349462890625,-0.09619768999516963,-0.18434938137987628,-0.13177118074484168
1761315234599475500,8.223475341796876,-0.0014443535894155502,-0.1387936541269999,-0.07038790676034987
1761315234609457400,8.23345751953125,0.007141688448190689,-0.08827185629880986,0.01537540991678834
1761315234619439400,8.243439453125,-0.1835965719848871,0.007524742082180455,0.12411270188093185
1761315234629420500,8.253420654296875,-0.08737257850468158,-0.014477757824165745,0.22253668962344525
1761315234639402500,8.263402587890624,0.0883352860569954,-0.053936008452158415,0.57443581834957
1761315234649383400,8.273383544921876,-0.05351005639135837,0.018325857220217585,0.46761824240162964
1761315234659365400,8.283365478515625,-0.058065819999575614,0.18893691009953617,0.13504764513224363
1761315234669347600,8.29334765625,-0.08428454936146736,0.1496968231337145,0.03857544904462993
1761315234679328500,8.30332861328125,-0.03022270430624485,-0.00003669701488688588,-0.020675927477702496
1761315234689310700,8.313310791015626,0.08022679840326309,-0.11494955407511442,-0.07268456633016467
1761315234699293000,8.32329296875,0.1496644917666912,-0.16782741351015865,-0.1276229750242084
1761315234709273900,8.33327392578125,0.12835107010304928,-0.1487923029088881,-0.20806341617815197
1761315234719255800,8.343255859375,-0.020310382100939748,-0.12254080378855578,-0.27246698783189055
