time,seconds_elapsed,z,y,x
1761316537506000100,0.079000244140625,-0.0017794492887333035,0.0006608646363019943,0.0008140747668221593
1761316537515981800,0.08898193359375,-0.0019883238710463047,-0.0004513124004006386,0.0004509342834353447
1761316537525965000,0.098965087890625,-0.0022288071922957897,-0.0007940609939396381,-0.0014162079896777868
1761316537535946800,0.10894677734375,-0.00007363338954746723,-0.00023636827245354652,-0.0017800719942897558
1761316537545930000,0.118929931640625,0.0006550074322149158,0.00008640671148896217,0.0009209058480337262
1761316537555912000,0.128911865234375,-0.00017631612718105316,-0.0008045332506299019,-0.00008478062227368355
1761316537565895000,0.13889501953125,0.000058308360166847706,-0.0018703299574553967,-0.0022616484202444553
1761316537575876900,0.148876953125,-0.0010637248633429408,-0.0006673997268080711,-0.0010273500811308622
1761316537585860000,0.158860107421875,-0.0004373494302853942,-0.0013867197558283806,-0.00017913314513862133
1761316537595841800,0.168841796875,0.0026539284735918045,-0.0005821525119245052,0.0014642279129475355
1761316537605825000,0.178824951171875,-0.0011543920263648033,-0.0010226396843791008,0.0007193417986854911
1761316537615807000,0.188806884765625,-0.0002433181507512927,-0.0014244248159229755,0.00035251141525804996
1761316537625790000,0.1987900390625,-0.00009790959302335978,-0.0030161961913108826,0.0008904698770493269
1761316537635772000,0.20877197265625,-0.0028367540799081326,0.00002849055454134941,0.0015605579828843474
1761316537645755100,0.218755126953125,-0.0008803958189673722,0.00001837080344557762,0.0016915854066610336
1761316537655736800,0.22873681640625,-0.002634878735989332,-0.0005730325356125832,-0.0008001809474080801
1761316537665720000,0.238719970703125,-0.001697179744951427,0.0010272609069943428,0.0000019632279872894287
1761316537675701800,0.24870166015625,0.0003784636501222849,0.0006676819175481796,0.00020611286163330078
1761316537685685000,0.25868505859375,0.000029589515179395676,0.001108701340854168,-0.0011771328281611204
1761316537695667000,0.2686669921875,0.000637382734566927,0.001139847096055746,-0.0010793572291731834
1761316537705650000,0.27864990234375,-0.0007964631076902151,0.00205198023468256,-0.00008599809370934963
1761316537715631900,0.2886318359375,0.0019685502629727125,0.00005405023694038391,-0.0000957762822508812
1761316537725615000,0.298614990234375,0.0007221908308565617,0.0011973455548286438,-0.0006563717033714056
1761316537735596800,0.3085966796875,-0.0004414637805894017,0.0009896447882056236,0.0006876501720398664
1761316537745580000,0.318580078125,0.00032392877619713545,-0.00008733710274100304,0.00199472950771451
1761316537755562000,0.32856201171875,-0.00041744112968444824,0.0007088081911206245,-0.00027078273706138134
1761316537765545000,0.338544921875,0.00043610192369669676,-0.0008760388009250164,0.0014589403290301561
1761316537775527000,0.34852685546875,-0.00038605486042797565,0.0001614876091480255,0.0007908677216619253
1761316537785510100,0.35851025390625,0.002801216207444668,0.000052564311772584915,-0.000015537487342953682
1761316537795491800,0.368491943359375,-0.0010203942656517029,-0.000851697288453579,-0.0010085559915751219
1761316537805475000,0.37847509765625,-0.00004594353958964348,-0.002279151463881135,0.001938497880473733
1761316537815456800,0.388456787109375,-0.00021984812337905169,0.00024922285228967667,0.0002814400941133499
1761316537825440000,0.39843994140625,-0.0006267791613936424,-0.0010503996163606644,0.0011885128915309906
1761316537835422000,0.408421875,-0.00021861435379832983,-0.0003414410166442394,0.0008640646701678634
1761316537845405000,0.418405029296875,-0.0006599000771529973,-0.000498834066092968,0.0013604778796434402
1761316537855387000,0.428386962890625,-0.0030769179575145245,0.0007957285270094872,0.0020928471349179745
1761316537865370000,0.4383701171875,-0.001382881193421781,-0.0009204121306538582,-0.0006478119175881147
1761316537875351800,0.448351806640625,-0.00024738325737416744,-0.0009566443040966988,0.00043560005724430084
1761316537885335000,0.4583349609375,0.002174228895455599,-0.0008458569645881653,-0.0018408698961138725
1761316537895316700,0.468316650390625,0.0008772696601226926,-0.00034367945045232773,-0.0016956883482635021
1761316537905300000,0.478300048828125,-0.0017787009710446,0.0020752698183059692,-0.0009651831351220608
1761316537915282000,0.488281982421875,-0.0003240077057853341,-0.0003648330457508564,-0.0005575295072048903
1761316537925265000,0.498264892578125,-0.0008744830847717822,-0.0029832529835402966,-0.0004446115344762802
1761316537935246800,0.508246826171875,0.0013833999400958419,-0.0011014235205948353,0.0008391848532482982
1761316537945230000,0.51822998046875,-0.0018352966289967299,0.0017052819021046162,0.000562216155230999
1761316537955211800,0.528211669921875,0.0006992595735937357,0.0012940061278641224,-0.0006187832914292812
1761316537965195000,0.538195068359375,-0.002944477368146181,-0.0006663468666374683,-0.0004909515846520662
1761316537975177000,0.548177001953125,0.0001858504256233573,0.0014511765912175179,0.0019894293509423733
1761316537985160000,0.558159912109375,-0.0001907205441966653,0.001133461482822895,-0.0022308817133307457
1761316537995142000,0.568141845703125,0.0005590992514044046,0.0005182800814509392,-0.00045625376515090466
1761316538005125000,0.578125,0.0005513760261237621,0.00046901172026991844,0.001795182703062892
1761316538015106800,0.58810693359375,-0.00004687637556344271,0.0006490596570074558,-0.00014364859089255333
1761316538025090000,0.598090087890625,-0.0030892714858055115,0.0009452030062675476,0.00012399908155202866
1761316538035071700,0.60807177734375,0.0009007947519421577,-0.0004930398426949978,0.0019002328626811504
1761316538045055000,0.618054931640625,-0.0006092175608500838,-0.0019053139258176088,-0.0005394890904426575
1761316538055037000,0.628036865234375,-0.000051686656661331654,0.000508453231304884,-0.00003579515032470226
1761316538065020000,0.63802001953125,0.0004532488528639078,-0.002964308485388756,0.0009290680754929781
1761316538075001900,0.648001953125,0.0010632427874952555,-0.0013291011564433575,-0.000310106435790658
1761316538084985000,0.657985107421875,-0.0004981686361134052,-0.0009756996296346188,0.001349841826595366
1761316538094966800,0.667966796875,-0.00206178892403841,-0.0007304064929485321,-0.00009233644232153893
1761316538104950000,0.677949951171875,0.000777939916588366,0.0022182450629770756,-0.0012159242760390043
1761316538114932000,0.687931884765625,0.0008394325850531459,0.00004785042256116867,-0.00007055583409965038
1761316538124915000,0.6979150390625,0.0015699375653639436,-0.0012413859367370605,-0.002241298323497176
1761316538134897000,0.70789697265625,-0.0009995198342949152,-0.0015717861242592335,-0.0004758525174111128
1761316538144880000,0.717880126953125,-0.0033862446434795856,0.00022025499492883682,-0.0008542877621948719
1761316538154861800,0.72786181640625,-0.0011863451218232512,-0.001226687803864479,0.0011994971428066492
1761316538164845000,0.737844970703125,-0.0020169850904494524,-0.0006820713169872761,0.0018644884694367647
1761316538174826800,0.74782666015625,0.0007502532098442316,-0.0011669169180095196,-0.00005532684735953808
1761316538184810000,0.75781005859375,-0.0025744368322193623,-0.00016956310719251633,0.0009127323282882571
1761316538194792000,0.7677919921875,-0.0014853670727461576,-0.0013204063288867474,0.001923564588651061
1761316538204775000,0.77777490234375,-0.0012712490279227495,-0.002777954563498497,-0.001153185497969389
1761316538214756900,0.7877568359375,0.00033011555206030607,-0.0008370345458388329,0.000963327125646174
1761316538224740000,0.797739990234375,0.0007599497912451625,0.002330529037863016,-0.0010196627117693424
1761316538234721800,0.8077216796875,-0.0003214951138943434,-0.0009990199469029903,-0.004172703251242638
1761316538244705000,0.817705078125,-0.00027915078680962324,0.0009549413807690144,-0.0016525534447282553
1761316538254687000,0.82768701171875,-0.0007982762181200087,0.0003480571322143078,0.0015744548290967941
1761316538264670000,0.837669921875,-0.0002746987156569958,-0.0009646150283515453,0.0031475841533392668
1761316538274652000,0.84765185546875,-0.00035917083732783794,0.0008520553819835186,0.0008463278645649552
1761316538284635100,0.85763525390625,0.0011047687148675323,-0.0010174838826060295,-0.0022756957914680243
1761316538294616800,0.867616943359375,-0.00018835498485714197,0.00203898036852479,-0.003152234014123678
1761316538304600000,0.87760009765625,-0.0019686780869960785,0.0018032905645668507,-0.0004898721817880869
1761316538314581800,0.887581787109375,0.00014624919276684523,0.0009616776369512081,-0.00047142431139945984
1761316538324565000,0.89756494140625,0.0005965898744761944,0.000729183666408062,0.00002339109778404236
1761316538334547000,0.907546875,-0.00034953863359987736,0.0001769266091287136,-0.0017077159136533737
1761316538344529000,0.91752880859375,0.00014287978410720825,-0.0009738253429532051,0.001200988539494574
1761316538354512000,0.927511962890625,0.0017890469171106815,-0.0005154255777597427,0.0029938356019556522
1761316538364493800,0.937493896484375,-0.0007561360253021121,-0.0015442045405507088,-0.0011039702221751213
1761316538374476800,0.947476806640625,0.0007345099002122879,-0.0023626533802598715,-0.002945409622043371
1761316538384459000,0.957458984375,0.002154241083189845,0.0020731077529489994,0.00033107749186456203
1761316538394441700,0.967441650390625,0.0005254173884168267,-0.0003905505873262882,-0.0000712093897163868
1761316538404424000,0.977423828125,-0.0008298652828671038,-0.001301085576415062,0.0010744825704023242
1761316538414407000,0.987406982421875,0.001062242197804153,0.001462060958147049,-0.000664388295263052
1761316538424388900,0.997388916015625,-0.00047972809989005327,-0.000956355594098568,-0.0006958134472370148
1761316538434371800,1.007371826171875,0.0004955476615577936,-0.0010466696694493294,0.0019367546774446964
1761316538444354000,1.01735400390625,-0.0006256431806832552,-0.00266693695448339,-0.0004225396551191807
1761316538454336800,1.027336669921875,0.00013744307216256857,-0.0007505672983825207,-0.0009976041037589312
1761316538464319000,1.037319091796875,-0.001232753274962306,-0.000026720110327005386,0.0016226799925789237
1761316538474302000,1.047302001953125,-0.0017740336479619145,-0.0009042141027748585,-0.00020654825493693352
1761316538484284000,1.057283935546875,-0.0000762684503570199,-0.00036652199923992157,0.0001567068975418806
1761316538494267000,1.067266845703125,0.0007107302080839872,0.0007631364278495312,-0.001613781787455082
1761316538504248800,1.077248779296875,0.0009469527285546064,0.002105901949107647,0.0000712003093212843
1761316538514231800,1.087231689453125,0.0018134634010493755,0.0005353023298084736,0.0019372892566025257
1761316538524214000,1.097214111328125,0.0015170534607023,0.002003236673772335,-0.002149864099919796
1761316538534196700,1.10719677734375,-0.0005973611259832978,-0.00041268207132816315,0.0014356249012053013
1761316538544179000,1.117178955078125,0.0005781580694019794,-0.00004037190228700638,0.00045211962424218655
1761316538554162000,1.127161865234375,0.0027689209673553705,-0.0006698314100503922,-0.0020216547418385744
1761316538564143900,1.137143798828125,-0.0005959829431958497,-0.001240546815097332,-0.0003055138513445854
1761316538574126800,1.147126953125,-0.003804850624874234,-0.0004975474439561367,-0.0018998740706592798
1761316538584109000,1.157109130859375,-0.001159532810561359,0.0003160480409860611,0.001437599421478808
1761316538594091800,1.167091796875,0.0002507673343643546,0.001404737588018179,0.00011136732064187527
1761316538604074000,1.177073974609375,-0.002667258260771632,0.0009232382290065289,0.0014386867405846715
1761316538614057000,1.187056884765625,0.001677987165749073,0.0014659035950899124,0.0005700127221643925
1761316538624039000,1.197038818359375,0.0006513383705168962,-0.0005226787179708481,-0.0009181615896522999
1761316538634022000,1.20702197265625,-0.0008015013881959021,0.0006609968841075897,-0.00037305313162505627
1761316538644003800,1.21700390625,0.0003633652813732624,-0.0008948217146098614,-0.0005328429397195578
1761316538653986800,1.22698681640625,-0.0019566521514207125,-0.0012592119164764881,-0.0012382250279188156
1761316538663969000,1.236968994140625,-0.0025478738825768232,0.0007900907658040524,-0.00033434806391596794
1761316538673951700,1.24695166015625,-0.000015151919797062874,-0.00039868010208010674,-0.0002837451174855232
1761316538683934000,1.256933837890625,0.002054656855762005,-0.000896691344678402,-0.0007532602176070213
1761316538693917000,1.2669169921875,-0.0023475736379623413,-0.0004735994152724743,-0.0011317848693579435
1761316538703899000,1.27689892578125,0.0006942888721823692,-0.0004925080575048923,0.0028688155580312014
1761316538713881900,1.2868818359375,-0.000693066802341491,-0.0011783703230321407,0.0002760179340839386
1761316538723863800,1.29686376953125,0.0011525037698447704,-0.0007780971936881542,0.001062715775333345
1761316538733846800,1.3068466796875,-0.0018014631932601333,-0.0010520396754145622,-0.0010557607747614384
1761316538743829000,1.3168291015625,-0.0012363403802737594,-0.0007987730205059052,-0.00007065758109092712
1761316538753811700,1.326811767578125,-0.00011871661990880966,-0.0003829128108918667,-0.0011407413985580206
1761316538763794000,1.3367939453125,0.00210688728839159,-0.0004886402748525143,-0.0006288818549364805
1761316538773777000,1.34677685546875,0.0009399299742653966,0.0003251382149755955,0.0004769754596054554
1761316538783758800,1.3567587890625,0.001640607719309628,-0.0005505089648067951,-0.0009664578828960657
1761316538793741800,1.366741943359375,-0.00110097776632756,-0.00003134598955512047,0.0010511791333556175
1761316538803724000,1.37672412109375,0.0019406185019761324,-0.0006454708054661751,0.0017332147108390927
1761316538813706800,1.386706787109375,-0.00045306701213121414,0.002001529559493065,0.0015131909167394042
1761316538823689000,1.39668896484375,-0.0018171380506828427,-0.0007745493203401566,0.0012372874189168215
1761316538833672000,1.406671875,0.0021664928644895554,-0.0002774624153971672,0.0014944380382075906
1761316538843654000,1.41665380859375,-0.0007059926283545792,0.0022959504276514053,0.00022384384647011757
1761316538853636900,1.426636962890625,-0.0007313304231502116,0.00245220260694623,0.0004096382763236761
1761316538863618800,1.436618896484375,-0.001657577813602984,0.0007009082473814487,0.001623507123440504
1761316538873601800,1.446601806640625,0.00036549894139170647,0.00047468114644289017,-0.0010135150514543056
1761316538883584000,1.456583984375,-0.0006960371392779052,0.0013199681416153908,-0.000010035932064056396
1761316538893566700,1.466566650390625,-0.002542864065617323,0.0020772460848093033,0.0010625205468386412
1761316538903549000,1.476548828125,0.001565860933624208,0.0012428779155015945,0.001353870378807187
1761316538913532000,1.486531982421875,0.0006002543959766626,0.0016613984480500221,0.0003624486271291971
1761316538923513900,1.496513916015625,0.0002662939950823784,-0.0016246759332716465,-0.0008538172114640474
1761316538933496800,1.506496826171875,-0.0010627855081111193,-0.0007267147302627563,-0.0017016853671520948
1761316538943479000,1.51647900390625,-0.0008334873127751052,0.00013055652379989624,0.0015891826478764415
1761316538953461800,1.526461669921875,-0.0002948710462078452,0.001795101910829544,0.0003564080689102411
1761316538963443700,1.536443603515625,-0.0030304701067507267,-0.0006667245179414749,-0.0020116749219596386
1761316538973427000,1.546427001953125,0.00037246185820549726,0.0009653340093791485,0.0036588101647794247
1761316538983408600,1.55640869140625,0.0028625172562897205,-0.0008799703791737556,0.0014302768977358937
1761316538993390800,1.566390869140625,-0.0003174928715452552,0.0004548095166683197,-0.0010573246981948614
1761316539003373800,1.576373779296875,0.0027339572552591562,-0.00011457409709692001,-0.0000740857794880867
1761316539013355800,1.586355712890625,-0.0003595848102122545,0.0006900620646774769,0.00040677329525351524
1761316539023338800,1.5963388671875,0.001280655968002975,-0.0024420819245278835,0.00014205509796738625
1761316539033320700,1.60632080078125,-0.00020778982434421778,-0.002832868369296193,-0.0031369065400213003
1761316539043303700,1.6163037109375,0.00028675911016762257,-0.0001430758275091648,0.0007776737911626697
1761316539053286000,1.626285888671875,0.0011891259346157312,0.0004665651358664036,0.00006783357821404934
1761316539063268600,1.6362685546875,0.0011569017078727484,-0.0006903121247887611,-0.00042112264782190323
1761316539073250800,1.646250732421875,0.0008127299370244145,-0.0000439952127635479,-0.0010032679419964552
1761316539083233800,1.65623388671875,-0.0005209810915403068,-0.0006221677176654339,-0.0005992664955556393
1761316539093215700,1.6662158203125,-0.0019720359705388546,-0.0006783702410757542,-0.0010816487483680248
1761316539103198700,1.67619873046875,-0.0006926533533260226,-0.0010967529378831387,0.0007466112729161978
1761316539113180700,1.6861806640625,-0.0006852727383375168,-0.0003800378181040287,0.000033598393201828
1761316539123163600,1.69616357421875,0.0012460517464205623,-0.002714565023779869,-0.00009157019667327404
1761316539133145900,1.706145751953125,-0.0010323058813810349,-0.0005250582471489906,-0.0013912089634686708
1761316539143128600,1.716128662109375,-0.0016802529571577907,0.0019093374721705914,-0.0004939900245517492
1761316539153110800,1.72611083984375,-0.001725818496197462,0.001585420686751604,-0.0026676421985030174
1761316539163093800,1.73609375,-0.0009942480828613043,-0.001586404163390398,0.00185227463953197
1761316539173075700,1.74607568359375,0.0020581288263201714,0.0005795643664896488,0.00027856440283358097
1761316539183058700,1.75605859375,-0.0013248848263174295,0.000030420254915952682,-0.0008391644805669785
1761316539193041000,1.766041015625,-0.0018630883423611522,0.00010785926133394241,-0.00013205036520957947
1761316539203023600,1.776023681640625,-0.0051086824387311935,-0.000574442557990551,0.002772659296169877
1761316539213005800,1.786005859375,-0.0008806218393146992,-0.0009474344551563263,-0.00048727146349847317
1761316539222988800,1.79598876953125,0.002013435121625662,0.0016318373382091522,-0.00018526893109083176
1761316539232970800,1.805970703125,0.0019736001268029213,-0.00023504765704274178,0.00028671626932919025
1761316539242953700,1.81595361328125,0.0021810601465404034,-0.00038738036528229713,-0.00012021465227007866
1761316539252935700,1.825935791015625,-0.003041910007596016,-0.0007499181665480137,0.0010542968520894647
1761316539262918700,1.835918701171875,-0.00010444317013025284,0.0007217442616820335,-0.0011579911224544048
1761316539272900900,1.84590087890625,0.0017970274202525616,-0.0008166595362126827,-0.00032343342900276184
1761316539282883600,1.855883544921875,0.0009147222153842449,0.0006914883852005005,-0.0015636675525456667
1761316539292865800,1.86586572265625,0.0013370144879445434,-0.00013186223804950714,0.0018340919632464647
1761316539302848800,1.875848876953125,0.00003765826113522053,-0.0010450598783791065,0.001879632007330656
1761316539312830700,1.885830810546875,0.00023807829711586237,-0.0013468977995216846,-0.0007336556445807219
1761316539322813700,1.895813720703125,0.0006727061700075865,-0.0016875159926712513,-0.002855396131053567
1761316539332796000,1.9057958984375,0.002735899528488517,-0.0016314592212438583,-0.001315894303843379
1761316539342778600,1.915778564453125,0.0011092405766248703,-0.0006535463035106659,-0.0010863298084586859
1761316539352760800,1.9257607421875,0.001084102550521493,-0.0018381145782768726,0.00029602390713989735
1761316539362743800,1.935743896484375,0.0013144658878445625,-0.0004804353229701519,0.0024744896218180656
1761316539372725800,1.945725830078125,-0.0011316328309476376,-0.0009582121856510639,0.001208433066494763
1761316539382708700,1.955708740234375,-0.0018248537089675665,-0.0013398430310189724,-0.0013692404609173536
1761316539392690700,1.965690673828125,-0.0002829579170793295,-0.001629990991204977,0.001086201285943389
1761316539402673700,1.975673583984375,-0.001298687537200749,-0.0015458348207175732,0.0002763338852673769
1761316539412655900,1.98565576171875,-0.0012035605031996965,-0.0012722993269562721,-0.0005908941384404898
1761316539422637800,1.995637939453125,-0.0007713294471614063,-0.001521304715424776,-0.00027903798036277294
1761316539432620800,2.005620849609375,0.0002799907233566046,-0.0006240773946046829,-0.00021449709311127663
1761316539442603800,2.015603759765625,0.0006879870779812336,-0.00019637355580925941,-0.0009162398055195808
1761316539452585700,2.025585693359375,-0.0017669048393145204,0.00153285451233387,0.0007677675457671285
1761316539462567700,2.035567626953125,0.0006264779949560761,0.00001671677455306053,0.0014798968331888318
1761316539472550700,2.045550537109375,0.002487270161509514,0.0005264794453978539,-0.0011578185949474573
1761316539482532900,2.055532958984375,0.0007596771465614438,0.0010937326587736607,0.0015825742157176137
1761316539492515800,2.065515869140625,0.001650027697905898,0.0009501008316874504,0.004002438858151436
1761316539502497800,2.075497802734375,0.000873449956998229,-0.0003868057392537594,-0.0011435872875154018
1761316539512480800,2.085480712890625,0.00044972077012062073,0.0011249021627008915,0.001505320891737938
1761316539522462700,2.095462646484375,-0.0027157124131917953,0.0021462244912981987,0.00030956161208450794
1761316539532445700,2.10544580078125,-0.0017537339590489864,0.0008601122535765171,0.0017564707668498158
1761316539542428000,2.115427978515625,0.0012532412074506283,-0.0006083548069000244,0.0004888060502707958
1761316539552411000,2.125410888671875,-0.000270876451395452,0.00025908323004841805,0.0007350166561082006
1761316539562392800,2.135392822265625,0.0022567296400666237,-0.0006647673435509205,-0.0006985629443079233
1761316539572375800,2.145375732421875,0.0009888813365250826,-0.00033474015071988106,0.00012759817764163017
1761316539582357800,2.155357666015625,-0.0015307354042306542,-0.0007419376634061337,-0.00009797164238989353
1761316539592340700,2.1653408203125,0.00020677188877016306,-0.0024385247379541397,-0.0011083772405982018
1761316539602323000,2.175322998046875,0.0002943899016827345,-0.002337857149541378,0.00017526652663946152
1761316539612305700,2.1853056640625,0.0008886369178071618,0.0000392058864235878,0.0008514525834470987
1761316539622288000,2.195287841796875,-0.0010211158078163862,0.00007169647142291069,-0.000679332297295332
1761316539632270800,2.205270751953125,-0.00024058041162788868,-0.0021795753855258226,0.0018303478136658669
1761316539642252800,2.215252685546875,0.0018372179474681616,0.00037146639078855515,0.001994398422539234
1761316539652235800,2.22523583984375,-0.0007776488200761378,-0.0007335292175412178,0.0017154427478089929
1761316539662217700,2.2352177734375,0.0021241314243525267,-0.001730883028358221,0.0020033305045217276
1761316539672200700,2.24520068359375,0.0016229719622060657,0.0008512777276337147,0.0014379704371094704
1761316539682183000,2.255182861328125,-0.0016210244502872229,6.644986569881439e-7,0.0038084499537944794
1761316539692166000,2.265165771484375,-0.0018029124476015568,-0.0011981669813394547,-0.0013272142969071865
1761316539702147800,2.27514794921875,0.0010551920859143138,0.0016237185336649418,-0.0003535626456141472
1761316539712130800,2.285130859375,-0.00016331777442246675,0.001662982627749443,-0.0013080083299428225
1761316539722112800,2.29511279296875,0.0010337730636820197,0.0010363408364355564,0.00057937391102314
1761316539732095700,2.305095703125,-0.0002821303205564618,0.0008130487985908985,-0.0008104220032691956
1761316539742078000,2.315077880859375,-0.000023537431843578815,0.0010351561941206455,0.0015153165441006422
1761316539752060700,2.325060791015625,-0.0025646118447184563,0.0008702212944626808,-0.0007201379630714655
1761316539762043000,2.33504296875,0.0038746451027691364,-0.0008869324810802937,-0.00027006352320313454
1761316539772025900,2.34502587890625,-0.002616163343191147,0.0023737354204058647,-0.00006255018524825573
1761316539782007800,2.3550078125,0.0010107957059517503,0.0003939415328204632,-0.0005592298693954945
1761316539791990800,2.36499072265625,-0.0009432558435946703,0.0004929094575345516,0.0006349105387926102
1761316539801972700,2.37497265625,0.000524678616784513,0.0013597682118415833,0.0010535594774410129
1761316539811955700,2.384955810546875,-0.0009641444776207209,0.0017234506085515022,0.0016677072271704674
1761316539821938000,2.39493798828125,0.001802347251214087,0.0005071847699582577,-0.0014583112206310034
1761316539831919600,2.404919677734375,0.0021819057874381542,-0.00007361546158790588,0.00034510204568505287
1761316539841902800,2.41490283203125,-0.0007209395989775658,-0.0001308731734752655,0.0017206247430294752
1761316539851884800,2.424884765625,-0.0008303544600494206,-0.00000962754711508751,0.002333336975425482
1761316539861867800,2.43486767578125,0.0010940458159893751,0.0020998623222112656,-0.001215058844536543
1761316539871849700,2.444849609375,-0.0008282044436782598,0.0010115313343703747,0.00035967351868748665
1761316539881833000,2.4548330078125,0.002251741476356983,0.0009337672963738441,0.0013817946892231703
1761316539891814700,2.464814697265625,0.0006000009598210454,0.0006733792833983898,-0.0021116517018526793
1761316539901798000,2.4747978515625,-0.0003337033558636904,0.0006177187897264957,0.0022873578127473593
1761316539911779600,2.484779541015625,0.002079866360872984,-0.0012521776370704174,0.0017036220524460077
1761316539921762800,2.4947626953125,-0.0019441698677837849,0.000522819347679615,-0.0020612888038158417
1761316539931744800,2.504744873046875,0.0005981636932119727,-0.0018469556234776974,-0.0018521330785006285
1761316539941727700,2.514727783203125,-0.0006242271629162133,-0.001643490046262741,-0.0001514381729066372
1761316539951710700,2.524710693359375,-0.001249606953933835,0.000915993470698595,0.000048460206016898155
1761316539961693400,2.534693359375,0.00022578425705432892,0.0000017299316823482513,0.0013936229515820742
1761316539971675600,2.544675537109375,0.0021362314000725746,-0.0006660153158009052,-0.0005121345166116953
1761316539981658600,2.55465869140625,-0.0009162839851342142,0.003479194827377796,0.0019435662543401122
1761316539991640600,2.564640625,0.00004502700176090002,0.0024648262187838554,-0.0003241978120058775
1761316540001623600,2.57462353515625,0.00009695859625935555,0.001035774126648903,0.0009061825694516301
1761316540011605500,2.58460546875,0.001631648512557149,-0.00016330881044268608,-0.0005197154823690653
1761316540021588500,2.59458837890625,0.0006705138366669416,-0.0006490694358944893,-0.0009045423939824104
1761316540031570700,2.60457080078125,0.00014768086839467287,-0.00033898698166012764,0.00024184747599065304
1761316540041553700,2.6145537109375,0.0012270602164790034,0.000025599729269742966,-0.0006274085026234388
1761316540051535600,2.62453564453125,0.0010956797050312161,0.001412482000887394,-0.0028820750303566456
1761316540061518600,2.6345185546875,0.0013012756826356053,0.002194119617342949,-0.0029441267251968384
1761316540071500500,2.64450048828125,-0.000019721221178770065,0.0014973701909184456,0.002016662620007992
1761316540081483500,2.6544833984375,-0.00032944686245173216,0.001180720515549183,-0.000805755378678441
1761316540091465700,2.6644658203125,0.0007775307167321444,0.0005483226850628853,-0.0010773483663797379
1761316540101448400,2.674448486328125,-0.003004690632224083,0.0017864266410470009,-0.0012536495923995972
1761316540111430700,2.6844306640625,-0.0007838906021788716,0.0012437785044312477,0.0012257708003744483
1761316540121413600,2.69441357421875,-0.001805745530873537,0.0007966337725520134,-0.0017660241574048996
1761316540131395600,2.7043955078125,-0.002097012475132942,0.0018120873719453812,-0.0013757445849478245
1761316540141378600,2.714378662109375,-0.0018546647625043988,-0.000526700634509325,-0.0010247400496155024
1761316540151360500,2.724360595703125,-0.0020097719971090555,0.00031964387744665146,-0.0013477250467985868
1761316540161343500,2.734343505859375,-0.0019618351943790913,0.0002061929553747177,-0.0009064392652362585
1761316540171325700,2.74432568359375,0.002194538712501526,0.0003137676976621151,0.0004849990364164114
1761316540181307600,2.7543076171875,-0.000384732848033309,-0.0009104874916374683,0.0017023299587890506
1761316540191290600,2.76429052734375,-0.0010785970371216536,0.000043048523366451263,-0.001104752067476511
1761316540201272800,2.77427294921875,-0.002465571276843548,-0.0013191583566367626,0.0028926527593284845
1761316540211255600,2.784255615234375,-0.0024365903809666634,-0.00004905136302113533,-0.0018889738712459803
1761316540221237800,2.79423779296875,-0.0001795613206923008,-0.002580652479082346,-0.0013779134023934603
1761316540231220700,2.804220703125,0.00013807229697704315,0.0017526792362332344,0.003337173257023096
1761316540241202700,2.81420263671875,0.00009439641144126654,-0.0028101145289838314,-0.002434429479762912
1761316540251185700,2.824185546875,0.0005910939071327448,-0.0008820299990475178,-0.0007890583947300911
1761316540261167600,2.834167724609375,0.000645156018435955,0.0008636722341179848,-0.0013840084429830313
1761316540271150600,2.844150634765625,0.002717070747166872,-0.001783203100785613,0.0005349726416170597
1761316540281132800,2.8541328125,-0.0016060383059084415,0.0011172457598149776,-0.004073095042258501
1761316540291115500,2.864115478515625,0.00027716474141925573,-0.0007940009236335754,0.00047399033792316914
1761316540301097700,2.87409765625,-0.0013154055923223495,0.00021080952137708664,0.0004976923810318112
1761316540311080700,2.884080810546875,0.0014105139998719096,0.0006502680480480194,-0.003044098848477006
1761316540321062700,2.894062744140625,0.0008501847041770816,0.002613550517708063,0.0000763267744332552
1761316540331045600,2.904045654296875,-0.0009597666212357581,0.00046916771680116653,-0.00185889913700521
1761316540341027800,2.91402783203125,0.00010736205149441957,0.0003661033697426319,0.0017483525443822145
1761316540351010600,2.924010498046875,0.0009599635377526283,0.0008242446929216385,-0.0004997183568775654
1761316540360992800,2.93399267578125,-0.00042887486051768064,-0.0014780578203499317,0.0029485425911843777
1761316540370975700,2.943975830078125,0.00219592428766191,0.0018629678525030613,-0.0009428313933312893
1761316540380957700,2.953957763671875,-0.0023330473341047764,0.0023420704528689384,0.0008609275100752711
1761316540390940700,2.963940673828125,0.003994451370090246,0.0003931052051484585,0.0005979362176731229
1761316540400922600,2.973922607421875,-0.0024104509502649307,0.0021939347498118877,-0.004115059971809387
1761316540410905600,2.983905517578125,0.00032822461798787117,0.0012744651176035404,-0.0005194118712097406
1761316540420887800,2.9938876953125,0.00015378755051642656,0.0012989663518965244,-0.000016074394807219505
1761316540430870500,3.00387060546875,0.0007516676560044289,0.0009067049250006676,-0.004453974775969982
1761316540440852700,3.013852783203125,0.0015599371399730444,0.0008361311629414558,0.0024308289866894484
1761316540450835700,3.023835693359375,-0.0009504664922133088,-0.0009131636470556259,-0.0016271267086267471
1761316540460817700,3.033817626953125,0.00016140320803970098,0.0002692798152565956,-0.0011842430103570223
1761316540470800600,3.043800537109375,-0.0006455553229898214,-0.00019452907145023346,0.0005622879834845662
1761316540480782600,3.053782470703125,-0.0007643323042429984,0.00125502934679389,-0.0007578409276902676
1761316540490765600,3.063765625,0.0004736497066915035,0.001356369350105524,-0.000537974527105689
1761316540500747800,3.073747802734375,-0.0017530192853882909,-0.0001941230148077011,-0.002750528510659933
1761316540510729500,3.0837294921875,-0.0013688665349036455,-0.00004562130197882652,0.0034865369088947773
1761316540520712700,3.093712646484375,-0.0005632602842524648,-0.000500223133713007,-0.000931913498789072
1761316540530694700,3.103694580078125,0.00043995550367981195,-0.0014316868036985397,0.0007473996374756098
1761316540540677600,3.113677734375,0.0010831088293343782,0.00030442792922258377,0.00025844317860901356
1761316540550659600,3.12365966796875,0.00008913024794310331,0.0007398813031613827,-0.0008377828635275364
1761316540560642800,3.133642822265625,-0.0007231339113786817,0.0011412198655307293,0.0004791503306478262
1761316540570624500,3.14362451171875,0.002409060252830386,0.0000544227659702301,-0.0022188022267073393
1761316540580607700,3.153607666015625,0.00036082311999052763,0.00015961751341819763,-0.0009039996657520533
1761316540590589400,3.16358935546875,-0.0008813907625153661,0.0025653657503426075,0.0020515352953225374
1761316540600572700,3.17357275390625,0.002044091699644923,0.00014694873243570328,-0.003466001944616437
1761316540610554600,3.1835546875,0.0005936002125963569,0.002325145062059164,-0.0007919992785900831
1761316540620537600,3.19353759765625,-0.0028876839205622673,-0.002725806087255478,0.0033534769900143147
1761316540630519600,3.20351953125,-0.00015784753486514091,0.0002620392479002476,0.0029760575853288174
1761316540640502800,3.213502685546875,0.0031684408895671368,0.003401373513042927,0.0013347514905035496
1761316540650484500,3.223484375,-0.0006935970159247518,0.00027475785464048386,0.0007193101337179542
1761316540660467700,3.2334677734375,0.0015889982460066676,0.0033656228333711624,-0.00020906771533191204
1761316540670449700,3.24344970703125,0.00008855259511619806,0.0010303417220711708,-0.0006699771620333195
1761316540680432600,3.2534326171875,0.00022517272736877203,0.0016487278044223785,-0.0006111213006079197
1761316540690414600,3.26341455078125,0.0032092686742544174,0.000864753033965826,-0.0010108202695846558
1761316540700397800,3.273397705078125,0.0011317370226606727,0.0011872616596519947,-0.001068344572558999
1761316540710379500,3.283379638671875,0.001657852903008461,0.004342289641499519,-0.0003929536323994398
1761316540720362800,3.29336279296875,-0.0005064980941824615,0.0016556927002966404,-0.0006661938969045877
1761316540730344400,3.303344482421875,0.0004596990766003728,0.0010395105928182602,0.0015945425257086754
1761316540740327700,3.31332763671875,0.0009180291090160608,-0.00015971064567565918,-0.0012430555652827024
1761316540750309600,3.3233095703125,0.0005906313890591264,0.001343707088381052,0.00038548000156879425
1761316540760292600,3.333292724609375,0.0015301945386454463,0.00024195760488510132,-0.0013562273234128952
1761316540770274600,3.343274658203125,0.00010368041694164276,0.00027270056307315826,-0.0011372494045644999
1761316540780256500,3.353256591796875,0.0010882510105147958,0.00006896862760186195,0.0010159163502976298
1761316540790239500,3.363239501953125,0.00031170749571174383,0.0003984300419688225,0.0008145811734721065
1761316540800221700,3.3732216796875,-0.0006624768720939755,0.0001044170930981636,-0.0005231245886534452
1761316540810204400,3.383204345703125,0.0009789949981495738,-0.0013010944239795208,0.0002832713071256876
1761316540820186600,3.3931865234375,0.0006045544287189841,0.00009466847404837608,0.0002611670643091202
1761316540830169600,3.403169677734375,-0.0008926809532567859,-0.0006209132261574268,-0.0009973312262445688
1761316540840151600,3.413151611328125,-0.0008269008831121027,-0.0013008182868361473,0.0004322536988183856
1761316540850134500,3.423134521484375,-0.0027545932680368423,-0.0014574695378541946,0.001053658314049244
1761316540860116700,3.43311669921875,-0.0004448335384950042,-0.0008542635478079319,-0.0006909784860908985
1761316540870099500,3.443099365234375,-0.000017969869077205658,-0.001141347922384739,-0.0003529693931341171
1761316540880081700,3.45308154296875,0.00024381885305047035,-0.0005993950180709362,0.0006430527428165078
1761316540890064600,3.463064697265625,-0.001333456370048225,0.00002972269430756569,0.0014367541298270226
1761316540900046600,3.473046630859375,-0.0018855297239497304,0.0006702127866446972,-0.0021864762529730797
1761316540910029600,3.483029541015625,0.002679059049114585,0.0010462813079357147,-0.0003147614188492298
1761316540920011500,3.493011474609375,-0.0008917074301280081,-0.0006900997832417488,0.0012804720317944884
1761316540929994500,3.502994384765625,0.0007841967744752765,0.0006160363554954529,-0.0002757797483354807
1761316540939976700,3.512976806640625,0.00045609520748257637,0.0001683589071035385,0.0005332885775715113
1761316540949959200,3.522959228515625,-0.00013383920304477215,-0.0012622992508113384,0.0018699083011597395
1761316540959941400,3.53294140625,0.00012661796063184738,0.0018107225187122822,-0.0017820845823734999
1761316540969924000,3.542924072265625,-0.00019083323422819376,0.0005317716859281063,0.0006993666756898165
1761316540979906300,3.55290625,-0.00023131328634917736,0.0009514857083559036,-0.0008833499159663916
1761316540989889300,3.56288916015625,-0.0007536275661550462,0.0008577397093176842,0.0015455360990017653
1761316540999871200,3.572871337890625,-0.0005099482950754464,0.002276139333844185,-0.001591934124007821
1761316541009854200,3.582854248046875,0.0014481893740594387,-0.00007491512224078178,0.0014454054180532694
1761316541019836400,3.59283642578125,-0.0014490634202957153,-0.00040754396468400955,0.002857946092262864
1761316541029819100,3.602819091796875,0.0029366575181484222,0.0007723248563706875,-0.001330958679318428
1761316541039801300,3.61280126953125,0.002229588106274605,0.00296943262219429,0.0001337798312306404
1761316541049784300,3.622784423828125,-0.00021419767290353775,0.001116273459047079,0.0018141246400773525
1761316541059766300,3.632766357421875,-0.00047891587018966675,0.0009016226977109909,0.001006654230877757
1761316541069749200,3.642749267578125,0.0009483802132308483,0.0018814820796251297,0.00027471105568110943
1761316541079731200,3.652731201171875,0.001087663695216179,-0.0006549125537276268,0.0014046903233975172
1761316541089714200,3.662714111328125,-0.0014823826495558023,0.00166787626221776,-0.0011235915590077639
1761316541099696400,3.6726962890625,0.0010103359818458557,-0.00022935960441827774,0.0009475487750023603
1761316541109678300,3.68267822265625,-0.0004138374933972955,-0.0018473777454346418,-0.0006199267227202654
1761316541119661300,3.692661376953125,-0.0009280939120799303,0.0017153993248939514,-0.002102508442476392
1761316541129643500,3.7026435546875,0.0013940016506239772,-0.0007760310545563698,0.002570125740021467
1761316541139626200,3.712626220703125,-0.0005455785430967808,-0.0009217057377099991,-0.0011239449959248304
1761316541149608400,3.7226083984375,-0.00020774337463080883,-0.0019234600476920605,0.0009969323873519897
1761316541159591400,3.73259130859375,0.0008900115499272943,0.0006851060315966606,0.00001875334419310093
1761316541169573400,3.742573486328125,0.0006515374407172203,-0.00004095910117030144,0.0009576862212270498
1761316541179556400,3.752556396484375,0.0008864281699061394,-0.002625557128340006,-0.0005432714242488146
1761316541189538300,3.762538330078125,-0.0014328374527394772,-0.0010436447337269783,0.0024322043173015118
1761316541199521300,3.772521240234375,0.00025400868616998196,-0.000645236112177372,-0.00097051658667624
1761316541209503500,3.78250341796875,-0.000673907867167145,-0.001007679384201765,0.00019972864538431168
1761316541219486200,3.792486328125,0.0018539645243436098,-0.0024500475265085697,0.0008271693950518966
1761316541229468400,3.802468505859375,0.001195822493173182,-0.0007845042273402214,-0.0009779911488294601
1761316541239451400,3.812451416015625,0.001767603331245482,0.0013130013830959797,0.000044396379962563515
1761316541249433300,3.822433349609375,-0.0006438090349547565,0.001149861142039299,-0.0003651746083050966
1761316541259416300,3.832416259765625,-0.0009165166993625462,-0.0016933297738432884,-0.001312194624915719
1761316541269398300,3.842398193359375,-0.0019623995758593082,0.0006279558874666691,0.001215294934809208
1761316541279381200,3.85238134765625,0.0024046520702540874,-0.00028044870123267174,-0.0006569072138518095
1761316541289363500,3.862363525390625,-0.00023696047719568014,0.0015866337344050407,-0.0023193317465484142
1761316541299346200,3.87234619140625,0.0005827605491504073,0.003293186891824007,0.0022554462775588036
1761316541309328400,3.882328369140625,0.0006550418911501765,0.00018033478409051895,-0.00041753659024834633
1761316541319311400,3.892311279296875,0.0008236198918893933,0.0008136346004903316,0.0022546793334186077
1761316541329293300,3.902293212890625,-0.0010865062940865755,0.0021197982132434845,-0.000008430564776062965
1761316541339276300,3.9122763671875,-0.0019456420559436083,-0.0005375035107135773,0.001771093811839819
1761316541349258500,3.922258544921875,0.00015860283747315407,0.000439690425992012,0.0007679540431126952
1761316541359240200,3.932240234375,0.0004784484626725316,0.0024391915649175644,-0.0011018512304872274
1761316541369223400,3.942223388671875,0.0009083395125344396,0.0002986537292599678,0.0010882348287850618
1761316541379205000,3.952205078125,-0.0008855657652020454,0.00017401762306690216,0.00039554666727781296
1761316541389188400,3.962188232421875,0.0016790626104921103,0.001595738809555769,0.00025052321143448353
1761316541399170300,3.97217041015625,-0.002183852717280388,-0.0017838128842413425,0.0007669100305065513
1761316541409153300,3.9821533203125,-0.0017135032685473561,-0.0006929216906428337,-0.001150851370766759
1761316541419135200,3.99213525390625,0.0010146389249712229,0.0003113565035164356,0.00043159909546375275
1761316541429118500,4.002118408203125,-0.00003778073005378246,-0.0006674081087112427,-0.0009555693250149488
1761316541439100200,4.01210009765625,0.00038459652569144964,0.0011390140280127525,0.0016812265384942293
1761316541449083400,4.02208349609375,0.0016240294789895415,0.00011508725583553314,0.000147299375385046
1761316541459065300,4.0320654296875,0.0018416097154840827,-0.0002947733737528324,0.0003204047679901123
1761316541469048300,4.04204833984375,0.0013384853955358267,-0.0021186217200011015,-0.0008804185781627893
1761316541479030300,4.0520302734375,-0.0006812559440732002,0.0010891556739807129,0.0016352033708244562
1761316541489013500,4.062013427734375,0.00047961040399968624,0.00015019159764051437,-0.0002849479205906391
1761316541498995200,4.0719951171875,-0.00048205710481852293,-0.001354494597762823,0.0005153319798409939
1761316541508978400,4.081978515625,0.00017058453522622585,0.002121636178344488,-0.0011410778388381004
1761316541518960000,4.091960205078125,0.0018537023570388556,-0.00080091692507267,-0.0007637077942490578
1761316541528943400,4.101943359375,0.0006088181398808956,0.0006928304210305214,-0.0012511585373431444
1761316541538925300,4.11192529296875,0.00270419311709702,0.0014411788433790207,-0.00034994492307305336
1761316541548908300,4.121908203125,0.00007710722275078297,-0.0001316005364060402,-0.0003836990799754858
1761316541558890200,4.13189013671875,-0.0005186419002711773,0.003249815199524164,0.003997733350843191
1761316541568873500,4.14187353515625,-0.004157545510679483,0.000594068318605423,0.0008278065361082554
1761316541578855200,4.151855224609375,0.0022502862848341465,0.00034932373091578484,0.0006895884871482849
1761316541588838400,4.16183837890625,-0.0017473283223807812,0.0020393203012645245,0.0007855272851884365
1761316541598820000,4.171820068359375,-0.0009270746959373355,0.0005202530883252621,-0.000153237022459507
1761316541608802300,4.18180224609375,0.0004758905852213502,-0.0008771899156272411,-0.0001504670362919569
1761316541618785300,4.191785400390625,-0.0011587576009333134,0.0002064504660665989,0.0005720484768971801
1761316541628767200,4.201767333984375,0.0009241544175893068,0.001055204775184393,0.0023185343015938997
1761316541638750200,4.211750244140625,0.00036675482988357544,0.001281307078897953,0.00024632876738905907
1761316541648732400,4.221732421875,-0.00002991326618939638,0.0010244492441415787,-0.0009536594152450562
1761316541658715100,4.231715087890625,0.002298488514497876,0.001194092445075512,0.001686065923422575
1761316541668697300,4.241697265625,-0.0019124106038361788,0.0014106188900768757,-0.0010672176722437143
1761316541678680300,4.251680419921875,-0.0015928312204778194,-0.00015798304229974747,-0.00009782705456018448
1761316541688662300,4.261662353515625,-0.0015840911073610187,-0.00054543511942029,-0.0011885177809745073
1761316541698645200,4.271645263671875,0.00042393244802951813,0.00025431253015995026,-0.0029355515725910664
1761316541708627200,4.281627197265625,0.0019323849119246006,0.0010395641438663006,-0.0013613167684525251
1761316541718610200,4.291610107421875,0.0010018765460699797,-0.0002464763820171356,-0.0007607738953083754
1761316541728592400,4.30159228515625,-0.0010653497884050012,-0.0030313332099467516,-0.0002507846802473068
1761316541738575000,4.3115751953125,0.0007424040231853724,-0.0029303994961082935,-0.00017808028496801853
1761316541748557300,4.321557373046875,0.00001064117532223463,0.00005635060369968414,0.0019511639839038253
1761316541758540300,4.331540283203125,0.00019866041839122772,0.0006174789741635323,-0.00009547523222863674
1761316541768522200,4.341522216796875,-0.0013811081880703568,-0.0016942773945629597,-0.00018250197172164917
1761316541778505200,4.351505126953125,-0.0009187834803014994,-0.0016362201422452927,0.000272632110863924
1761316541788487400,4.3614873046875,0.0011036605574190617,-0.001251497771590948,-0.0008748862892389297
1761316541798470100,4.37147021484375,-0.0008031626348383725,0.000053717754781246185,0.00001940317451953888
1761316541808452400,4.381452392578125,-0.0010441660415381193,0.0004263743758201599,-0.0004249187186360359
1761316541818435300,4.391435302734375,-0.0011909061577171087,0.003010705579072237,-0.001308555481955409
1761316541828417300,4.401417236328125,-0.0009880654979497194,0.00036238739266991615,0.0015854567755013704
1761316541838400300,4.411400146484375,-0.0008991159847937524,-0.0008000824600458145,0.00001871911808848381
1761316541848382200,4.42138232421875,0.0008466889848932624,0.0030287387780845165,0.0006951224058866501
1761316541858365200,4.431365234375,0.001978532411158085,0.0001519927754998207,0.0002391892485320568
1761316541868347400,4.441347412109375,0.0010420884937047958,0.0011581112630665302,-0.0018372610211372375
1761316541878329300,4.451329345703125,0.00047270464710891247,0.00004198029637336731,0.0006133797578513622
1761316541888312300,4.461312255859375,0.00015813892241567373,0.0011528790928423405,-0.0008895110804587603
1761316541898294300,4.471294189453125,-0.0005997966509312391,-0.0000759032554924488,-0.00016513140872120857
1761316541908277200,4.48127734375,-0.000021526822820305824,0.0009183725342154503,-0.00007705576717853546
1761316541918259500,4.491259521484375,-0.0025952057912945747,0.0011314256116747856,-0.002404658356681466
1761316541928242400,4.501242431640625,-0.00039151159580796957,0.001227379310876131,-0.0004380845930427313
1761316541938224400,4.511224365234375,0.0015131811378523707,0.00044414354488253593,-0.0013430267572402954
1761316541948207000,4.52120703125,-0.0003684930270537734,0.00038968026638031006,0.00325487507507205
1761316541958189000,4.53118896484375,0.0007662799907848239,0.0004123169928789139,-0.0022754454985260963
1761316541968172000,4.541172119140625,-0.0021528005599975586,0.0001992066390812397,-0.00013460335321724415
1761316541978154200,4.551154296875,0.0002871876349672675,0.0021675494499504566,0.00026407185941934586
1761316541988137000,4.561136962890625,-0.0010046146344393492,-0.00021978700533509254,-0.001383613795042038
1761316541998119200,4.571119140625,0.0011315069859847426,0.0008766362443566322,-0.0018070561345666647
1761316542008102100,4.58110205078125,-0.00016352708917111158,-0.00041626254096627235,-0.0022137246560305357
1761316542018084000,4.591083984375,0.001251410343684256,-0.00039282673969864845,-0.0008413977921009064
1761316542028067000,4.601067138671875,0.001986323855817318,-0.001909393584355712,0.00015677930787205696
1761316542038049000,4.611049072265625,0.0009588764514774084,-0.0008563799783587456,-0.0006530878599733114
1761316542048032000,4.621031982421875,-0.0019302153959870338,-0.00003159651532769203,0.000514287268742919
1761316542058014200,4.63101416015625,-0.0025864182971417904,-0.0018247030675411224,-0.0007744163740426302
1761316542067997000,4.640996826171875,-0.0012276355409994721,-0.0001945612020790577,0.0016772067174315453
1761316542077979100,4.650979248046875,-0.0014540042029693723,0.00025284988805651665,-0.0012533357366919518
1761316542087962000,4.660962158203125,0.0019605467095971107,-0.0013752938248217106,0.00440902728587389
1761316542097944000,4.670944091796875,-0.0014056888176128268,-0.0006421254947781563,-0.0012741584796458483
1761316542107927000,4.680927001953125,-0.0008457667427137494,-0.000588537659496069,-0.0003353531938046217
1761316542117909200,4.6909091796875,0.0014528075698763132,0.00008311169221997261,-0.0005766355898231268
1761316542127891000,4.700890869140625,-0.0016467513050884008,-0.000956839881837368,-0.0009114702697843313
1761316542137874200,4.710874267578125,-0.0001047810073941946,-0.0008931900374591351,0.0010539424838498235
1761316542147856000,4.72085595703125,-0.0007639119285158813,-0.00018156226724386215,-0.00023745885118842125
1761316542157839000,4.730839111328125,0.0005607444327324629,-0.000755473505705595,0.003010266227647662
1761316542167821000,4.740821044921875,0.0002054983051493764,0.0003518774174153805,0.0016122591914609075
1761316542177804000,4.750803955078125,0.0018840886186808348,-0.0017434973269701004,0.00030225026421248913
1761316542187786000,4.760785888671875,-0.0008325937087647617,0.001914676744490862,-0.0001567008439451456
1761316542197769200,4.770769287109375,-0.0009620233322493732,0.000012114644050598145,0.00014716596342623234
1761316542207751000,4.7807509765625,-0.0018000598065555096,0.0008726255036890507,0.0001587066799402237
1761316542217734100,4.790734130859375,0.00009291502647101879,0.004172015935182571,0.0011515332153066993
1761316542227716000,4.800716064453125,-0.0002941091079264879,0.0017635305412113667,-0.00202802661806345
1761316542237699000,4.810698974609375,0.0001700798748061061,-0.0006421031430363655,0.00033925753086805344
1761316542247681000,4.820680908203125,-0.00038757617585361004,0.0015703379176557064,0.0007275509415194392
1761316542257664000,4.8306640625,-0.0012230097781866789,-0.0009812363423407078,-0.0005539620760828257
1761316542267646000,4.84064599609375,0.0010965876281261444,0.0007826113142073154,0.0023788437247276306
1761316542277629200,4.850629150390625,0.00030110147781670094,0.00015011057257652283,-0.00023797829635441303
1761316542287611000,4.86061083984375,-0.0014085081638768315,-0.0003895373083651066,0.0003555845469236374
1761316542297594000,4.870593994140625,-0.0004329922376200557,-0.00019246339797973633,0.0006599838379770517
1761316542307576000,4.880576171875,0.0008659923914819956,0.00027984706684947014,0.0009534468408674002
1761316542317559000,4.89055908203125,0.00002336828038096428,-0.00004452560096979141,-0.0013922653160989285
1761316542327541000,4.900541015625,0.0009478217689320445,-0.0005187075585126877,0.0005907387239858508
1761316542337524200,4.910524169921875,0.002362226601690054,-0.0006452077068388462,0.0016133926110342145
1761316542347506000,4.920505859375,-0.0010566068813204765,-0.0008471538312733173,-0.0004987791180610657
1761316542357489200,4.9304892578125,-0.0005575304385274649,-0.0019680785480886698,0.00044238194823265076
1761316542367471000,4.94047119140625,0.0006977567682042718,0.0000191456638276577,0.002910456620156765
1761316542377453000,4.950453125,-0.0008511376800015569,-0.00036408286541700363,0.0028494703583419323
1761316542387436000,4.96043603515625,0.001940050395205617,-0.0011309213005006313,0.0007715915562584996
1761316542397418000,4.97041796875,0.0001778368605300784,-0.00021585915237665176,-0.0033139637671411037
1761316542407401000,4.98040087890625,-0.0008513922803103924,0.0005131023935973644,0.000716743990778923
1761316542417383200,4.990383056640625,-0.000024480745196342468,-0.0006102193146944046,0.0012677520280703902
1761316542427366100,5.0003662109375,-0.0004005748778581619,0.00029718875885009766,-0.0008082601707428694
1761316542437348000,5.01034814453125,0.0004449788248166442,0.0030522295273840427,-0.001997628016397357
1761316542447331000,5.0203310546875,-0.0003843563608825207,0.00014443974941968918,0.0005647946381941438
1761316542457313000,5.03031298828125,-0.0018152727279812098,-0.002025504130870104,-0.0008248428348451853
1761316542467296000,5.0402958984375,-0.0004113792674615979,-0.0017322748899459839,-0.000554884783923626
1761316542477278000,5.05027783203125,-0.0021839793771505356,-0.0007889834232628345,-0.0006150722038000822
1761316542487261200,5.06026123046875,-0.00170384650118649,-0.0008684322237968445,-0.0005518114194273949
1761316542497243100,5.0702431640625,-0.0009959782473742962,0.001955850049853325,0.0006588615942746401
1761316542507226000,5.08022607421875,0.002913201693445444,-0.000021002721041440964,-0.00023879623040556908
1761316542517208000,5.0902080078125,-0.0013403992634266615,0.001646136399358511,-0.00018686475232243538
1761316542527191000,5.10019091796875,0.00002772943116724491,0.0005403007380664349,0.001625283621251583
1761316542537173000,5.110173095703125,0.00009324320126324892,-0.0004498627968132496,-0.0008993931114673615
1761316542547156000,5.120156005859375,-0.0014933760976418853,0.001184771303087473,-0.00024066236801445484
1761316542557138000,5.130137939453125,0.0006954759592190385,0.0018524257466197014,-0.0019054042641073465
1761316542567121200,5.14012109375,0.00044463202357292175,0.0002993261441588402,0.0009409941267222166
1761316542577103000,5.15010302734375,-0.0014512724010273814,-0.000745698343962431,-0.0011173631064593792
1761316542587086000,5.160086181640625,0.0007204924477264285,0.0005144281312823296,-0.00019657635129988194
1761316542597068000,5.170068115234375,0.0006624356610700488,-0.0014214236289262772,-0.0016501296777278185
1761316542607050200,5.18005029296875,-0.0005570533685386181,0.0001143929548561573,-0.0011021075770258904
1761316542617033000,5.190032958984375,-0.000559716485440731,-0.0016970890574157238,-0.00292850355617702
1761316542627015200,5.20001513671875,-0.0008576244581490755,0.0005328608676791191,0.0006100948667153716
1761316542636998100,5.209998046875,-0.0008365854737348855,-0.00047780899330973625,0.00050969363655895
1761316542646980000,5.21997998046875,0.002497713780030608,-0.0012562382034957409,0.002723755780607462
1761316542656963000,5.229963134765625,-0.0014309814432635903,0.0010308846831321716,-0.0012789752800017595
1761316542666945000,5.239945068359375,-0.0037029916420578957,-0.00033541908487677574,-0.0010924609377980232
1761316542676928000,5.249927978515625,0.0011178625281900167,0.0017141494899988174,0.0005531063070520759
1761316542686910200,5.25991015625,-0.0021615568548440933,-0.00194340362213552,0.00028142426162958145
1761316542696893000,5.269892822265625,-0.0018555595306679606,-0.0005303304642438889,-0.0019644193816930056
1761316542706875100,5.279875244140625,-0.0005684292991645634,-0.000956452451646328,-0.0019131000153720379
1761316542716858000,5.289858154296875,-0.00040384591557085514,0.00012585613876581192,0.000401453347876668
1761316542726840000,5.299840087890625,-0.0006933048716746271,0.0010289992205798626,-0.0007553298491984606
1761316542736823000,5.309822998046875,-0.0021141013130545616,-0.0004027159884572029,-0.0004863506183028221
1761316542746805200,5.31980517578125,-0.0013014060677960515,0.002517786342650652,-0.00020619481801986694
1761316542756788000,5.3297880859375,0.001038713613525033,0.0018005971796810627,0.0013331121299415827
1761316542766770200,5.339770263671875,-0.00003203784581273794,0.00033914297819137573,0.0026509154122322798
1761316542776753200,5.349753173828125,-0.0009239305509254336,-0.000555945560336113,-0.002321206033229828
1761316542786735000,5.359735107421875,-0.00010109180584549904,0.0022995108738541603,0.0013056693132966757
1761316542796718000,5.369718017578125,-0.0010507750557735562,0.0016496996395289898,0.0017999520059674978
1761316542806700000,5.379699951171875,0.002398301847279072,0.0013850554823875427,0.00017302646301686764
1761316542816683000,5.38968310546875,-0.000945030536968261,-0.0015023439191281796,0.0009429461788386106
1761316542826665200,5.399665283203125,0.0008450839668512344,-0.0018800294492393732,0.0008862754330039024
1761316542836648000,5.40964794921875,-0.00036479008849710226,0.00005768658593297005,0.001798674464225769
1761316542846630100,5.419630126953125,0.002222807612270117,-0.0007083718664944172,0.00007171789184212685
1761316542856611800,5.42961181640625,0.001274189562536776,0.001944136805832386,-0.0008422790560871363
1761316542866595000,5.439594970703125,-0.0006391098722815514,0.000704640056937933,-0.0008666771464049816
1761316542876577000,5.449576904296875,0.0011140491114929318,0.00007746554911136627,0.00013067666441202164
1761316542886560000,5.45956005859375,-0.0019727316685020924,-0.0009967773221433163,0.00251518446020782
1761316542896542000,5.4695419921875,-0.0006909522344358265,0.001276230439543724,-0.0010316134430468082
1761316542906525200,5.479525146484375,0.001158132217824459,0.0010813274420797825,-0.001677368301898241
1761316542916507000,5.4895068359375,0.0008113887161016464,-0.0012654499150812626,-0.0003007801715284586
1761316542926490000,5.499489990234375,0.0012530992971733212,-0.0007713702507317066,0.0016561096999794245
1761316542936472000,5.50947216796875,-0.0004167027072981,0.0012771333567798138,0.0017549128970131278
1761316542946455000,5.519455078125,0.0013259578263387084,-0.0009614778682589531,0.0004913343582302332
1761316542956437000,5.52943701171875,-0.000724676123354584,0.0005549262277781963,-0.000663412269204855
1761316542966420000,5.539419921875,0.00021412025671452284,-0.0009632804431021214,0.0001354722771793604
1761316542976402000,5.54940185546875,0.0008125324966385961,-0.0009832540526986122,0.0015687854029238224
1761316542986385200,5.55938525390625,0.0022983006201684475,-0.0009228219278156757,0.0009900903096422553
1761316542996367000,5.5693671875,-0.0006892334786243737,-0.00012946594506502151,-0.002233133651316166
1761316543006350000,5.57935009765625,-0.0005142795853316784,-0.0009750844910740852,-0.0006041054148226976
1761316543016332000,5.58933203125,0.0023882994428277016,-0.00004058098420500755,-0.0020379512570798397
1761316543026315000,5.59931494140625,0.0016006703954190016,-0.002061509294435382,0.0017298569437116385
1761316543036297000,5.609296875,0.0006054472178220749,-0.0007075583562254906,-0.0005298352334648371
1761316543046280000,5.619280029296875,0.0033711520954966545,0.0008200965821743011,-0.0006485087797045708
1761316543056262100,5.62926220703125,-0.000011594733223319054,-0.0011897911317646503,-0.0007947161793708801
1761316543066243800,5.639243896484375,0.0011234860867261887,0.00013764295727014542,-0.00209272769279778
1761316543076227000,5.64922705078125,-0.0016701697604730725,-0.0017830287106335163,-0.00002717995084822178
1761316543086209000,5.659208984375,0.0013145690318197012,-0.0008899876847863197,0.00013855495490133762
1761316543096192000,5.66919189453125,0.0013190964236855507,0.0015284288674592972,0.001123924506828189
1761316543106174000,5.679174072265625,-0.0019470597617328167,0.0018520904704928398,-0.0003250488080084324
1761316543116157000,5.689156982421875,-0.0007688772748224437,0.0017697988077998161,-0.0004571417812258005
1761316543126139000,5.699138916015625,0.00020309560932219028,-0.000979970209300518,-0.00012164562940597534
1761316543136122000,5.7091220703125,-0.002761002629995346,0.0028752218931913376,0.0013444245560094714
1761316543146104000,5.71910400390625,0.00000536732841283083,0.0007283021695911884,-0.0007900905329734087
1761316543156087000,5.729087158203125,-0.0007525683031417429,-0.0004011448472738266,0.0015878460835665464
1761316543166069000,5.739069091796875,0.00108099146746099,-0.0009515080600976944,-0.001979219261556864
1761316543176052000,5.749052001953125,0.0003869717475026846,0.001587283331900835,-0.00045216293074190617
1761316543186034000,5.759033935546875,-0.0011011093156412244,-0.0011180955916643143,0.0007312523666769266
1761316543196017200,5.76901708984375,-0.0022974014282226562,-0.0009828070178627968,0.0013690793421119452
1761316543205998800,5.778998779296875,0.0012614987790584564,0.0018418426625430584,0.0008761250646784902
1761316543215982000,5.788982177734375,0.003095884108915925,0.00025779474526643753,0.0006739911623299122
1761316543225964000,5.798964111328125,0.0012955290731042624,0.00041567301377654076,-0.0010458684992045164
1761316543235947000,5.808947021484375,-0.002176966518163681,-0.0003933953121304512,-0.0002168265637010336
1761316543245929000,5.818928955078125,-0.0019874353893101215,-0.0018378985114395618,0.0010519821662455797
1761316543255912200,5.828912109375,0.0006035539554432034,-0.00014279643073678017,-0.000021804356947541237
1761316543265894000,5.838893798828125,0.0012440151767805219,-0.0008159992285072803,-0.000026702648028731346
1761316543275877000,5.848877197265625,0.0009207074763253331,0.0008876249194145203,0.0025786678306758404
1761316543285859000,5.858859130859375,-0.00036994117544963956,-0.0005769296549260616,-0.001021428732201457
1761316543295841000,5.868841064453125,0.0003022407181560993,0.0028939684852957726,0.0007309312932193279
1761316543305824000,5.878823974609375,-0.000905686873011291,0.00031044986099004745,-0.000707385828718543
1761316543315806000,5.888805908203125,0.0003902072785422206,0.0018052821978926659,0.0006098136072978377
1761316543325789000,5.898788818359375,-0.000768741243518889,-0.0032399084884673357,-0.002153696259483695
1761316543335771100,5.908771240234375,0.0005572466179728508,0.0018746922723948956,0.0006380953127518296
1761316543345753900,5.91875390625,0.002076472621411085,-0.0009071542881429195,0.0023406525142490864
1761316543355736000,5.928736083984375,0.00021652108989655972,-0.0011439095251262188,-0.0007976163178682327
1761316543365719000,5.938718994140625,0.002329812152311206,0.0002164631150662899,0.00034187198616564274
1761316543375701000,5.948700927734375,0.0025199619121849537,0.0014021024107933044,0.0004542574752122164
1761316543385684000,5.95868408203125,0.0004540418740361929,-0.004055799450725317,-0.0007007655221968889
1761316543395666000,5.968666015625,-0.002020567422732711,0.0008787717670202255,-0.00016760057769715786
1761316543405649000,5.97864892578125,0.00110915070399642,0.002538044471293688,0.0006841535214334726
1761316543415631000,5.988631103515625,0.0012830549385398626,-0.0019267448224127293,-0.0014538320247083902
1761316543425613800,5.99861376953125,0.0014884662814438343,0.0009952206164598465,0.00015824590809643269
1761316543435596000,6.008595947265625,0.0019151046872138977,0.0013813790865242481,0.0007374833803623915
1761316543445579000,6.0185791015625,0.00005091947969049215,0.00021767383441329002,-0.0003029126673936844
1761316543455561000,6.02856103515625,-0.0013437779853120446,-0.0007951264269649982,-0.0021857675164937973
1761316543465544000,6.0385439453125,-0.0006842546863481402,0.001654492225497961,-0.0005009856540709734
1761316543475526100,6.048526123046875,-0.0013724154559895396,0.0003255745396018028,-0.0004136341158300638
1761316543485508900,6.0585087890625,0.00313133979216218,-0.0003315778449177742,-0.0011512262281030416
1761316543495491000,6.068490966796875,-0.0027827422600239515,-0.00034862197935581207,0.0014722537016496062
1761316543505474000,6.07847412109375,0.0004516367334872484,0.000866555143147707,0.0008484042482450604
1761316543515456000,6.0884560546875,0.0003637524787336588,0.0007725455798208714,-0.0010464347433298826
1761316543525438000,6.09843798828125,0.0001756926067173481,-0.0010218201205134392,0.0004854844883084297
1761316543535421000,6.1084208984375,0.0009884893661364913,-0.0014644372276961803,-0.001193904783576727
1761316543545403000,6.11840283203125,0.0016618854133412242,-0.00014494964852929115,0.000008945586159825325
1761316543555386000,6.12838623046875,-0.0006990069523453712,0.033420734107494354,0.016381260007619858
1761316543565368000,6.1383681640625,-0.0016243024729192257,0.0841064602136612,0.041163377463817596
1761316543575351000,6.14835107421875,-0.0075591569766402245,0.21511107683181763,0.09766872972249985
1761316543585333000,6.1583330078125,-0.011764653958380222,0.21411307156085968,0.0994911715388298
1761316543595316000,6.16831591796875,-0.002816166263073683,0.07860584557056427,0.03556252643465996
1761316543605298000,6.1782978515625,0.0018395092338323593,-0.16106319427490234,-0.07780507951974869
1761316543615281200,6.18828125,0.010646316222846508,-0.4258578419685364,-0.1922789365053177
1761316543625262800,6.198262939453125,-0.0016862237825989723,0.13302023708820343,0.04878436028957367
1761316543635246000,6.20824609375,-0.0014002003008499742,-0.03155752271413803,-0.01576719991862774
1761316543645228000,6.21822802734375,0.0008761421777307987,0.035213109105825424,0.012163572944700718
1761316543655211000,6.2282109375,0.0001437729224562645,-0.03822781890630722,-0.014591341838240623
1761316543665193000,6.23819287109375,-0.0018587965751066804,0.000900018960237503,0.00003013736568391323
