time,seconds_elapsed,z,y,x
1761315256882435800,0.075435791015625,-0.2215764662891626,-0.2167074354806915,-0.35280937543883917
1761315256892417800,0.085417724609375,-0.2810176662951708,-0.22233289241334422,-0.23647110695168375
1761315256902399700,0.095399658203125,-0.32763328699767585,-0.18089991677943615,-0.13770897329598664
1761315256912380700,0.105380615234375,-0.3413420788764953,-0.12575162819437682,-0.07809504707157612
1761315256922363000,0.11536279296875,-0.31906828774809837,-0.03597021671598777,0.017798983801901338
1761315256932344800,0.1253447265625,-0.3246300135284662,0.025117508388031274,0.03917962548285722
1761315256942325800,0.13532568359375,-0.30315993999838825,0.06164956023786217,0.07310447224266826
1761315256952307700,0.1453076171875,-0.18830314224064348,0.07792707009352744,0.07707878270111977
1761315256962290000,0.1552900390625,-0.024724106889963147,0.06829789394484832,0.07286525665931404
1761315256972270800,0.165270751953125,0.07253449033498764,0.003302987068146467,0.07869162472523748
1761315256982252800,0.175252685546875,0.10018705189228057,-0.0688985632517375,0.08911277323551475
1761315256992234800,0.18523486328125,0.0705272421658039,-0.07600402960907668,0.04951543379724026
1761315257002216000,0.1952158203125,0.004106266275048256,-0.03478451406275853,-0.008025193284451962
1761315257012197600,0.20519775390625,-0.0776163236439228,-0.0047733884142711755,-0.013922653825208544
1761315257022178800,0.2151787109375,-0.13209493280649184,-0.008856748737767338,0.005945756661891937
1761315257032160800,0.225160888671875,-0.15900690512955187,-0.020756646297406405,0.06016425358355045
1761315257042143000,0.23514306640625,-0.18970248764455316,-0.025383758108783513,0.08487162853442132
1761315257052124000,0.2451240234375,-0.2000754130989313,-0.027674097535666076,0.0963371715310961
1761315257062105900,0.25510595703125,-0.21887363707125185,-0.019463373350165784,0.06729476305060088
1761315257072087800,0.265087890625,-0.19482582200765608,-0.00708809509743005,0.042285701739415524
1761315257082069000,0.275069091796875,-0.13191139293313026,0.0012619462272152305,0.03684928283914923
1761315257092050700,0.28505078125,-0.038653263521194456,-0.00022012729039415715,0.024679610161110758
1761315257102033000,0.295032958984375,0.0639484482973814,-0.019347053494118152,0.01338708564378321
1761315257112013800,0.305013916015625,0.13308745097517966,-0.061429122420214116,-0.0059993134800344705
1761315257121995800,0.314995849609375,0.12290157252550124,-0.1210643471609801,-0.03116020435206592
1761315257131977700,0.324977783203125,0.08991407968103884,-0.1436415599490516,-0.04051401589177549
1761315257141958700,0.334958740234375,0.0063040685802698134,-0.13511711190557107,-0.03969546605050563
1761315257151940900,0.34494091796875,-0.050909518504142756,-0.11191336471699177,-0.05703903423510492
1761315257161922800,0.3549228515625,-0.08014847247004508,-0.09886831571022048,-0.046628553249314426
1761315257171903700,0.36490380859375,-0.09459493097364902,-0.10607305945726112,-0.02470540218949318
1761315257181885700,0.3748857421875,-0.1158668515831232,-0.10566038700314238,0.024079233115166424
1761315257191868000,0.384867919921875,-0.0967050549954176,-0.08872572841299697,0.06770451289527118
1761315257201848800,0.394848876953125,-0.01938742203712463,-0.07194320991095154,0.07075856670364737
1761315257211830800,0.404830810546875,-0.017013678643107412,-0.10235741820130496,0.07967647104412316
1761315257221812700,0.414812744140625,-0.08563596397042274,-0.12481284950692206,0.06991334805116058
1761315257231794000,0.4247939453125,-0.17236790648400782,-0.11147331106560304,0.049142435766384
1761315257241775900,0.43477587890625,-0.24546938305199145,-0.067168305393029,0.03709047118388116
1761315257251757800,0.4447578125,-0.3036906858742237,-0.04278353172633797,0.020500351715087888
1761315257261738800,0.45473876953125,-0.28592998825609683,-0.044677473980467765,0.05429857642054557
1761315257271721000,0.464720947265625,-0.2207446916401386,-0.05647807588409632,0.09505538809224963
1761315257281702700,0.47470263671875,-0.14977671996951103,-0.04574976112078875,0.0980438293185085
1761315257291683800,0.484683837890625,-0.10657529162466525,-0.03391010584840551,0.061562283813208336
1761315257301665800,0.494665771484375,-0.04855272624492645,-0.013067333903815596,0.016793606151640415
1761315257311648000,0.50464794921875,0.007684124761819839,0.0028816746498458085,-0.02108735782280564
1761315257321629000,0.51462890625,0.03819032218456268,-0.030824999314639716,-0.03408295993097126
1761315257331611000,0.52461083984375,0.02435761166512966,-0.07068590332623571,-0.02160370984710753
1761315257341592800,0.5345927734375,-0.03785889827311039,-0.09155422983719036,-0.01933035808764398
1761315257351573800,0.54457373046875,-0.09484978251755237,-0.06643969885753467,-0.04849507777355611
1761315257361555700,0.5545556640625,-0.13980594557523726,-0.028142938890121875,-0.05908822184987366
1761315257371538000,0.564537841796875,-0.12461188357472419,0.0019414711902849375,-0.0851954536613077
1761315257381518800,0.574518798828125,-0.043781274059414864,-0.011123542892280965,-0.08599405669309199
1761315257391500800,0.584500732421875,0.06161445239186287,-0.04085592466462403,-0.0869291455861181
1761315257401482800,0.594482666015625,0.11556523828804492,-0.060545252257771784,-0.10802877836860715
1761315257411463700,0.604463623046875,0.05750993968248367,-0.08362677957247942,-0.12027677697986364
1761315257421446000,0.61444580078125,-0.039276363855600356,-0.08437955243485049,-0.11858056752122938
1761315257431427800,0.624427734375,-0.11936170796155929,-0.06979980467408894,-0.10734985619373619
1761315257441408800,0.63440869140625,-0.14083002792596816,-0.03992806922998279,-0.1006551077954471
1761315257451390700,0.644390625,-0.12589023294746876,-0.0285096898432821,-0.05187587931826711
1761315257461373000,0.654373046875,-0.10826923606097698,-0.04269402681197971,-0.02200330362394452
1761315257471353900,0.664353759765625,-0.09247779268920421,-0.03900521876402199,-0.02116685279980302
1761315257481335800,0.674335693359375,-0.07469780584871769,-0.02539247113820165,-0.040179888566583395
1761315257491317800,0.68431787109375,-0.085711951816082,-0.023992943071201443,-0.060553325966373084
1761315257501299000,0.694298828125,-0.07125146478712559,-0.03588069353532046,-0.04449176041632891
1761315257511281000,0.704281005859375,-0.06823708540201187,-0.03609656477570534,-0.030479820872470736
1761315257521261600,0.714261474609375,-0.053853755262494085,-0.02228946362156421,-0.03533639405816793
1761315257531243800,0.724243896484375,-0.033118425747752187,-0.011233889665268362,-0.06748838592655956
1761315257541226000,0.73422607421875,0.005220364996790886,-0.027740093710273504,-0.061403951446339484
1761315257551207000,0.74420703125,0.04763444235622882,-0.05477529055420309,-0.026650910234078763
1761315257561188600,0.754188720703125,0.0912707549870014,-0.03972615344971418,0.0413478363674134
1761315257571170800,0.7641708984375,0.1435872176796198,-0.022426643602550027,0.09000658027008175
1761315257581151700,0.77415185546875,0.20042320362329483,-0.020203341529890895,0.10033588577844202
1761315257591134000,0.784134033203125,0.21362696858942506,-0.02001015704534948,0.10558145828172563
1761315257601115600,0.79411572265625,0.1379524266630411,-0.021283172655850648,0.09044511781781911
1761315257611096800,0.804096923828125,-0.00826221691071987,-0.01963595343809575,0.056688101905584334
1761315257621078800,0.814078857421875,-0.17360358575880527,-0.005493848175927996,0.0036011662971228357
1761315257631060700,0.824060791015625,-0.2916203088521957,-0.006785641552135348,-0.004897781978920102
1761315257641041700,0.834041748046875,-0.30975159334838387,-0.034243557320162654,0.02792356051839888
1761315257651024000,0.84402392578125,-0.25244565180540085,-0.05172039649561047,0.08708813554011285
1761315257661005800,0.854005859375,-0.16076865410506724,-0.050697921580076216,0.1331098089374602
1761315257670987000,0.863987060546875,-0.10519757353067398,-0.044241585047543046,0.15806173323392866
1761315257680968700,0.87396875,-0.13272095575034618,-0.0359836059205234,0.14143997651785611
1761315257690951000,0.883950927734375,-0.17538462395668028,-0.04194569266270846,0.08871054911017417
1761315257700931800,0.893931884765625,-0.20069792891144753,-0.02936893702112138,0.026683935720846055
1761315257710913500,0.90391357421875,-0.15898352425396442,-0.04502922829389572,-0.009703282564505934
1761315257720895700,0.913895751953125,-0.08884206653535366,-0.07226970191895961,-0.009964271588250993
1761315257730876700,0.923876708984375,0.0025397476106882094,-0.09513645397182553,-0.000757321173325181
1761315257740859000,0.93385888671875,0.05365560234189033,-0.0825390208683908,0.002413198621571064
1761315257750840600,0.943840576171875,0.03945230494439601,-0.09530826687477528,-0.025718232493847606
1761315257760821800,0.95382177734375,0.014752163451910019,-0.11965860854890197,-0.05574219935759902
1761315257770803700,0.9638037109375,-0.0065402154237031935,-0.11660225318558513,-0.051685982769355175
1761315257780786000,0.973785888671875,-0.030343700337409973,-0.12695976187512278,-0.06512392181754112
1761315257790766600,0.9837666015625,-0.062443304431438446,-0.12712781191840766,-0.06724347125478089
1761315257800748800,0.993748779296875,-0.05488777448534965,-0.13515706032346933,-0.04909326286241412
1761315257810730800,1.003730712890625,-0.08793079690933227,-0.1452786048326641,-0.031113807927072048
1761315257820712000,1.0137119140625,-0.11161503935754298,-0.12639540599063037,-0.0228706610430032
1761315257830693600,1.023693603515625,-0.1336480074673891,-0.08819050729144363,-0.02914674563780427
1761315257840675800,1.03367578125,-0.15687924545109272,-0.07654810989052056,-0.039872649248316884
1761315257850656800,1.04365673828125,-0.13305354870557784,-0.04540025356337428,-0.015002484951168299
1761315257860639000,1.053638916015625,-0.09363456150889396,-0.011795359472930431,-0.02242942008152604
1761315257870620700,1.06362060546875,-0.06482815374135971,-0.022791860185749826,-0.02576550570167601
1761315257880601900,1.073601806640625,-0.03196984023451805,-0.027347769924439488,-0.03160151837877929
1761315257890583800,1.083583740234375,-0.040005262652039526,-0.051986317422799765,-0.01852262190133333
1761315257900565800,1.093565673828125,-0.0658387920886278,-0.07811532267462462,-0.005510726245492696
1761315257910546700,1.103546630859375,-0.060113984701037404,-0.06938691302426159,0.00047623920962214467
1761315257920528600,1.113528564453125,-0.04659691600203514,-0.0475262692740187,0.025138386779278515
1761315257930510800,1.1235107421875,-0.023065818288922308,-0.03491754759158939,0.058971463602408764
1761315257940491800,1.13349169921875,0.006789221748709678,-0.0420189040293917,0.0870013340394944
1761315257950473700,1.1434736328125,-0.007780570873618125,-0.045452824000827965,0.08596687642522156
1761315257960455700,1.15345556640625,-0.04792611877918243,-0.02955843171123415,0.05209821683205664
1761315257970436900,1.163436767578125,-0.06999006654918194,-0.011204553972929715,0.014753405560925602
1761315257980418600,1.17341845703125,-0.016721417698264122,-0.01986271139867604,-0.018231530000269412
1761315257990400800,1.18340087890625,0.05256956067085266,-0.0493118740491569,-0.03149981156997383
1761315258000381700,1.193381591796875,0.06244388895332813,-0.07078223984017967,-0.026029271204397082
1761315258010364000,1.203364013671875,0.03415536758005619,-0.07776797054167836,0.009528072128072381
1761315258020345600,1.213345703125,-0.06329086117148398,-0.07841350190360098,0.04157616523057222
1761315258030326800,1.223326904296875,-0.19426526551544665,-0.060612435742467635,0.05378587765805423
1761315258040308700,1.233308837890625,-0.2621528068274259,-0.026224464982934296,0.060352177371084684
1761315258050290000,1.2432900390625,-0.2644569921165705,-0.0055905134834349154,0.06183766668848693
1761315258060271600,1.253271728515625,-0.17453297556340694,-0.008109291371330618,0.07567329981736838
1761315258070253800,1.26325390625,-0.046799160575866694,-0.03295096022635698,0.06310863647237419
1761315258080234800,1.27323486328125,0.05170797540545463,-0.04591649598982185,0.041998190034925935
1761315258090217000,1.283217041015625,0.10521686275303363,-0.05741473567970097,0.01605557420067489
1761315258100198700,1.29319873046875,0.10851064360141753,-0.05007105838600546,-0.009730316701903939
1761315258110179600,1.3031796875,0.037924364724755286,-0.0604461392648518,-0.03586458265073597
1761315258120161800,1.313161865234375,-0.04425707487761974,-0.06690072223171592,-0.03735372522994876
1761315258130144000,1.32314404296875,-0.14327040681540965,-0.07597399979699403,-0.041620808089897036
1761315258140124700,1.333124755859375,-0.20105098013281822,-0.07426065654046833,-0.057591334355622525
1761315258150106600,1.343106689453125,-0.1699158371567726,-0.039460780511796474,-0.048873847958073015
1761315258160088800,1.3530888671875,-0.12497078001499175,-0.023594372207671403,-0.024240561156719923
1761315258170069800,1.36306982421875,-0.049282209563255304,-0.0013311024732887745,0.0062581836119294165
1761315258180051700,1.3730517578125,0.06836918734908104,0.0035852746082469817,0.04090849510207772
1761315258190033700,1.38303369140625,0.13547989906966684,-0.03294690510574728,0.07027860116697847
1761315258200014800,1.393014892578125,0.14054770385324955,-0.05666260213814676,0.06587349807582796
1761315258209996800,1.402996826171875,0.08490881873965263,-0.06684142979253083,0.04008614586852491
1761315258219978800,1.412978759765625,0.02207622272968292,-0.06487257740497589,-0.009107143302261828
1761315258229959700,1.422959716796875,-0.0733773708999157,-0.05814031000789255,-0.015982070573046802
1761315258239942000,1.43294189453125,-0.18208324481248855,-0.04494070976022631,-0.02205320718027651
1761315258249923600,1.442923583984375,-0.2793956180512905,0.0054375514114275575,-0.032124227078631516
1761315258259904800,1.45290478515625,-0.34263445677459237,0.019105207562260328,-0.005463014646247029
1761315258269886700,1.46288671875,-0.3389513843476772,-0.006582337532378733,0.023806626718863844
1761315258279869000,1.472868896484375,-0.27872166431248185,-0.015840945069305598,0.06626658904664218
1761315258289849900,1.482849853515625,-0.207286075130105,-0.020396343351341783,0.06291910524964332
1761315258299831800,1.492831787109375,-0.12529285157620906,-0.007468143923580646,0.03125241268016398
1761315258309813800,1.502813720703125,-0.01681903285384178,0.019363675835356114,-0.009859057648107409
1761315258319794700,1.512794677734375,0.07807984950244426,0.017962869126722215,-0.0385914503313601
1761315258329776600,1.522776611328125,0.11582067435383796,-0.026664427302777766,-0.07744783520922065
1761315258339758800,1.5327587890625,0.12738602446317673,-0.06288885624185205,-0.11722900678180158
1761315258349739800,1.54273974609375,0.11255845768749713,-0.06777699360959231,-0.17797800145074724
1761315258359721700,1.5527216796875,0.081720836353302,-0.06838577315770089,-0.20855682571828363
1761315258369703700,1.56270361328125,0.04936696523725986,-0.060728828663751476,-0.20840916087590156
1761315258379684600,1.5726845703125,-0.0035229134291410442,-0.04214822949748486,-0.20115100644119083
1761315258389666800,1.582666748046875,-0.04032616516947746,-0.044720235409960146,-0.16157712094374
1761315258399648800,1.592648681640625,-0.06267360605597495,-0.03781929691508412,-0.114570601227507
1761315258409629700,1.602629638671875,-0.04160159193277359,-0.05037975900899619,-0.08468794253058731
1761315258419611600,1.612611572265625,0.0038549218624830245,-0.055797875067591665,-0.06466850620023906
1761315258429593900,1.62259375,0.02946925559043884,-0.058310150149464605,-0.04134337938800454
1761315258439574800,1.63257470703125,0.05270224713981151,-0.05027103793751448,-0.057756534854695195
1761315258449556700,1.642556640625,0.052605801028013224,-0.04313862877432257,-0.0704427787527442
1761315258459538700,1.65253857421875,0.07938391783833504,-0.049524420821294185,-0.07424355927519499
1761315258469520000,1.662519775390625,0.08554419403374194,-0.0365823755312711,-0.0428553183209151
1761315258479501800,1.672501708984375,0.05033727157413959,-0.013258600425906479,0.002895502245798707
1761315258489482800,1.682482666015625,0.014875497570633887,-0.011168642409332095,0.0358013081561774
1761315258499464700,1.692464599609375,-0.02636310626864433,-0.05856741284616291,0.03643032677471637
1761315258509447000,1.702447021484375,-0.11913140633702278,-0.03842025848291814,0.05510134417079389
1761315258519428600,1.7124287109375,-0.16292437083423136,-0.045765506679192186,0.0980965093538165
1761315258529409500,1.722409423828125,-0.192573074644804,-0.06631280280854553,0.09650142218209802
1761315258539391700,1.732391845703125,-0.20606442438066006,-0.0645256271308288,0.1237775516424328
1761315258549372700,1.74237255859375,-0.2267757884979248,-0.05722991716470569,0.19610753238126635
1761315258559355000,1.75235498046875,-0.13785364246368406,-0.055734381377324456,0.1403921479653567
1761315258569336600,1.762336669921875,-0.06888005948066711,-0.057421348083578044,0.15339074574820696
1761315258579317800,1.77231787109375,-0.04983808988034725,-0.06646759151145816,0.1716656764987856
1761315258589299700,1.7822998046875,-0.03566986379623413,-0.053605260394141076,0.17358904577679932
1761315258599281700,1.79228173828125,-0.0511082559466362,-0.012310250192508101,0.16302373955547808
1761315258609262600,1.8022626953125,-0.04946282682716846,0.011920593287795782,0.15325930138826369
1761315258619244800,1.812244873046875,-0.08445932140648364,-0.009211407394334674,0.1347417209882289
1761315258629226800,1.822226806640625,-0.17102350613772868,-0.048325602958165105,0.11480404465720057
1761315258639208000,1.8322080078125,-0.2631482476055622,-0.02802990696970373,0.10488149331882596
1761315258649189600,1.842189697265625,-0.22983166893720625,-0.055869990455731745,0.04023943673409521
1761315258659171800,1.852171875,-0.211844176825881,-0.04248622928019613,-0.002387479658424854
1761315258669152800,1.86215283203125,-0.11370645867884159,-0.014583382756263016,0.0585227699868381
1761315258679134700,1.872134765625,-0.047287236353754994,0.016087795969843863,0.042207595001906156
1761315258689116700,1.88211669921875,0.007091419565677643,0.011243790004774927,0.029672961468994615
1761315258699097900,1.892097900390625,0.01987199068367481,-0.03374503321349621,-0.026121479532495138
1761315258709080000,1.902080078125,-0.009212649503350257,-0.06461063853316008,-0.07373750944919884
1761315258719061800,1.912061767578125,-0.08995850334465504,-0.0933674715379253,-0.12639818246960638
1761315258729043000,1.92204296875,-0.1856359688580036,-0.09476411352809518,-0.15241912423707543
1761315258739025000,1.93202490234375,-0.20971651714742182,-0.08007168090678751,-0.17200294562913476
1761315258749007000,1.942007080078125,-0.15931436364352702,-0.04939546067938208,-0.15740436530373988
1761315258758987800,1.95198779296875,-0.052604047462344164,-0.03808116272166371,-0.10545600527115166
1761315258768970000,1.961969970703125,0.049123219609260554,-0.03547339137606322,-0.07400456288754939
1761315258778952000,1.971951904296875,0.10001812506616115,-0.044654001773335034,-0.07939327018857002
1761315258788933000,1.98193310546875,0.1403355224072933,-0.052586694468744095,-0.11388305735476315
1761315258798914800,1.991914794921875,0.16200667146742342,-0.059277058952860534,-0.13065766654498875
1761315258808897000,2.00189697265625,0.12964987774193287,-0.08715217721965163,-0.13855908731929958
1761315258818878000,2.0118779296875,0.06883037512004375,-0.08448299454301596,-0.1370260325331241
1761315258828860200,2.021860107421875,0.0029302082329988478,-0.0391936174755916,-0.14548391814641654
1761315258838841900,2.031841796875,-0.07826748102903365,-0.014823292459361254,-0.14208127009607852
1761315258848822800,2.04182275390625,-0.18739070357084273,-0.01266965808942914,-0.11143836761638522
1761315258858805000,2.051804931640625,-0.264668589040637,-0.036552564914897084,-0.057501537180319424
1761315258868786700,2.06178662109375,-0.2537912211954593,-0.035735037986934184,-0.012810089473426342
1761315258878767900,2.071767822265625,-0.16306874774098395,-0.021356128294207154,0.024811712108179926
1761315258888749800,2.081749755859375,-0.08156184639930725,-0.03503657086137682,0.06147504392117262
1761315258898732000,2.09173193359375,-0.011559504890441894,-0.05404113106075674,0.08203618591278791
1761315258908713000,2.101712890625,0.023983517655730247,-0.039233438029326495,0.06871069426313042
1761315258918695000,2.11169482421875,0.06524433332681656,-0.029461401077546176,0.014520181326940655
1761315258928675800,2.12167578125,0.06861819367408752,-0.05696889160834252,-0.0143449708905071
1761315258938658000,2.131657958984375,0.04331424106955528,-0.09321615343373268,-0.02315736902989447
1761315258948639700,2.1416396484375,-0.002963525980710983,-0.12276990896984934,-0.03869301100969314
1761315258958621000,2.151620849609375,-0.036629064217209815,-0.12448862252123653,-0.04379720228090882
1761315258968603000,2.161602783203125,-0.06137830554842948,-0.1231349063573405,-0.017711743909865615
1761315258978585000,2.171585205078125,-0.11360884352326392,-0.10913564363196492,0.03041735009551048
1761315258988566000,2.18156591796875,-0.18906185165345668,-0.06109020932205021,0.07747830341272055
1761315258998548000,2.1915478515625,-0.20673954716324805,-0.021296324398368597,0.11272979566641152
1761315259008530000,2.201530029296875,-0.17162264107465744,0.0024863369230180977,0.130697267903015
1761315259018510800,2.2115107421875,-0.1033452236622572,-0.005440802814438939,0.14147322120033204
1761315259028492800,2.221492919921875,-0.06537409718632697,-0.0485382227955386,0.1370613961074501
1761315259038475000,2.23147509765625,-0.1151215861737728,-0.09201981978863477,0.10528481342270969
1761315259048456000,2.2414560546875,-0.16642741051912308,-0.0993878643386066,0.048180678062140936
1761315259058438000,2.25143798828125,-0.19533143344223497,-0.07804799305945634,-0.013343611828237772
1761315259068419800,2.261419921875,-0.1828781945824623,-0.06986647670213132,-0.046001361261680716
1761315259078400800,2.27140087890625,-0.13611995053887366,-0.09051094959564507,-0.014656301862001418
1761315259088383000,2.281383056640625,-0.06256780759394169,-0.09248528187591581,0.027286870050057768
1761315259098365000,2.291364990234375,-0.014473931032419203,-0.06567052284963429,0.04877323712781071
1761315259108346000,2.30134619140625,0.0073369187593460075,-0.03628211394306272,0.05699585268050432
1761315259118327800,2.311327880859375,0.017800445106625557,-0.034906733936630185,0.04822181379012763
1761315259128310000,2.32131005859375,0.014185177218914031,-0.058856057061813766,0.023750804878398774
1761315259138291000,2.331291015625,0.006303484058380127,-0.09764138599745929,-0.007020034829899669
1761315259148273000,2.34127294921875,-0.01585398721396923,-0.11813779218979178,-0.026790610965713856
1761315259158254800,2.3512548828125,-0.054826984208822246,-0.11216456299908459,-0.023034546367824076
1761315259168236000,2.361236083984375,-0.06963409271836281,-0.08316522647533565,-0.006726458710804581
1761315259178218000,2.371218017578125,-0.08703589389622211,-0.04960530403777957,0.015958543566986918
1761315259188200000,2.381199951171875,-0.10306991385221481,-0.013268318102322518,0.04163352144099772
1761315259198180900,2.391180908203125,-0.12093407184481621,0.015134915691800414,0.03139079823754728
1761315259208163000,2.4011630859375,-0.0991577088445425,0.006095028939470649,0.014898951511457561
1761315259218144800,2.411144775390625,-0.052744917237758634,-0.003396291374787688,-0.015615575348213314
1761315259228126000,2.4211259765625,-0.022770634734630583,-0.047997503514960405,-0.006962386358529329
1761315259238108000,2.43110791015625,-0.03499474101364612,-0.07609346145819872,-0.0018720044169574974
1761315259248090000,2.441090087890625,-0.042185529300570485,-0.05841035912092775,-0.0008294365614652633
1761315259258071000,2.451071044921875,-0.07216331893503665,-0.028805530984699724,-0.00486037257798016
1761315259268052700,2.461052734375,-0.12269874342978,-0.019037329957820474,-0.009378726785257458
1761315259278035000,2.471034912109375,-0.1895709702193737,0.02834171286523342,0.013001593457534908
1761315259288016000,2.481015869140625,-0.1580295845299959,0.05612681476101279,0.004690203642845153
1761315259297997800,2.490997802734375,-0.10187515110969543,-0.03868113790880889,-0.019089681199565528
1761315259307979800,2.500979736328125,-0.060357145807147024,-0.07210983518213034,-0.01760192685984075
1761315259317961000,2.5109609375,-0.00037643209695816036,-0.04723846530858427,-0.02361738775707781
1761315259327943000,2.52094287109375,0.09226151959002017,-0.026843729392439127,-0.059864905310794705
1761315259337924000,2.530924072265625,0.12299684959352016,-0.062121305935457345,-0.09444697387032211
1761315259347905800,2.54090576171875,0.07306406716704368,-0.11805785882137715,-0.0811909672603011
1761315259357888000,2.550887939453125,0.004826397243142128,-0.13642678799834101,-0.06887355667464434
1761315259367869000,2.560868896484375,-0.0824526577591896,-0.11852401502840221,-0.06820194102339446
1761315259377851100,2.57085107421875,-0.13917466193437575,-0.10125164891649037,-0.05756378876157105
1761315259387832800,2.580832763671875,-0.1256692836731672,-0.08495696873031557,-0.022603680669888854
1761315259397814000,2.59081396484375,-0.07368892106711863,-0.08609046627227217,0.027581322951987383
1761315259407796000,2.6007958984375,-0.004180500555038452,-0.11005224702022968,0.08002923000454902
1761315259417778000,2.61077783203125,0.001384147834777832,-0.13061178157664835,0.10943228849098086
1761315259427758800,2.6207587890625,-0.010323825615644454,-0.11442629738599061,0.09056092621721326
1761315259437741000,2.630740966796875,-0.07009937214255332,-0.09842983296141028,0.02537109955660999
1761315259447723000,2.640722900390625,-0.1646224069237709,-0.11023713860046118,-0.0023406448420137164
1761315259457704000,2.650703857421875,-0.2296077970534563,-0.09686459293868392,-0.01720145630016923
1761315259467686000,2.660685791015625,-0.2614361829906702,-0.10548139544073491,-0.007585048301517963
1761315259477668000,2.670668212890625,-0.23863515311777592,-0.08646799434777348,0.00908675810135901
1761315259487649000,2.68064892578125,-0.22166998979151248,-0.0831688432045281,0.04501198489814996
1761315259497630700,2.690630615234375,-0.2417278584361076,-0.07867514851447194,0.08237111695557832
1761315259507613000,2.700613037109375,-0.22577157989144325,-0.04793390022683888,0.08646722716279327
1761315259517593900,2.71059375,-0.1690016449213028,-0.032732275974377986,0.06789068311713635
1761315259527576000,2.720576171875,-0.0923784239679575,-0.02734455505404621,0.05196867216825485
1761315259537557800,2.730557861328125,-0.009853285494446754,-0.04914689274579286,0.0459695048186928
1761315259547539000,2.7405390625,0.03784720783531666,-0.06010550913363695,0.027925167953595516
1761315259557521000,2.75052099609375,0.016645429852604865,-0.06546466154661029,-0.001977437552809715
1761315259567502800,2.7605029296875,-0.01821720921397209,-0.03926204306930303,-0.013405059691891073
1761315259577483800,2.77048388671875,-0.06970481986701488,-0.00883380625359714,0.0009524784192442893
1761315259587466000,2.780466064453125,-0.06781564511954784,-0.009124386698007582,-0.04889708270318806
1761315259597448000,2.790447998046875,0.004222586131095886,-0.011957198971137404,-0.07061667401492595
1761315259607429000,2.80042919921875,0.0594300940901041,-0.018693119630031285,-0.019908523301780223
1761315259617410800,2.810410888671875,0.05856441717147827,-0.054035760765895245,-0.02294073060452938
1761315259627393000,2.82039306640625,0.019272855746746063,-0.09069664489347487,-0.042345907494053245
1761315259637374000,2.8303740234375,-0.00041910219490528107,-0.06735920658893883,-0.04136223021894693
1761315259647356200,2.840356201171875,0.010962123519182205,-0.04579144483804703,-0.030096374512836335
1761315259657337900,2.850337890625,0.008127776876091957,-0.04446907366048544,-0.05923953995406627
1761315259667318800,2.86031884765625,-0.015062544575333594,-0.06189977213926613,-0.08860628501810133
1761315259677301000,2.870301025390625,-0.07858078476190566,-0.07112272384092211,-0.11771905532106756
1761315259687283000,2.880282958984375,-0.12172960613667964,-0.07017031848691403,-0.12038031041957438
1761315259697263900,2.890263916015625,-0.15320494085252284,-0.056571526321209965,-0.07177914192304015
1761315259707246000,2.90024609375,-0.1654366459161043,-0.02439830900169909,-0.003193681474775076
1761315259717228300,2.910228271484375,-0.12925532546639443,0.042541393533535296,0.06835640093274414
1761315259727209200,2.920209228515625,-0.06627426089644432,0.08060648190323264,0.07868621789775788
1761315259737191200,2.930191162109375,0.010969137781858443,0.07722425558641552,0.07642652933746576
1761315259747173000,2.940173095703125,0.042863574692606925,0.026946678310260173,0.08029109581112862
1761315259757154300,2.950154296875,-0.029785481932759282,-0.04137194789536297,0.04012370139993727
1761315259767136000,2.960135986328125,-0.11796937682032585,-0.066856736959517,-0.027287381506711242
1761315259777118200,2.9701181640625,-0.14591887549757956,-0.05334200634807348,-0.054367038546875114
1761315259787099100,2.98009912109375,-0.10948854872286319,-0.06960114029683172,-0.03985204485170543
1761315259797081300,2.990081298828125,-0.05041559750735759,-0.08857848369572312,0.0016347615949809551
1761315259807063000,3.00006298828125,0.04309212275147438,-0.06925020796731114,0.03778239897079765
1761315259817044200,3.010044189453125,0.12390811921954155,-0.03790036279466003,0.07609013698995112
1761315259827026200,3.020026123046875,0.15607085167765616,-0.0138224448537454,0.09238215029500424
1761315259837007000,3.030007080078125,0.142361475276947,-0.017158092082478104,0.05827661320604383
1761315259846989000,3.039989013671875,0.07068097142279148,-0.03296250453367829,0.016780673604831098
1761315259856971000,3.049970947265625,-0.02615267838835716,-0.07168393792025744,0.0008687456585466861
1761315259866952200,3.0599521484375,-0.10409458072483539,-0.08385602175109087,-0.008571136729419232
1761315259876934100,3.06993408203125,-0.16063362954854965,-0.06910239699445664,-0.0065166884176433085
1761315259886916000,3.079916015625,-0.17897709549069404,-0.04525262525361031,-0.007759235824644565
1761315259896897000,3.08989697265625,-0.1727782408505678,-0.05822477342095226,0.022692527997121213
1761315259906879200,3.099879150390625,-0.13772446312606335,-0.04614319915147498,0.08941862431429326
1761315259916861200,3.109861083984375,-0.179993579056859,-0.06320895504169166,0.06378470910303294
1761315259926842000,3.119842041015625,-0.21599077511131762,-0.05554220153978094,0.09557473579123615
1761315259936824000,3.129823974609375,-0.24031389998495578,-0.03217732723904773,0.08609890530705451
1761315259946806300,3.13980615234375,-0.23017770589590072,-0.013468882175721227,0.056863020081073044
1761315259956787200,3.149787109375,-0.2167056453824043,-0.04862977353651076,0.05375562865026295
1761315259966769200,3.15976904296875,-0.13527414736449717,-0.06479300936274231,0.028932445299997923
1761315259976751000,3.169751220703125,-0.04864917235672474,-0.06710285720769316,-0.03902918416149914
1761315259986732300,3.179732177734375,0.041293548896908755,-0.10665482313428074,-0.08255239180661737
1761315259996714200,3.18971435546875,0.09913725057840346,-0.1394132929958403,-0.08304923541285097
1761315260006696200,3.1996962890625,0.10464870747625828,-0.1469370395641774,-0.05054755332395434
1761315260016677000,3.209677001953125,0.08636895442008971,-0.11805438822265714,-0.036531010670214886
1761315260026659300,3.219659423828125,0.07213058570921421,-0.07274163027964532,-0.010371902541071176
1761315260036641000,3.22964111328125,0.006167874979972839,-0.052788847711030394,0.028725670681521296
1761315260046622000,3.2396220703125,-0.04991524676978588,-0.028160346682649103,0.03882401697821915
1761315260056604200,3.249604248046875,-0.11047229906320571,-0.00577005303511396,0.006225450386106967
1761315260066586400,3.25958642578125,-0.15762567990422247,0.027506376285944132,-0.04344992321319878
1761315260076567300,3.2695673828125,-0.1875882719695568,0.016557605438679457,-0.09439151735603808
1761315260086549000,3.279549072265625,-0.17798925349712372,-0.023174356697313485,-0.09814655904062092
1761315260096531200,3.28953125,-0.15107786569595336,-0.03649298021476716,-0.0858699188567698
1761315260106512100,3.29951220703125,-0.08287292899787425,-0.055126040220633145,-0.09070712975487112
1761315260116494000,3.309494140625,-0.019650456887483597,-0.06260379222277551,-0.060568669665977355
1761315260126476000,3.31947607421875,-0.010505611923336981,-0.07589103422127663,-0.019107143791019916
1761315260136457200,3.329457275390625,-0.022378420546650884,-0.0716168275007978,-0.0038717999320477246
1761315260146439200,3.339439208984375,-0.020253098955750466,-0.06195561224604025,-0.008028992676734924
1761315260156421000,3.349421142578125,-0.040540684702992436,-0.037813707424513995,-0.0334506533768028
1761315260166402000,3.359402099609375,-0.05904898581802845,-0.05267766068782657,-0.03785341838039458
1761315260176384300,3.36938427734375,-0.0572691166639328,-0.06506550616119057,-0.05699760624617338
1761315260186366200,3.3793662109375,-0.040430794587731356,-0.0689960140105337,-0.07635974771156907
1761315260196347100,3.38934716796875,-0.008384966507554053,-0.07057707265689969,-0.0787429895862937
1761315260206329000,3.3993291015625,-0.023278584256768226,-0.0717146618520841,-0.050379503280669445
1761315260216311300,3.409311279296875,-0.08243746019005775,-0.05927479393053799,-0.03391958606280386
1761315260226292200,3.419292236328125,-0.13947744427323341,-0.048962001165561375,-0.03689231826327741
1761315260236274200,3.429274169921875,-0.12783201466500757,-0.04152443504333496,-0.003164674575999379
1761315260246256000,3.439256103515625,-0.07992460058629512,-0.04326685826387256,0.0395676018871367
1761315260256237000,3.449237060546875,-0.04874094229340553,-0.054047012812271714,0.06406155328303575
1761315260266219300,3.45921923828125,-0.0427425786614418,-0.05849675876274705,0.07748495234921574
1761315260276200000,3.469199951171875,-0.07966156573593616,-0.03209361274465918,0.05686820771284401
1761315260286182100,3.47918212890625,-0.11950374678075312,-0.012609634997881949,-0.007437237328663468
1761315260296164000,3.4891640625,-0.15010229866206645,-0.03703863139878958,-0.02618278126567602
1761315260306145300,3.499145263671875,-0.15981880603432655,-0.05894979975987225,-0.01994227944090962
1761315260316127000,3.509126953125,-0.17621406051814556,-0.06466865233071148,-0.03773994806855917
1761315260326109200,3.519109130859375,-0.15103402655422687,-0.04388009479139,-0.021729308988153933
1761315260336090000,3.529090087890625,-0.11291501604020594,-0.004090374586172401,0.00536722612157464
1761315260346072300,3.539072265625,-0.12907178559303284,0.012394129083678125,0.03907382702082395
1761315260356054000,3.549053955078125,-0.14521043496727942,0.01751570988111198,0.03183956491835415
1761315260366035200,3.55903515625,-0.11341595129966735,0.03517141275480389,0.01896656627655029
1761315260376017200,3.56901708984375,-0.06309153920710087,0.035624672947637735,0.002310688095167279
1761315260385999000,3.5789990234375,0.0031868133425712584,-0.020741466994583607,0.013810060296207665
1761315260395980000,3.58897998046875,0.049043140110373494,-0.06099204617720097,0.017571312525868413
1761315260405962200,3.598962158203125,0.07522972076833248,-0.05891385166365653,-0.013787337007746099
1761315260415944200,3.608944091796875,0.06001695406734943,-0.034904907305724917,-0.058203474904596805
1761315260425925400,3.61892529296875,-0.0005722469300031662,-0.011686930662393569,-0.10014211677201092
1761315260435907000,3.628906982421875,-0.047583004429936404,-0.016213906567543745,-0.11357311462275684
1761315260445889300,3.63888916015625,-0.07912029846608638,-0.025665954317338764,-0.10724763792827725
1761315260455870200,3.6488701171875,-0.10049684849381446,-0.019967523480020462,-0.07596205363087356
1761315260465852000,3.658851806640625,-0.13705693912804126,-0.009777626442350447,-0.06676109456531704
1761315260475834000,3.668834228515625,-0.16957096924185752,0.007609890481829642,-0.08280658576339482
1761315260485815000,3.67881494140625,-0.14297405421733855,0.03988510687109083,-0.08141958838440477
1761315260495797200,3.68879736328125,-0.0742968238323927,0.034511231813021,-0.07688567128181457
1761315260505779000,3.698779052734375,-0.004787818798422813,0.004299450759589672,-0.06756612733788787
1761315260515760000,3.708760009765625,0.03678513156175613,-0.02501914431378245,-0.05925970595926046
1761315260525742000,3.7187421875,0.03745148651599884,-0.03601144377551973,-0.055531406151130794
1761315260535724300,3.728724365234375,-0.0021036942809820173,-0.0417292369004339,-0.08613989490456879
1761315260545705000,3.738705078125,-0.0266302327722311,-0.02185085300859064,-0.10607048390768468
1761315260555687200,3.748687255859375,-0.07606032637357711,-0.045301871222816405,-0.10544716437757015
1761315260565669000,3.758669189453125,-0.13348024968504904,-0.08191175581552088,-0.08654898716211318
1761315260575650300,3.768650390625,-0.15042553926706312,-0.09161573249977081,-0.048942894606292246
1761315260585632000,3.778632080078125,-0.15341770682036876,-0.09181717335600405,-0.021387655943632126
1761315260595614200,3.7886142578125,-0.155811908480525,-0.09779274063427,-0.027865108329430222
1761315260605595100,3.79859521484375,-0.18439561340808866,-0.07398315477333962,-0.016046733307093382
1761315260615577300,3.808577392578125,-0.1643646327704191,-0.03973466554973274,-0.02967975653596222
1761315260625559000,3.81855908203125,-0.09000000439882277,-0.03509918776880949,-0.06276764101497828
1761315260635540200,3.828540283203125,-0.009204466196894644,-0.06569591301921755,-0.08292772792503238
1761315260645522200,3.838522216796875,0.060087681216001505,-0.10274762309528887,-0.06730616122744977
1761315260655504100,3.848504150390625,0.06812836433053017,-0.13561700598541646,-0.036742534529045225
1761315260665485000,3.858485107421875,0.046451954573392865,-0.15332396412231028,-0.0040931875977665184
1761315260675467300,3.86846728515625,0.011769932770729064,-0.1233434710741043,0.005472805387899279
1761315260685449200,3.87844921875,-0.019480945539474485,-0.09547036210130899,0.012769611332565545
1761315260695430100,3.88843017578125,-0.027671266257762908,-0.10264171503540127,0.02926832619085908
1761315260705412000,3.898412109375,-0.06102408528327941,-0.08116312940530479,0.06074307638481259
1761315260715394600,3.90839453125,-0.12704407915771007,-0.0514417622173205,0.07966646110676229
1761315260725375500,3.91837548828125,-0.2311725621521473,-0.04381842773202806,0.07607537781223654
1761315260735357400,3.928357421875,-0.32918460809290406,-0.02659432120863348,0.0968475322060287
1761315260745338400,3.93833837890625,-0.3270914352059364,0.000005772153660655021,0.1424923351150006
1761315260755320600,3.948320556640625,-0.2864472901284694,0.00959065250288695,0.12731814685873685
1761315260765302500,3.958302490234375,-0.26269816575050353,-0.020690138666145504,0.11360628623999655
1761315260775284500,3.968284423828125,-0.18717501499354838,-0.03638707215487957,0.10952215873152017
1761315260785265400,3.978265380859375,-0.13135668165981768,-0.030427104304544626,0.05342559297829866
1761315260795247600,3.98824755859375,-0.06045359191894531,-0.023927659282647073,0.002172813994437456
1761315260805229300,3.998229248046875,0.016481179201602934,-0.031204737613536416,-0.012565320932120084
1761315260815210500,4.00821044921875,0.0801911425679922,-0.05512735539488494,-0.0160785897500813
1761315260825192400,4.0181923828125,0.12443009726703166,-0.08158464275300502,-0.013364435420557855
1761315260835173600,4.028173583984375,0.1574246043741703,-0.07988090757504106,-0.006552636513859033
1761315260845155600,4.038155517578125,0.14557166949510572,-0.07754756925664842,-0.013141586450114845
1761315260855137500,4.048137451171875,0.12323533452451228,-0.06536405071634799,-0.021498276711255312
1761315260865118500,4.058118408203125,0.09731997202336788,-0.05150032400414347,-0.00239244809448719
1761315260875100700,4.0681005859375,0.07422258955240249,-0.05350249413941055,0.03480652496516704
1761315260885082400,4.078082275390625,0.0781868170082569,-0.06697386053316295,0.048042730896174904
1761315260895063300,4.088063232421875,0.08927695082128047,-0.0707378161765635,0.05531316029056906
1761315260905045500,4.09804541015625,0.08441665130853652,-0.06417202792018652,0.05807634139358997
1761315260915027700,4.10802783203125,0.0231663560539484,-0.0702653032939881,0.045121217426285144
1761315260925008600,4.118008544921875,-0.07319207746088505,-0.0774428667731583,0.03241539204493165
1761315260934990300,4.127990234375,-0.18386486753225326,-0.07937416362930089,0.007618292983993888
1761315260944972500,4.13797265625,-0.28598551783561704,-0.0634340690344572,0.000400543624907732
1761315260954953500,4.147953369140625,-0.344570977795124,-0.05553195414040237,0.06576477700434624
1761315260964935400,4.157935302734375,-0.35985914781987666,-0.04247095864582807,0.11589812350422143
1761315260974917400,4.16791748046875,-0.31485096231400966,-0.021874526145122943,0.17446823976412415
1761315260984898600,4.177898681640625,-0.2496148122936487,-0.0022987419290468095,0.2278365495972335
1761315260994880500,4.187880615234375,-0.16658113977611064,0.0052939416896551844,0.24507987227775155
1761315261004862500,4.197862548828125,-0.09698153384923934,0.010745704289525747,0.22348215378001332
1761315261014843400,4.207843505859375,-0.057441550621390336,-0.003751717216335237,0.1595848511479795
1761315261024825600,4.21782568359375,-0.007722118684649467,-0.046064928017184134,0.09020707127824425
1761315261034807600,4.2278076171875,0.01113572652041912,-0.10662676608357578,0.0340845673661679
1761315261044788500,4.23778857421875,-0.002206570133566856,-0.1494418254593387,-0.019404811563342807
1761315261054770400,4.2477705078125,-0.02246668335199356,-0.15118592918030918,-0.07205350188501179
1761315261064752600,4.257752685546875,-0.036598669078946114,-0.12839070799369365,-0.11035042624920606
1761315261074733600,4.267733642578125,-0.021074352210760115,-0.09366367800552397,-0.10495558146834373
1761315261084715500,4.277715576171875,0.0013853168785572052,-0.058660388359241186,-0.08108195392787457
1761315261094697500,4.287697509765625,0.014733458751440047,-0.02860047339927405,-0.07999320884309709
1761315261104678700,4.2976787109375,0.026868717703223226,-0.031067813360877335,-0.06156242994368076
1761315261114660600,4.30766064453125,0.047025370547175406,-0.04913823451530188,-0.052231049431487916
1761315261124642600,4.317642578125,0.007266776132583618,-0.0742840374160558,-0.06066774612627923
1761315261134623500,4.32762353515625,-0.08755261124670505,-0.0758847140783444,-0.0772328042190522
1761315261144605400,4.33760546875,-0.1747393117904663,-0.06724500562474131,-0.12141367205530404
1761315261154587400,4.34758740234375,-0.22880466397702692,-0.06008607378080487,-0.13595781877972185
1761315261164568300,4.357568359375,-0.2184054350376129,-0.05134889630209654,-0.12965133904665707
1761315261174550500,4.367550537109375,-0.18011048343479633,-0.038175380343757566,-0.10111359215267002
1761315261184532500,4.377532470703125,-0.14715806190371514,-0.03496310376636684,-0.08040573516674339
1761315261194513700,4.387513671875,-0.10606617305874824,-0.046970973478816444,-0.10717493801824748
1761315261204495400,4.397495361328125,-0.09080781365036963,-0.038392603291012344,-0.11592588829398155
1761315261214477600,4.4074775390625,-0.10282441465854644,-0.030899471056647598,-0.12467713083066045
1761315261224458500,4.41745849609375,-0.14936170942783356,-0.03654116673804819,-0.12472111610285937
1761315261234440400,4.4274404296875,-0.158374452444911,-0.02955262302495539,-0.14501359722092746
1761315261244422400,4.43742236328125,-0.1336748954743147,-0.00909424728807062,-0.16098251605145633
1761315261254403600,4.447403564453125,-0.08887830689251422,-0.009568586801551282,-0.16028540063276886
1761315261264385500,4.457385498046875,-0.031949966490268704,-0.014411898646876215,-0.11110957405343651
1761315261274367500,4.467367431640625,0.06111001000106334,-0.001657667546533048,-0.06436740436181426
1761315261284348400,4.477348388671875,0.1631236927986145,-0.0018413900829851626,-0.042663302880153055
1761315261294330600,4.48733056640625,0.2537561498820782,-0.02828636594880372,-0.0015105506934225557
1761315261304312600,4.4973125,0.2969488103985786,-0.06195183112006634,0.041144349684566255
1761315261314293500,4.50729345703125,0.26484043847620486,-0.08627667302675544,0.0738837860520929
1761315261324275500,4.517275390625,0.16905658997893333,-0.06575878565497696,0.0897092047587037
1761315261334256400,4.52725634765625,0.0587765986174345,-0.017608502731099724,0.08866634464226662
1761315261344238600,4.537238525390625,-0.06455576654076575,0.028670104569382963,0.08216288103237748
1761315261354220500,4.547220458984375,-0.14800737220942972,0.061872007349506014,0.10373203102275728
1761315261364201500,4.557201416015625,-0.18161854991018772,0.06734707775972783,0.14989786213114856
1761315261374183400,4.567183349609375,-0.19368892693221568,0.045753158654272555,0.20091975496858358
1761315261384165600,4.57716552734375,-0.22685411443114278,0.0129360539406538,0.23783874204307792
1761315261394146600,4.587146484375,-0.22706512683331964,0.0107521340303123,0.2540017221409827
1761315261404128500,4.59712841796875,-0.1897492493957281,0.008035970406793057,0.22746786241531372
1761315261414110500,4.6071103515625,-0.14947686024010182,-0.0016577771443873643,0.19009652846343814
1761315261424091600,4.617091552734375,-0.0898556274920702,-0.028895255094766616,0.18740641259662805
1761315261434073300,4.6270732421875,-0.052256256937980645,-0.0497297706676647,0.1737313037917018
1761315261444055600,4.6370556640625,-0.039077626413106914,-0.044539691211283206,0.11614143074080348
1761315261454036500,4.647036376953125,0.0027238720059394833,-0.02872307686563581,0.04661847024671733
1761315261464018700,4.657018798828125,0.02884849334359169,-0.04632843779157847,0.030319004287570714
1761315261474000400,4.66700048828125,-0.020873861202597616,-0.07620842960737645,0.008873992133513092
1761315261483981600,4.676981689453125,-0.08381810089349746,-0.09384436833467334,-0.016312471571192144
1761315261493963500,4.686963623046875,-0.12629881374835966,-0.0675244801532477,-0.004009674032777548
1761315261503945500,4.696945556640625,-0.12815993144512175,-0.012731763540208338,-0.007367460028082132
1761315261513926400,4.706926513671875,-0.0960685106575489,0.007769428425095975,0.006948357833176851
1761315261523908600,4.71690869140625,-0.07427402747869491,-0.02211341293491423,0.0356372767008841
1761315261533890600,4.726890625,-0.05670914469361305,-0.044659079807251686,0.032177126309648155
1761315261543871500,4.73687158203125,-0.06830196733176708,-0.059337045511789616,-0.014843202736228703
1761315261553853400,4.746853515625,-0.082034140086174,-0.05352485210169106,-0.07576572734117508
1761315261563835600,4.756835693359375,-0.0927741452872753,-0.04661364794112742,-0.14135865490995347
1761315261573816600,4.766816650390625,-0.08176175288558006,-0.0758138407992199,-0.1828261721342802
1761315261583798500,4.776798583984375,-0.04960018947124481,-0.08895140866134316,-0.15904424146525561
1761315261593780500,4.786780517578125,-0.01752455077469349,-0.09158928288426249,-0.11541421244479715
1761315261603761400,4.796761474609375,0.00628068770468235,-0.07353614165820181,-0.0992893724001944
1761315261613743600,4.80674365234375,0.045885552862286565,-0.061593921060487625,-0.09710925188213586
1761315261623725300,4.816725341796875,0.05135609322786331,-0.07415810948144644,-0.03412628761604428
1761315261633706500,4.82670654296875,0.03971943144798278,-0.07735460396781563,0.01875511548295617
1761315261643688400,4.8366884765625,0.004319032242894172,-0.055344541809521614,0.01813530308417976
1761315261653670700,4.846670654296875,-0.03310205913484096,-0.025503055373206733,-0.010309577894583343
1761315261663651600,4.856651611328125,-0.06522738219201564,-0.01704633880369365,-0.005965922667086124
1761315261673633500,4.866633544921875,-0.05537701930701732,-0.022467194808647034,0.00046929801218211647
1761315261683615500,4.876615478515625,-0.04717325458526611,-0.019826032650098205,0.006115121879428625
1761315261693596700,4.8865966796875,-0.07469546776115894,-0.019576807129383086,0.008978767682239413
1761315261703578400,4.896578369140625,-0.15568740531802178,-0.0035380744656547903,0.020593071499839424
1761315261713559800,4.906559814453125,-0.187330497816205,0.03082826898396015,-0.022256986124068498
1761315261723540700,4.916540771484375,-0.1640349624246359,0.022997429227828978,-0.011072817352041601
1761315261733523000,4.92652294921875,-0.13116262039244175,0.010267382720671594,0.04099726936407387
1761315261743505000,4.9365048828125,-0.08407178339362144,-0.0043015331188216805,0.04151296380124986
1761315261753485800,4.94648583984375,-0.047342181411385534,-0.0020180252915248274,0.01896466658040881
1761315261763467800,4.9564677734375,-0.0811065038472414,-0.00401387528385967,-0.0003409954573959112
1761315261773450000,4.966449951171875,-0.14572013805508613,-0.008347155247814953,-0.0071396426215767856
1761315261783431000,4.976430908203125,-0.1501911459892988,0.004123874996975064,-0.04682100708149373
1761315261793412900,4.986412841796875,-0.0805097069978714,0.014052454217337071,-0.07995579944215714
1761315261803394800,4.996394775390625,-0.022551439025998113,-0.011429704498313367,-0.0622648060593754
1761315261813376000,5.0063759765625,-0.0025736498802900313,-0.03978825890049338,-0.04942402918674051
1761315261823357700,5.016357666015625,0.02570610366463661,-0.03376213047876954,-0.058767611593380564
1761315261833340000,5.02633984375,0.020403321081399917,-0.011652736131846904,-0.06297017784975469
1761315261843320800,5.03632080078125,-0.033031331986188885,0.009357903192937373,-0.05402881956845522
1761315261853303000,5.046302978515625,-0.10900982529520988,0.010423669260926544,-0.03780073834508657
1761315261863284700,5.05628466796875,-0.11943886485099792,0.01902271691057831,-0.021990371077135203
1761315261873266000,5.066265869140625,-0.06140986973047256,0.03049019613601267,-0.019335984110832212
1761315261883247900,5.076247802734375,0.028248773884773253,0.019214074764214453,-0.020503493520244956
1761315261893230000,5.08622998046875,0.12924889572560785,-0.0181578802421689,-0.01111168805770576
1761315261903210800,5.096210693359375,0.18341244758963585,-0.020172836793772873,-0.02670117911659181
1761315261913193000,5.10619287109375,0.19062544770836828,-0.0180943865519017,-0.026139965037256477
1761315261923175000,5.1161748046875,0.16275193687677383,-0.011353351326473056,-0.032928236937895414
1761315261933155800,5.12615576171875,0.13743161765933035,-0.02648852274660021,-0.036755247880145905
1761315261943137800,5.1361376953125,0.09471300439536572,-0.05436301995888352,-0.026553441208973527
1761315261953118700,5.14611865234375,0.015407412490248679,-0.07737842323482036,-0.006970788860693573
1761315261963101000,5.156100830078125,-0.07661211503744125,-0.0711935240548104,0.0023063772462308405
1761315261973083000,5.166082763671875,-0.2093687266230583,-0.03849365251269191,0.005660071588307619
1761315261983064000,5.17606396484375,-0.32412557113766666,0.010468019859306513,0.026639438991993666
1761315261993045800,5.186045654296875,-0.34611177749633787,0.06252316473461687,0.08345818153992295
1761315262003028000,5.196028076171875,-0.2763426602214575,0.08067096197418869,0.13030549210645256
1761315262013009000,5.2060087890625,-0.14547756147086618,0.05541662066504359,0.16764789222478865
1761315262022990800,5.215990966796875,0.0035807810962200162,0.01702109476458281,0.1757099834535271
1761315262032972800,5.225972900390625,0.1120540152966976,-0.043778935971856114,0.1546548473998904
1761315262042954000,5.2359541015625,0.13111527411937712,-0.078428407211788,0.1046056720521301
1761315262052936000,5.24593603515625,0.09674772509336471,-0.08508249480612576,0.03592814940623939
1761315262062918000,5.25591796875,0.039653380474448205,-0.06843081787582486,-0.02587926827445626
1761315262072898800,5.26589892578125,-0.019335399588942526,-0.07133749910276382,-0.050703328407555814
1761315262082881000,5.275881103515625,-0.08678221139609814,-0.08529438399113715,-0.046192499919608235
1761315262092862700,5.28586279296875,-0.10590075336396694,-0.06564440202768891,-0.03204137110076845
1761315262102844000,5.295843994140625,-0.07983166160583495,-0.04594502796456217,-0.014867971851304172
1761315262112825900,5.305825927734375,-0.07166530628502368,-0.04734912260882556,0.03200155054703355
1761315262122808000,5.31580810546875,-0.10676759932637214,-0.06072740389164537,0.09612586686797439
1761315262132789000,5.3257890625,-0.1405932965606451,-0.07216744712088256,0.10489647169224917
1761315262142771000,5.33577099609375,-0.17108663450181483,-0.07247516136318445,0.08742394336573779
1761315262152753000,5.3457529296875,-0.16119243247509002,-0.09485288779009134,0.07003748588748276
1761315262162733800,5.35573388671875,-0.12658756756186484,-0.13278678752817213,0.07580211382880807
1761315262172715800,5.3657158203125,-0.12680851683616637,-0.1423952314160764,0.04942008366398513
1761315262182697700,5.37569775390625,-0.11777180842161178,-0.13159165945947168,0.013249722999706864
1761315262192679000,5.385678955078125,-0.1525309871137142,-0.12121829561367631,-0.010814750937744975
1761315262202660900,5.395660888671875,-0.23809447036981582,-0.11203063442111015,-0.051588221483305094
1761315262212642800,5.405642822265625,-0.3216255710154772,-0.09504388031754642,-0.0764949914637953
1761315262222623700,5.415623779296875,-0.3338070071965456,-0.055418337698094546,-0.07933934804424643
1761315262232606000,5.42560595703125,-0.2821183210134506,-0.058236244663037354,-0.0350371188506484
1761315262242588000,5.435587890625,-0.2264794358998537,-0.06302019100394099,0.021487170795351264
1761315262252569000,5.445569091796875,-0.15359715504050253,-0.05892272908985614,0.024753990571573375
1761315262262550800,5.45555078125,-0.12295885567069052,-0.058303537745587525,-0.00966828431636095
1761315262272533000,5.465532958984375,-0.09137655344903468,-0.05418006460741162,-0.047220673923566936
1761315262282514000,5.475513916015625,-0.0678086308568716,-0.03676712098103017,-0.0677309625107795
1761315262292496000,5.485495849609375,-0.024808278042078018,-0.0372493515400216,-0.07716375757083296
1761315262302477800,5.495477783203125,0.04338496821820736,-0.05257288513910025,-0.09117650083228945
1761315262312459000,5.505458984375,0.08342822479307652,-0.07544679758511483,-0.10039017324894665
1761315262322441000,5.51544091796875,0.08872574667930602,-0.09458883002642542,-0.1189404868748039
1761315262332423000,5.5254228515625,0.05950549741387367,-0.09474230355508625,-0.16432137815058231
1761315262342403800,5.53540380859375,0.03597439970076084,-0.07817775691896676,-0.18909553472734986
1761315262352386000,5.545385986328125,0.03763502638936043,-0.0631444384381175,-0.19086955866254865
1761315262362367700,5.55536767578125,0.05866378589272499,-0.04593753877785057,-0.13529160995595158
1761315262372348700,5.5653486328125,0.07321838094592094,-0.038418724112957714,-0.10173837298750876
1761315262382331000,5.575330810546875,0.07408230429887772,-0.029229857343994078,-0.07260112583041191
1761315262392313000,5.58531298828125,0.037703999972343444,-0.030063568221777675,-0.060102367328479886
1761315262402294000,5.5952939453125,-0.026737784799933433,-0.04487706993948668,-0.038943186378479
1761315262412275700,5.605275634765625,-0.0749544109582901,-0.04026533836033195,-0.009805500829964876
1761315262422258000,5.6152578125,-0.05769815573096275,-0.025001462526619434,-0.01147577212974429
1761315262432238800,5.62523876953125,-0.013618190985918044,-0.024618564156256614,0.017367898908257483
1761315262442220800,5.635220703125,0.008855506628751755,-0.027786380537413058,0.03904993468858301
1761315262452202800,5.64520263671875,-0.016979776373505593,-0.037778855306841434,0.04902911158502102
1761315262462184000,5.655183837890625,-0.07208499300181866,-0.06117028882093727,0.03568973754048347
1761315262472166000,5.665165771484375,-0.1666232253521681,-0.06275390475057065,0.01699395102933049
1761315262482147800,5.67514794921875,-0.24129589675962923,-0.04140961302462965,0.029970410045608877
1761315262492128800,5.685128662109375,-0.2550911978781223,-0.03113517950866371,0.05598360689803958
1761315262502111000,5.695111083984375,-0.23750994848012924,-0.02530238170195371,0.08429412090741098
1761315262512093000,5.705093017578125,-0.20322949321568012,-0.033507936521992084,0.1258427405439317
1761315262522074000,5.71507421875,-0.12666998514831065,-0.010173347761668264,0.15946582787819205
1761315262532055800,5.725055908203125,-0.009403203639388083,0.012279928119480608,0.18100027188137172
1761315262542038000,5.7350380859375,0.08039572522938251,0.02575078305657953,0.1822341975905001
1761315262552019000,5.74501904296875,0.09970365228950977,-0.016752032032236457,0.1805640724211931
1761315262562001000,5.7550009765625,0.05565291363894939,-0.06917801951393485,0.1487565831415355
1761315262571982800,5.76498291015625,-0.0730547148168087,-0.07807933804579079,0.10537855612076819
1761315262581963800,5.7749638671875,-0.19793957011401653,-0.039903044386580586,0.08269866840951144
1761315262591946000,5.784946044921875,-0.272298353266716,0.009680632341280578,0.024974355323985217
1761315262601928000,5.794927978515625,-0.24440146155953407,0.023432898035645484,0.017933350771293044
1761315262611908900,5.804908935546875,-0.174926358795166,0.0012190934661775827,0.06635697074383497
1761315262621890800,5.814890869140625,-0.08757774568796158,-0.02118146584704518,0.07609934320971369
1761315262631872800,5.824872802734375,-0.0058043023645877835,-0.04114847787041217,0.07396978383511305
1761315262641853700,5.834853759765625,0.006560089167952537,-0.06495357021931558,0.046303924404829735
1761315262651836000,5.8448359375,-0.022944822257757187,-0.06609430121965706,0.03881079217046499
1761315262661817900,5.85481787109375,-0.08992869272828101,-0.06573960603047162,0.005196034273132682
1761315262671799000,5.864799072265625,-0.1476648423820734,-0.05593732007090002,-0.034125703094154594
1761315262681780700,5.87478076171875,-0.14298574465513228,-0.059318486941792065,-0.07818046033270656
1761315262691762000,5.884761962890625,-0.11782383086979388,-0.06431329955440014,-0.06896174641475081
1761315262701743900,5.894743896484375,-0.11130699632167816,-0.0907406666982919,-0.05734926922805607
1761315262711726000,5.90472607421875,-0.06482347756624221,-0.10741334988400339,-0.0659804655816406
1761315262721707300,5.914707275390625,-0.0313403101593256,-0.10849847823958843,-0.0868724469628185
1761315262731689200,5.924689208984375,-0.0223299052298069,-0.11531170191839336,-0.09213102507814765
1761315262741671400,5.93467138671875,-0.008831541231274604,-0.09426478570383041,-0.09433058094903826
1761315262751652400,5.94465234375,0.018199089035391806,-0.0921044293321669,-0.12157770351059734
1761315262761634300,5.95463427734375,0.032985739278793336,-0.12111808664221316,-0.11915975564867258
1761315262771616300,5.9646162109375,0.0006762918263673782,-0.13508348363060504,-0.08383877835534513
1761315262781597400,5.974597412109375,-0.042592356535792346,-0.10236852411720901,-0.06255714006945491
1761315262791579100,5.9845791015625,-0.13473521818220616,-0.06662161302939057,-0.07803703327402473
1761315262801561300,5.994561279296875,-0.19426877264678477,-0.043930948195792734,-0.08109868586696684
1761315262811542300,6.004542236328125,-0.1923714145928621,-0.0319951938714832,-0.06674786975756287
1761315262821524500,6.0145244140625,-0.1741641422510147,-0.05452043901029974,-0.06141038118712604
1761315262831506200,6.024506103515625,-0.1555208165794611,-0.0711523517942056,-0.032809140602871774
1761315262841487400,6.0344873046875,-0.11715747591555117,-0.056632681923918425,-0.0027482027295976878
1761315262851469300,6.04446923828125,-0.09514613511562346,-0.039271395419538016,-0.012098141811788081
1761315262861451300,6.054451171875,-0.10725801319181918,-0.035612726781517265,0.009193725607171655
1761315262871432200,6.06443212890625,-0.09992869321703911,-0.03216433989331126,0.04534888870231807
1761315262881414400,6.074414306640625,-0.06947276467680931,-0.031489692034758626,0.0498701655190438
1761315262891396400,6.084396240234375,-0.019571546432375908,-0.05372052080426365,0.023578151725232598
1761315262901377300,6.094377197265625,0.04443418501019478,-0.06542173572033644,0.020727000077813862
1761315262911359200,6.104359130859375,0.09606091187298298,-0.0722676195597276,0.023425226185843348
1761315262921341400,6.114341552734375,0.06204349145889282,-0.061904740575328465,0.004150397677719593
1761315262931322400,6.124322265625,0.0011468319475650788,-0.021299977660179138,0.01164623332582414
1761315262941304300,6.13430419921875,-0.0607458528637886,0.005968589548207819,0.03499539860077202
1761315262951286300,6.144286376953125,-0.10709376254081726,-0.003684899057820439,0.04134272180087864
1761315262961267200,6.15426708984375,-0.1472901638507843,-0.017266374762542544,0.05764437971711158
1761315262971249400,6.16424951171875,-0.15713643508255482,0.01029989675078541,0.05959441780634224
1761315262981231000,6.174231201171875,-0.12066694534122943,0.046842086402140555,0.05612316149920225
1761315262991212300,6.18421240234375,-0.06411854416728019,0.059473823633976276,0.009809007961302995
1761315263001194200,6.1941943359375,-0.052395373147726056,0.0204437261570245,-0.01065283837430179
1761315263011176400,6.204176513671875,-0.05145604647099972,0.006492028900422156,-0.02368044305592775
1761315263021157400,6.214157470703125,-0.07120470303595065,-0.013712956597283481,-0.01952631905116141
1761315263031139300,6.224139404296875,-0.09286007000505923,-0.015277502500265836,-0.01603423915170133
1761315263041121300,6.234121337890625,-0.10936053842902183,-0.009579363923892378,-0.02415361352562904
1761315263051102500,6.2441025390625,-0.0893500160574913,0.008831760426983236,-0.00820807557068765
1761315263061084200,6.254084228515625,-0.04969605106115341,0.030192930222488937,-0.018017960314825176
1761315263071066400,6.26406640625,-0.017537410256266595,0.04446732009481638,-0.037328736919164655
1761315263081047300,6.27404736328125,0.011723171019554137,0.024048180389776824,-0.03843713655248284
1761315263091029500,6.284029541015625,0.03475391799509525,-0.01525065102595836,-0.04741802312657237
1761315263101011200,6.29401123046875,-0.005693827727437019,-0.035937428691238164,-0.07298698334284126
1761315263110992100,6.3039921875,-0.019178747722506523,-0.021587818158231676,-0.09726736505329608
1761315263120974300,6.313974365234375,-0.03785129948854446,-0.006761201230622828,-0.12008980304040014
1761315263130956300,6.323956298828125,-0.029218495699763296,0.0025635303450748325,-0.11490334031321107
1761315263140937200,6.333937255859375,0.013398410755395888,0.0004154854657128453,-0.06746215550675988
1761315263150919200,6.343919189453125,0.043109658408164976,0.013629589162766933,-0.03404445455148816
1761315263160901400,6.3539013671875,0.05759352631270885,-0.024333536669798195,-0.0033929303739219903
1761315263170882300,6.36388232421875,0.10654781909584998,-0.035083515275642276,0.01873378043398261
1761315263180864300,6.3738642578125,0.11687164471149444,-0.03620886604376137,0.020673077933490276
1761315263190846200,6.38384619140625,0.06681903529763221,-0.050336212128214534,0.014444120416045187
1761315263200827400,6.393827392578125,-0.02368131983876228,-0.05243376892935484,0.005021627554297447
1761315263210809300,6.403809326171875,-0.14245382973551748,-0.03572316488604992,0.011886033431068062
1761315263220791300,6.413791259765625,-0.21531565232872962,-0.0006417685022577643,-0.005701864903420209
1761315263230772200,6.423772216796875,-0.238334708866477,0.014729001772031187,0.007889438075572252
1761315263240754400,6.43375439453125,-0.23705694401562213,0.0021609043609350917,0.04549801484942436
1761315263250736000,6.443736083984375,-0.20782968048751352,-0.03761610249318182,0.09238098125122488
1761315263260717300,6.45371728515625,-0.18861352336406706,-0.04808755641859024,0.13090024312920867
1761315263270699300,6.46369921875,-0.1455038649559021,-0.023717048739269376,0.13073409278206527
1761315263280681500,6.473681396484375,-0.0741524469256401,-0.022411446033418176,0.1371017281178385
1761315263290662400,6.483662353515625,-0.022301848179101944,-0.040980902751162646,0.10939992059133946
1761315263300644400,6.493644287109375,0.014902970099449157,-0.07526618032120168,0.05134871363900602
1761315263310626300,6.503626220703125,0.04346855484843254,-0.09227828806173057,-0.004888941085338592
1761315263320607500,6.513607421875,0.030220950740575788,-0.10767908814810216,-0.04214154402837157
1761315263330589200,6.523589111328125,0.016229834789037705,-0.13029701653905212,-0.07889270025528967
1761315263340571400,6.5335712890625,-0.002737316009402275,-0.14575433258563278,-0.08864698235467076
1761315263350552300,6.54355224609375,-0.01453296774327755,-0.12326357423830776,-0.07767316839769482
1761315263360534300,6.5535341796875,0.0007423427999019623,-0.12301760012060403,-0.06642981678433715
1761315263370516200,6.56351611328125,-0.00808452225625515,-0.12820585294608025,-0.010614259929582476
1761315263380497200,6.5734970703125,-0.0030050270348787305,-0.10859119802433997,0.01935892659500241
1761315263390479400,6.583479248046875,0.0007119476616382598,-0.078105057008937,0.036252705185487864
1761315263400461300,6.59346142578125,-0.023496610921621322,-0.07994783533141016,0.013682780654728412
1761315263410442200,6.603442138671875,-0.1018809963285923,-0.09979195162747055,-0.015498305644094943
1761315263420424200,6.613424072265625,-0.19793489393889901,-0.104219558811374,-0.04357398798428476
1761315263430406400,6.623406494140625,-0.30309505806863307,-0.11736530997995287,-0.06694141956828534
1761315263440387300,6.63338720703125,-0.32202187685668465,-0.08376509206462651,-0.06765424401275813
1761315263450369300,6.643369384765625,-0.35122283689975736,0.012624065382033586,0.01826291151922196
1761315263460351200,6.653351318359375,-0.05945230592191219,-0.006904774419777095,0.21742489956766364
1761315263470332400,6.66333251953125,0.021992051577568054,-0.022754304654337466,0.348786330467835
1761315263480314400,6.673314453125,-0.004440612795948982,0.042062268247082826,0.1434792272605002
1761315263490296300,6.68329638671875,-0.00948445218205452,0.07019446654748171,0.03164316556341946
1761315263500277200,6.69327734375,0.010804887130856514,-0.01918568891994655,-0.06544518966116011
1761315263510259500,6.703259521484375,0.07439385446608066,-0.08471899525597691,-0.12092004331946372
1761315263520241200,6.7132412109375,0.06813304050564765,-0.09756817463077604,-0.14904804036878047
1761315263530222300,6.723222412109375,0.03340308790802955,-0.0991449589608237,-0.12298070217631757
1761315263540204300,6.733204345703125,-0.0343465062379837,-0.09954173972606659,-0.03162931970115751
1761315263550186500,6.7431865234375,-0.09643091422915458,-0.03503938387297094,0.030745522603951393
1761315263560167400,6.75316748046875,-0.14827742132246494,0.055636145167239005,0.054543344961851835
1761315263570149400,6.7631494140625,-0.13264730599224567,0.11807919387035071,0.11020886235404759
