time,seconds_elapsed,z,y,x
1761316097906073300,0.0680732421875,-24.63044310235977,-1.6666329432770608,-2.7444109360992908
1761316097916055600,0.0780556640625,-21.951822443032263,-1.8271964301988481,-2.8439465383455156
1761316097926038500,0.08803857421875,-17.62167259379625,-2.2584803535461426,-1.9496974590994416
1761316097936020500,0.0980205078125,-12.992348074805737,-2.8330495890170333,-0.48617293994165955
1761316097946003500,0.10800341796875,-8.806679177218674,-3.0459789307311174,0.8545672033295035
1761316097955985400,0.1179853515625,-5.204249728292226,-2.8525489469960332,1.537723654769361
1761316097965968400,0.127968505859375,-2.3271967468976973,-2.352677225112915,1.6484676103807985
1761316097975951400,0.137951416015625,-0.09451543599665164,-1.7331255230993032,1.497348097500205
1761316097985933300,0.147933349609375,1.8140490715950726,-1.2424451156705618,1.4966371727518737
1761316097995916300,0.157916259765625,3.060748922100663,-0.754551708611846,1.724973050173372
1761316098005898500,0.1678984375,3.9192432357460256,-0.07180617606043815,1.7097282808989285
1761316098015881200,0.177881103515625,4.68711386013627,0.6638166679367423,1.4195415119811892
1761316098025864400,0.187864501953125,5.32759378388822,1.160936460763216,1.045247157704085
1761316098035846400,0.197846435546875,5.896040152564645,1.476032630009949,0.6419436396289616
1761316098045829400,0.207829345703125,6.556724075433611,1.872305737991631,0.2795874873615801
1761316098055811300,0.217811279296875,7.202207506561279,2.162080126716196,0.14613266437873243
1761316098065794600,0.227794677734375,7.473733121889829,2.1536909224249423,0.2599989897944033
1761316098075776300,0.2377763671875,7.2677943697154515,2.0474014620043337,0.4413926449075341
1761316098085759500,0.247759521484375,6.903751214209199,1.9630916320711373,0.5995426409468054
1761316098095741200,0.2577412109375,6.837616654044389,1.918164110586047,0.8255489063769579
1761316098105724400,0.267724365234375,6.864200709587335,1.9086200371712445,1.1239324988190085
1761316098115707400,0.277707275390625,6.878539031541347,1.735151183708012,1.4174096145190298
1761316098125689600,0.287689697265625,6.940925637349486,1.4724144395127892,1.7318052342809735
1761316098135672300,0.29767236328125,7.067260691455006,1.3601625635564327,1.9165178046837448
1761316098145654500,0.307654541015625,7.350797647094726,1.4682223946504294,1.8729986886918544
1761316098155637500,0.317637451171875,7.947409203025698,1.5979840622037649,1.700624644728005
1761316098165619500,0.327619384765625,8.657346109363436,1.792197159140557,1.5403842522807418
1761316098175602400,0.3376025390625,9.332663537740707,1.859990738558769,1.3928392368860543
1761316098185585400,0.34758544921875,9.775660987496375,1.7697665700152516,1.2963926866963504
1761316098195567400,0.3575673828125,9.883819748920201,1.5372995841383934,1.2953858477413653
1761316098205550300,0.36755029296875,9.805982476001978,1.2682587713629005,1.2963624376885592
1761316098215532300,0.3775322265625,9.556528991749882,1.3909031542569399,1.412754189928621
1761316098225515300,0.387515380859375,9.387407519841194,1.8132666890457272,1.6165588526837527
1761316098235497500,0.39749755859375,9.296994842988251,2.068910552370548,1.658838636139035
1761316098245480200,0.407480224609375,8.887576422229408,2.258763262140751,1.803092647164315
1761316098255463400,0.41746337890625,8.470463939836621,2.702602131156623,2.538475106534362
1761316098265445400,0.4274453125,7.22656219561696,3.0173361890926955,2.6925118220359083
1761316098275428400,0.437428466796875,6.326462782907486,2.9298318009018898,1.976004743527621
1761316098285410300,0.447410400390625,5.697777926367521,2.7668028006494043,0.5585246941208839
1761316098295393500,0.4573935546875,4.793682722020149,2.668868496119976,-0.6359979560323059
1761316098305375200,0.467375244140625,3.58584714743793,2.349883210480213,-0.7406355575926602
1761316098315358500,0.4773583984375,1.8924989234536884,1.4513064772933721,-0.032196050205826755
1761316098325341400,0.487341552734375,0.3827145382285118,-0.17753186511844396,1.083084720928222
1761316098335323400,0.497323486328125,-1.4585329214155673,-2.000015879842639,1.9470966289512812
1761316098345306400,0.507306396484375,-3.4299148274481293,-4.261468819458782,2.772083371400833
1761316098355288600,0.51728857421875,-4.327111504453421,-7.469285494831204,3.136840812656283
1761316098365271300,0.527271240234375,-4.879891517442465,-9.947803853052854,2.6321552607506513
1761316098375253500,0.53725341796875,-6.685031890916824,-10.441994898951053,1.1761116719327867
1761316098385236500,0.547236572265625,-12.34956455028653,-8.970428892961143,-2.3604611569873986
1761316098395219200,0.55721923828125,-22.772435062050818,-6.287753405284882,-7.331855630737543
1761316098405201400,0.567201416015625,-35.01970945068597,-4.321543348932266,-11.560863319313526
1761316098415184400,0.577184326171875,-42.012964410209655,-2.5345243230819703,-13.111970479530095
1761316098425166300,0.587166259765625,-38.9003339097023,-0.377820336446166,-11.687959420919418
1761316098435149300,0.5971494140625,-29.92286561962366,-0.2530520932659507,-8.895021477538346
1761316098445131300,0.60713134765625,-20.473798054683208,-1.6980609317198394,-5.937707795470953
1761316098455114200,0.6171142578125,-12.65421268301606,-2.5766373716682196,-3.7648467470213767
1761316098465096400,0.627096435546875,-6.867170665308833,-3.370627064438164,-2.2598680085122584
1761316098475079400,0.637079345703125,-3.1385388487458226,-3.7466105408459898,-1.2368135395243762
1761316098485062400,0.6470625,-0.8647504514306783,-3.285836611381173,-0.5850811310045421
1761316098495044400,0.65704443359375,0.3289391088992357,-2.5681407614797354,-0.0964559756051749
1761316098505027300,0.66702734375,0.6503834781289101,-1.7494525346525012,0.40152817896567283
1761316098515009300,0.67700927734375,0.4722130228459835,-1.0587369000047444,0.7163825022805482
1761316098524992500,0.686992431640625,0.32754385514855383,-0.4577233097225427,0.7059123269967734
1761316098534974500,0.696974365234375,0.997662545838952,0.16151581921055913,0.46462819374017417
1761316098544957400,0.70695751953125,2.1202795050799845,0.5621197960034012,0.33177959302216764
1761316098554940400,0.7169404296875,3.404032782694697,0.6818513601906597,0.5722865313611925
1761316098564922600,0.726922607421875,4.711166935896873,0.679528031809628,0.8743718278653919
1761316098574905300,0.7369052734375,5.944884555232525,0.7643716763585805,1.3348030813723801
1761316098584887600,0.746887451171875,7.215305473065376,0.9719942899666726,1.8911629986748097
1761316098594870500,0.75687060546875,8.446601418212056,1.276391516675055,2.4062210376434026
1761316098604852500,0.7668525390625,9.534124267718195,1.5182038385242222,2.827991721105575
1761316098614835500,0.77683544921875,10.399821644610165,1.7381550416991114,3.172811705225706
1761316098624818700,0.786818603515625,10.986233878087997,2.119388693720102,3.3564293199986217
1761316098634800400,0.79680029296875,11.463124245095253,2.359853400352597,3.4521251979514953
1761316098644783600,0.80678369140625,11.893893496918677,2.420940029478073,3.418169444596767
1761316098654765600,0.816765625,12.11464870995283,2.5332684778019785,3.5216529076859353
1761316098664748500,0.82674853515625,11.900208671414852,2.8047026154547927,3.8253181668579574
1761316098674730500,0.83673046875,11.613645645952223,3.016790537908673,4.0981913974031805
1761316098684713700,0.846713623046875,11.27673891917467,3.1315690097332,4.065898316563666
1761316098694695400,0.8566953125,10.881378834384678,3.223452051399648,3.8086110699459907
1761316098704678700,0.8666787109375,10.723184999203681,3.20365108012557,3.503937802775204
1761316098714661600,0.87666162109375,10.69351583712697,3.106445674392581,3.5918408348947763
1761316098724643600,0.8866435546875,10.567855321282147,3.1849665456607936,4.0836914551466705
1761316098734626600,0.89662646484375,10.533542717313766,3.3777582314923404,4.555924643997848
1761316098744608500,0.9066083984375,10.717580603325366,3.37509164263159,4.649833930794895
1761316098754591500,0.916591552734375,10.417817904549837,3.145315503273904,4.713938446436822
1761316098764573700,0.92657373046875,9.905450565969943,2.8795547350823876,4.64924473273009
1761316098774556400,0.936556396484375,9.52547977349162,2.7032182172283528,4.600661903607845
1761316098784539400,0.946539306640625,8.75515591073036,2.739651466612518,4.390350343176722
1761316098794521600,0.956521484375,7.053851759305596,2.6801512298956514,3.63618324996829
1761316098804504300,0.96650439453125,4.897531803551316,2.151717430394888,2.6235218724399805
1761316098814486500,0.976486572265625,3.8381367318987842,0.8466013390168547,2.124052301616967
1761316098824469500,0.986469482421875,2.0854297254949805,-0.9503817392259836,1.6235501728758215
1761316098834451500,0.996451416015625,-1.8690087422728539,-2.7828897198364135,0.1639075366526842
1761316098844434400,1.006434326171875,-7.2043293210208414,-4.418559954094887,-1.1217089044854045
1761316098854417700,1.016417724609375,-12.392287255203723,-5.82476764498949,-2.2735957973524927
1761316098864399400,1.0263994140625,-15.811955413925647,-6.71773238351345,-3.2641996568515896
1761316098874382600,1.036382568359375,-18.19222207223177,-6.634656625419855,-4.786821019557118
1761316098884364500,1.046364501953125,-21.960861489534377,-6.334179640895128,-6.956856196931004
1761316098894347500,1.056347412109375,-26.75932793869972,-5.3953334411621094,-9.811263046753407
1761316098904329500,1.06632958984375,-30.286550463211533,-3.803085000000894,-12.910500981724262
1761316098914312700,1.076312744140625,-32.15533007290363,-2.6297353401273487,-15.055744247668981
1761316098924294400,1.08629443359375,-31.303069100689886,-1.5981906906917691,-15.362383261954783
1761316098934277600,1.096277587890625,-26.90187412289381,-0.9353478362232446,-13.66348091097474
1761316098944260600,1.106260498046875,-20.117658219647407,-1.2330197001993655,-10.752547871810197
1761316098954242600,1.11624267578125,-13.067305992895363,-1.8094760645911097,-7.551416081029176
1761316098964225500,1.1262255859375,-7.270562080863118,-2.3565511439368128,-4.926797645524144
1761316098974207500,1.13620751953125,-3.220589355444908,-2.943662465594709,-3.09997560159564
1761316098984190500,1.1461904296875,-0.7233844169318675,-3.246461171065271,-1.9640838579788802
1761316098994172700,1.156172607421875,0.653294981661439,-2.945388850995898,-1.42213211299628
1761316099004155400,1.1661552734375,1.3767103782534598,-2.310571483050287,-1.2590844080433248
1761316099014137600,1.1761376953125,1.4625702141076327,-1.6155197188943624,-0.9251919145204126
1761316099024120600,1.18612060546875,1.0904571493923663,-0.7500850845918059,-0.5558084208995103
1761316099034103300,1.196103271484375,1.0765788461655377,0.1948300597913563,-0.46084231852591034
1761316099044085500,1.20608544921875,1.6479700361222027,0.8299073938474059,-0.46294630506783724
1761316099054068500,1.216068359375,2.636284907901287,1.122702007175982,-0.5077725581355392
1761316099064050400,1.226050537109375,4.137333613485097,1.2898039559558032,-0.46713528119027614
1761316099074033400,1.236033447265625,6.177576289775967,1.497364464113116,0.0016300854198634624
1761316099084015600,1.246015625,8.399758418494462,1.5792583189457654,0.7596233127877116
1761316099093998300,1.255998291015625,10.356626646006108,1.792541004142165,1.6147446428686378
1761316099103980500,1.26598046875,11.868048277044295,2.2978590087324378,2.526126204831898
1761316099113963500,1.275963623046875,12.822537451589106,2.875255284322798,3.390929847754538
1761316099123946500,1.285946533203125,13.148695989859103,3.27177038436681,4.05526966278255
1761316099133928400,1.295928466796875,13.149081774306296,3.5779657465383408,4.375112734295428
1761316099143911700,1.30591162109375,13.1331102981925,3.7508930404707788,4.516351927544176
1761316099153893400,1.315893310546875,13.201758887004852,3.7272596514269707,4.58941599471122
1761316099163876600,1.325876708984375,13.238878365087508,3.6654525990724562,4.458689427648484
1761316099173858300,1.3358583984375,13.317646196854113,3.6255914210662246,4.168680061124265
1761316099183841500,1.345841552734375,13.318200323605536,3.613234336057305,3.896806655271351
1761316099193823500,1.355823486328125,13.17352414164543,3.5033865986332295,3.755027363796532
1761316099203806500,1.365806396484375,12.988077557879686,3.3684798232764,3.608357377670705
1761316099213789400,1.37578955078125,12.696194214177131,3.2877082504719493,3.5529546394005416
1761316099223771600,1.385771728515625,12.204648714351654,3.3147187147334214,3.8291473697572944
1761316099233754400,1.39575439453125,11.44656590900421,3.4480846903890368,4.272336542692781
1761316099243736600,1.405736572265625,10.53079546443224,3.4306720755562186,4.6599902908891435
1761316099253719600,1.415719482421875,9.778258602774143,3.0665009097561238,4.765182019200921
1761316099263701500,1.425701416015625,8.92643777554333,2.616795486794412,4.538846960207819
1761316099273684500,1.4356845703125,7.770516512593627,2.224341937100887,3.8099505018562074
1761316099283667500,1.44566748046875,6.482859213277697,1.8999454400673508,2.8192186320632695
1761316099293649400,1.4556494140625,5.512734662705659,1.75857940556854,2.0481967040352522
1761316099303632400,1.46563232421875,4.991243521949649,1.610439931412041,1.591416958773136
1761316099313614600,1.475614501953125,4.272209701442718,1.3133604803711174,1.4010994079701602
1761316099323597300,1.485597412109375,3.0486884819507596,1.1719199193313716,0.9902227512270212
1761316099333579500,1.49557958984375,1.3743272825092077,1.0131050296425819,0.22949279237166045
1761316099343562500,1.5055625,-1.0365203920215367,-0.09867197115421295,0.40484219888448714
1761316099353544400,1.51554443359375,-3.78185896435976,-2.1946353656232356,1.99694567861706
1761316099363527400,1.52552734375,-5.959001343390345,-4.624156760963797,2.883180232103169
1761316099373510700,1.5355107421875,-7.946799546694755,-6.304532690650224,2.0886412348873913
1761316099383492400,1.545492431640625,-12.10933306788802,-6.302664558690786,-0.36513073154725134
1761316099393475600,1.5554755859375,-19.068969835448264,-5.196543976220489,-3.5954943889662623
1761316099403457300,1.565457275390625,-28.716421791660785,-1.825973610405624,-6.056357555770874
1761316099413440500,1.5754404296875,-39.8771027205944,3.732794196939468,-6.871475669026374
1761316099423422500,1.58542236328125,-47.38445871062279,7.149409982353449,-6.548024636149406
1761316099433405400,1.595405517578125,-46.781980308485025,7.769738513958454,-5.48802224625349
1761316099443387400,1.605387451171875,-37.99999951919317,6.349809171703457,-4.016254580211639
1761316099453370600,1.61537060546875,-26.41845815351009,3.7422745574682947,-2.8774723758503793
1761316099463353300,1.625353271484375,-16.390760679531095,1.411778915155679,-2.4466094543941317
1761316099473335600,1.63533544921875,-8.559401867961883,-0.9473191367849707,-2.4819895414635536
1761316099483318500,1.645318603515625,-2.759580448180437,-3.274349879465997,-2.2858700263835487
1761316099493300500,1.655300537109375,0.731048667949438,-4.7461152074202895,-1.5710362879149615
1761316099503283500,1.665283447265625,2.0987726066708565,-4.738220362517238,-0.6320519948855042
1761316099513265700,1.675265625,2.4153742120444774,-3.81571827160269,-0.29299609071742744
1761316099523248600,1.68524853515625,2.365001284635067,-2.690711494615674,-0.5679872267320751
1761316099533230600,1.695230712890625,2.3368080403298137,-1.9985545751184224,-0.6363621862348169
1761316099543213600,1.705213623046875,2.534442490017414,-1.6521058207526802,-0.4226250352691859
1761316099553196500,1.715196533203125,2.819652347305417,-1.2571812047705053,-0.17401530836485327
1761316099563178500,1.725178466796875,3.229303992298245,-0.8642493700407445,0.15943806308843195
1761316099573161700,1.73516162109375,3.8300966333061455,-0.5118007176730781,0.547870759768039
1761316099583143700,1.745143798828125,5.1731297828853124,-0.26450024673640726,0.8495781628705561
1761316099593126700,1.755126708984375,7.020526412808895,-0.1090687158755958,1.0771876257136463
1761316099603108600,1.765108642578125,8.5746637345016,0.12628931526765227,1.45640175460577
1761316099613091600,1.775091552734375,9.761904264822602,0.45200259398818016,2.028184574228525
1761316099623073500,1.785073486328125,10.792413433730601,0.8572165487945079,2.669554724818468
1761316099633056800,1.795056884765625,11.735179437255859,1.1850257768809795,3.262713509947061
1761316099643038500,1.80503857421875,12.522336361396311,1.290245416112989,3.63221083920598
1761316099653021700,1.815021728515625,13.088810553216934,1.2396388260781763,3.7934412656039
1761316099663004700,1.825004638671875,13.462408888053893,1.1149740432724355,3.7895939425259826
1761316099672986600,1.834986572265625,13.552595939457415,0.9977022933274506,3.65028308699131
1761316099682969600,1.844969482421875,13.44027888931036,0.8745243880786001,3.5228391948610542
1761316099692951600,1.85495166015625,13.127239360332489,0.7624107515491545,3.403587377014756
1761316099702934500,1.8649345703125,12.746881614363193,0.7098749470174313,3.27129487580955
1761316099712916700,1.874916748046875,12.423332381808757,0.7424471370592713,3.1450673737317323
1761316099722899700,1.884899658203125,12.059012747448682,0.747534377195686,3.115583505094051
1761316099732881700,1.894881591796875,11.507040543711184,0.8824014050640165,3.311054639267921
1761316099742864600,1.90486474609375,10.851721362745762,1.1090557591393588,3.7825609751492735
1761316099752847600,1.91484765625,10.183232903605699,1.4330917522974311,4.319804980832338
1761316099762829600,1.92482958984375,9.581945172557234,1.797428337792307,4.735752511098981
1761316099772812500,1.9348125,9.05898805090189,1.9358835994109511,4.85328641911149
1761316099782794800,1.944794677734375,8.472686292061208,1.9598739851988851,4.685309441062808
1761316099792777500,1.954777587890625,7.716753942745924,2.0048101283818482,4.329521488204598
1761316099802759700,1.964759765625,6.906874314665794,2.046677970035374,3.962673212149739
1761316099812742700,1.97474267578125,5.72935496789217,1.9826802757687865,3.787905258786678
1761316099822724600,1.984724609375,4.114947009631991,1.8937348949894308,3.5686318087428806
1761316099832707600,1.99470751953125,2.493036128395796,1.8949546460427342,3.0818279504865407
1761316099842690800,2.00469091796875,1.1953443417996168,1.472394273507595,2.3264121723912656
1761316099852672500,2.014672607421875,-0.015860416954755784,-0.013898176971077918,1.8303334130503237
1761316099862655700,2.02465576171875,-1.3634060755223034,-2.444571372695267,1.942480951849371
1761316099872637400,2.034637451171875,-3.0345950746685264,-5.058625451827049,2.057958511853963
1761316099882620700,2.04462060546875,-5.853114034029841,-6.263366567525267,1.1867980472505093
1761316099892602600,2.0546025390625,-11.144653338718413,-5.853764606893062,-0.9009262189224362
1761316099902585600,2.064585693359375,-18.490039482158423,-5.030850140672922,-4.354992029547691
1761316099912567600,2.074567626953125,-26.115406934583184,-4.154962209156156,-8.308390632873772
1761316099922550800,2.08455078125,-32.96647109922171,-2.1104829182088376,-11.910071893781423
1761316099932532500,2.094532470703125,-38.25921861065626,0.08917407496869563,-15.258628288447856
1761316099942515700,2.104515625,-40.43392762506008,1.6725694937191902,-17.10506513342857
1761316099952498700,2.114498779296875,-37.96371240028143,3.369125427703559,-15.990157433390616
1761316099962480600,2.124480712890625,-31.312374689173698,4.32591966432035,-12.679438309687376
1761316099972463600,2.134463623046875,-22.160814737558365,3.766972653134167,-9.139226539742946
1761316099982445600,2.144445556640625,-12.721536745226382,2.383603986035287,-6.296713541331886
1761316099992428500,2.154428466796875,-4.515764775305986,0.3871656724184751,-4.347066789506376
1761316100002410800,2.16441064453125,1.3240209905952214,-1.8659557844430208,-3.213864138843119
1761316100012393700,2.174393798828125,4.396748519781232,-3.461147293318808,-2.6003134308099747
1761316100022375700,2.184375732421875,5.253980850666761,-3.9872567415252327,-2.2557604270629583
1761316100032358700,2.194358642578125,5.044989725184441,-3.7310909001529216,-2.225011799186468
1761316100042341600,2.204341552734375,4.718258355462551,-3.068463149739802,-2.342958379653096
1761316100052323600,2.214323486328125,4.557699544715881,-2.411984569606185,-1.9558222255900501
1761316100062306600,2.224306640625,4.063206301000714,-1.4814605002775787,-1.0676835920482872
1761316100072288500,2.23428857421875,3.4318022486299276,-0.2788623879574239,-0.055733139268308876
1761316100082271500,2.244271484375,2.893383353948593,0.6792784409627318,0.6946610112726688
1761316100092253700,2.254253662109375,2.647912801852822,1.2510142065733671,1.194383680073917
1761316100102236400,2.264236328125,3.140584090837836,1.5938552918359636,1.6993571090102195
1761316100112218600,2.274218505859375,4.26825365729332,1.730979158720374,2.2637505490340293
1761316100122201600,2.28420166015625,5.812601990899443,1.7750361809812485,2.6680694546967745
1761316100132184600,2.2941845703125,7.4174272973001,1.9682042989097535,2.939538371402025
1761316100142166500,2.30416650390625,8.841474596267938,2.223602224649489,3.2215567391723394
1761316100152149800,2.314149658203125,9.996355410254,2.5017741461247205,3.4787948859512805
1761316100162131500,2.32413134765625,10.975848093152045,2.6457988784387707,3.6553210811585184
1761316100172114700,2.33411474609375,11.757304759824276,2.7497172258138654,3.7893455207228657
1761316100182096400,2.344096435546875,12.279136676841974,2.860193908791244,3.889766965892911
1761316100192079600,2.35407958984375,12.684674456775188,2.894397791688144,3.9912370433330535
1761316100202061600,2.3640615234375,13.018148871016502,2.8588252507865426,4.058236695894599
1761316100212044500,2.37404443359375,13.218387365722656,2.8242864368468523,4.060439758896828
1761316100222026500,2.384026611328125,13.205703240716456,2.795147728385031,4.0165418727204205
1761316100232009700,2.394009765625,12.772711636668443,2.7226222981393335,3.9402424768939612
1761316100241992700,2.40399267578125,12.084435942518711,2.5892317725643514,3.799896140831709
1761316100251974700,2.413974609375,11.379355244040488,2.481499712119996,3.6005706693172455
1761316100261957600,2.42395751953125,10.44147818160057,2.491720954144001,3.4355139626294373
1761316100271939600,2.433939697265625,9.521682134774327,2.4984146065637467,3.4451100584924217
1761316100281922600,2.443922607421875,8.872120494422315,2.4845734204769134,3.466633908036351
1761316100291904800,2.45390478515625,8.498204764199256,2.451330783827603,3.5762843693226576
1761316100301887500,2.463887451171875,8.18243610251844,2.4562343379601836,3.6385868039786815
1761316100311869700,2.47386962890625,7.821567485395073,2.3087737859785555,3.5444220811158416
1761316100321852700,2.483852783203125,7.29502666003406,2.1180489695489406,3.388411727453768
1761316100331834600,2.493834716796875,6.419191920009255,1.9469725641801952,3.1923236304253337
1761316100341817600,2.503817626953125,4.973452429193258,1.6903075411140918,2.780613883858919
1761316100351800600,2.513800537109375,3.078911770778894,1.273151804101467,2.047193372211605
1761316100361782500,2.523782470703125,0.585488688892126,0.7526479208171367,0.8898254175849258
1761316100371765500,2.533765625,-2.4977871223151684,0.040085926672816276,-0.37044060145840046
1761316100381747500,2.54374755859375,-5.77140956428945,-1.429228793258965,-0.8943230212651193
1761316100391730400,2.55373046875,-8.98707490733564,-3.6289071214854713,-0.6808424754090606
1761316100401712600,2.563712646484375,-11.553105544793604,-6.018097675481438,-0.10217705666571855
1761316100411695400,2.5736953125,-12.355550054436922,-7.640288542702794,0.30013861941583453
1761316100421677600,2.583677490234375,-11.480264764988421,-7.361124979841708,-0.2925386658061296
1761316100431660500,2.59366064453125,-10.838581310665607,-6.565745001757144,-1.2626096595600247
1761316100441642500,2.603642578125,-14.370238018232584,-5.575387225973606,-2.9509833100020884
1761316100451625500,2.61362548828125,-23.68206802678108,-3.187949653124809,-5.067793093144894
1761316100461608700,2.623608642578125,-35.49850302096605,1.0593135308489203,-6.925469125020504
1761316100471590400,2.63359033203125,-41.827324934220314,5.375374356716871,-8.144496540224551
1761316100481573600,2.64357373046875,-38.98834186350107,7.144031211924553,-7.563153865095972
1761316100491555600,2.6535556640625,-29.640384895038604,6.0218292632251975,-6.111504857975244
1761316100501538600,2.66353857421875,-18.396031995683906,3.5950323244124647,-5.261723427617549
1761316100511520500,2.6735205078125,-8.947251430991292,1.0362971046596765,-5.3558711993455885
1761316100521503700,2.683503662109375,-2.1368279042989013,-1.449003461048007,-5.454334496185183
1761316100531484700,2.693484619140625,1.8242606690078973,-3.4179841511577367,-4.7479941530346865
1761316100541467600,2.703467529296875,3.2618361425906417,-4.248498278726637,-3.2871441868484017
1761316100551449900,2.713449951171875,3.0261668535411355,-3.799960145978629,-1.8093667589977382
1761316100561432800,2.723432861328125,2.4099223763793707,-2.6806670704632998,-1.0687018291801214
1761316100571415600,2.73341552734375,2.232753791615367,-1.6699823998354375,-0.8515650989040732
1761316100581397800,2.743397705078125,2.4796651901692153,-0.8695692498892545,-0.7228017947383224
1761316100591380700,2.753380615234375,2.951412933591008,-0.3337780733630061,-0.8163144834332168
1761316100601362700,2.76336279296875,3.583677986705303,-0.03702463940605521,-0.8402586919918655
1761316100611345700,2.773345703125,4.438158388534188,0.2289548861026764,-0.5720388402104377
1761316100621327600,2.78332763671875,5.476006229767203,0.5348410361945629,-0.11839008645042777
1761316100631310600,2.793310546875,6.638347296631336,0.8398290684029459,0.5238580160178243
1761316100641292800,2.803292724609375,7.771221445992588,1.1265209809422492,1.2013979427501558
1761316100651275500,2.813275634765625,8.749866572150587,1.547149362501502,1.8575483138427138
1761316100661257700,2.8232578125,9.605853286889195,2.0937536094650624,2.5888246530681847
1761316100671240700,2.83324072265625,10.275321989238261,2.5572180931881068,3.2260061197966334
1761316100681223700,2.8432236328125,10.72398930132389,2.77855987393856,3.8233226091265675
1761316100691205600,2.85320556640625,10.957166773557661,2.8595088491365312,4.238582741650939
1761316100701188900,2.86318896484375,11.053825651323795,2.953039073488116,4.337152129213512
1761316100711170600,2.873170654296875,11.206731901490688,3.004284107556939,4.347447020995617
1761316100721153800,2.88315380859375,11.446876874649524,2.9663451297849415,4.283083562156558
1761316100731135500,2.893135498046875,11.709780792105198,2.8416224793121216,4.135056900724768
1761316100741118700,2.90311865234375,11.930267125070094,2.7204733034119006,4.002923389473557
1761316100751100700,2.9131005859375,12.086390583717822,2.610941792330146,3.9030776983648536
1761316100761083600,2.923083740234375,12.202503519016503,2.505743926538527,3.8020541956484317
1761316100771065600,2.933065673828125,12.181913150930404,2.4033672556474803,3.7412270942419763
1761316100781048800,2.943048828125,11.918232988405228,2.401188450303674,3.7721395343780517
1761316100791031800,2.95303173828125,11.497428665757178,2.539179163150489,3.8779178304061293
1761316100801013800,2.963013671875,11.07492689154148,2.6410361940816043,3.993303912734985
1761316100810996700,2.972996826171875,10.66154833498001,2.6101871745705605,4.037165558554232
1761316100820978700,2.982978759765625,10.18565633136034,2.4094489136487245,3.9288466381326317
1761316100830961700,2.992961669921875,9.679245270836352,2.1339602399080992,3.580052489684522
1761316100840943900,3.00294384765625,9.137850575214625,1.8411019136935471,2.9913492226600646
1761316100850926600,3.012926513671875,8.410421266806125,1.5626877078950405,2.410590046507865
1761316100860908800,3.02290869140625,7.129028873103857,1.3023276297032833,2.046160960423946
1761316100870891800,3.032891845703125,5.082034384465217,0.9579632803961634,1.5503310612775385
1761316100880873700,3.042873779296875,2.63987913300097,0.24545769261419773,0.9718149878770113
1761316100890856700,3.052856689453125,0.5184983886808157,-0.7078302894473075,0.8938529195353389
1761316100900839700,3.062839599609375,-0.9994663803905248,-1.6945223823301494,1.5938710739269852
1761316100910821600,3.072821533203125,-3.0491829874694347,-3.0928695689827204,2.6601199569970366
1761316100920804900,3.082804931640625,-6.469159189227223,-5.227548770815134,3.2848309414699672
1761316100930786600,3.09278662109375,-10.447049844253062,-6.874626242011785,2.261794154269248
1761316100940769800,3.102769775390625,-15.852207929337023,-7.223156186565756,-0.8475352588661015
1761316100950751700,3.112751708984375,-24.26861470029354,-6.848435569700598,-3.9198371099859473
1761316100960734700,3.122734619140625,-35.19051376111507,-4.187792465612292,-6.039715048527717
1761316100970716700,3.132716552734375,-45.31742096638679,0.7976374746877699,-7.963755357670784
1761316100980700000,3.142699951171875,-49.88329914138317,4.312124070940912,-9.383770624643564
1761316100990681600,3.152681640625,-45.9324502225399,5.484308778688312,-9.24677506031394
1761316101000664800,3.162664794921875,-35.964324881470205,4.647956154224277,-8.374750233966111
1761316101010646800,3.172646728515625,-24.357419941949843,2.7200600464358926,-7.787039192849397
1761316101020629800,3.182629638671875,-14.04308462370634,0.7244831719540059,-7.213079613709449
1761316101030612700,3.19261279296875,-5.9656508644074195,-1.3193378012150525,-6.273201732841134
1761316101040595000,3.202594970703125,-0.29875965921282766,-2.9900743804186583,-5.009009480264782
1761316101050577700,3.21257763671875,2.614600314837694,-3.563632977542281,-3.6197926716595887
1761316101060560000,3.222559814453125,3.2118454924970865,-3.1296561618492005,-2.411735855542123
1761316101070542800,3.23254296875,3.138814743077755,-2.448479632180184,-1.9361166775144636
1761316101080524800,3.24252490234375,3.281024242663383,-1.850545595473796,-1.949585961548984
1761316101090507800,3.2525078125,3.578819440758228,-1.407038588760793,-1.9454371713064609
1761316101100489700,3.26248974609375,4.227281010913849,-0.8060323050022125,-1.923348819747567
1761316101110472700,3.27247265625,4.987088155835867,-0.10983005563691257,-1.6322626177720725
1761316101120455000,3.282454833984375,5.7059881208300585,0.4301498047508299,-0.8438970484942198
1761316101130437600,3.292437744140625,6.3198910033017395,0.7130838260613381,0.029118980848044155
1761316101140420600,3.302420654296875,6.861932764655351,0.8486170627534388,0.8116346550539135
1761316101150402800,3.31240283203125,7.325569682335853,0.9570033493228256,1.6200187838792799
1761316101160385500,3.322385498046875,7.879628629219532,1.0647497305534779,2.219950131882727
1761316101170367700,3.33236767578125,8.529685359612106,1.1966085165165363,2.52148831589818
1761316101180350700,3.342350830078125,9.069722795405983,1.4581393920533359,2.696004632587731
1761316101190332700,3.352332763671875,9.448510515579581,1.6868175070412457,2.8744065585389733
1761316101200315600,3.362315673828125,10.034779541194439,1.936607237510383,3.0468571748703717
1761316101210297900,3.3722978515625,10.80034422672987,2.218446449321508,3.218220872747898
1761316101220280600,3.382280517578125,11.570297502613068,2.414581015840173,3.5122488272637127
1761316101230262800,3.3922626953125,12.432621603679657,2.508008072078228,3.706002051603794
1761316101240245800,3.402245849609375,13.30735861159563,2.508860012732446,3.634676937058568
1761316101250227700,3.412227783203125,13.921790486377477,2.351927575789392,3.351352162864804
1761316101260210700,3.422210693359375,14.027662598168849,2.1950904159143567,3.0392016916811464
1761316101270194000,3.43219384765625,13.587830918967724,2.259061368304491,2.8022201509892937
1761316101280175600,3.442175537109375,12.862724500548838,2.3595915345460177,2.6162334689974784
1761316101290158800,3.452158935546875,12.038410688924788,2.306423131199181,2.409731237721443
1761316101300140500,3.462140625,11.144113240492343,2.240133672733605,2.2993933786928653
1761316101310123800,3.472123779296875,10.335090521502494,2.3358801118299364,2.297064789614826
1761316101320105700,3.482105712890625,9.774842656850815,2.495686935165524,2.3421216365680095
1761316101330088700,3.492088623046875,9.386055520710348,2.505491705343127,2.369310380005836
1761316101340070700,3.502070556640625,9.046385758960247,2.4439605473205446,2.4508128974333405
1761316101350054000,3.512053955078125,8.772806718233227,2.4154478618025776,2.6197394312918183
1761316101360035600,3.52203564453125,8.669217164421081,2.4811203574135896,2.930482373765111
1761316101370018800,3.532018798828125,8.281910037705302,2.6884868043035266,3.3296593864947557
1761316101380000800,3.542000732421875,7.259485391053557,2.791182624146342,3.4012796845942734
1761316101389983700,3.551983642578125,5.744624433216452,2.4259353535473345,3.1377766322016716
1761316101399966700,3.561966796875,3.6965234446406363,1.3870233902141451,2.7646815707117316
1761316101409949000,3.571948974609375,0.9326023369073867,0.07136310846805573,2.337324903810769
1761316101419931600,3.581931640625,-2.339567568171024,-1.3191443244695662,1.8228415959902107
1761316101429913900,3.591913818359375,-5.829111227151751,-2.752956061604619,1.4477895552136004
1761316101439896800,3.601896728515625,-8.97509805381596,-4.3304801041036844,1.1308150248743594
1761316101449878800,3.611878662109375,-11.729105085778235,-5.016577869692444,-0.001756196017563343
1761316101459861800,3.62186181640625,-15.84934260303378,-4.431039496439695,-2.2098003476597365
1761316101469843700,3.63184375,-22.920655784749982,-2.570681970395148,-4.741159630839526
1761316101479826700,3.64182666015625,-32.595732245469094,1.1060372881010174,-6.865145296961069
1761316101489809000,3.651808837890625,-41.53780890417099,4.273848700821399,-8.708336876410245
1761316101499791600,3.66179150390625,-45.23860871095657,5.08976936263144,-9.952160879218578
1761316101509774600,3.671774658203125,-41.554390621137614,4.677425117553771,-9.99980642749071
1761316101519756800,3.6817568359375,-32.41113789461851,3.4570389812171456,-8.560288003146647
1761316101529740500,3.691740478515625,-22.15149278246164,1.582580010714382,-6.785781252866983
1761316101539722500,3.701722412109375,-13.589299237954616,-0.4041040938682854,-5.679127001911401
1761316101549705500,3.71170556640625,-7.709045268064737,-2.1170570359021426,-4.8480128626227375
1761316101559687400,3.7216875,-4.275745474353433,-3.130533821466565,-3.8197985266536474
1761316101569670400,3.73167041015625,-2.784112247368693,-3.332960766127705,-2.5765911944389344
1761316101579652600,3.741652587890625,-2.378749824002385,-2.839831796503067,-1.5398393317490815
1761316101589635300,3.75163525390625,-2.0073884544372556,-2.070484962080419,-0.9007290889151394
1761316101599617500,3.761617431640625,-1.2958943817853927,-1.4855534686796366,-0.6389812096267938
1761316101609600500,3.7716005859375,0.0713163467168808,-1.0656215449519455,-0.7072862456984818
1761316101619582500,3.78158251953125,1.8627631258815527,-0.5912098430179059,-0.7501940979242324
1761316101629565400,3.7915654296875,3.916976459857821,-0.255191589512676,-0.6187367323689162
1761316101639548400,3.80154833984375,5.942195754539966,-0.10611512676700949,-0.4026918889828026
1761316101649530400,3.8115302734375,7.785601853522658,0.0445268317297101,-0.13882161071300506
1761316101659513600,3.821513671875,9.499660857102274,0.25639585073590276,0.15718933431357143
1761316101669495600,3.83149560546875,11.125452963685989,0.6555585426792502,0.4522684053175151
1761316101679478500,3.841478515625,12.604815907162427,1.2117179689735174,0.9191011964298784
1761316101689460500,3.85146044921875,13.7754180218935,1.801284282568097,1.5949954017817973
1761316101699443500,3.861443359375,14.394817163693904,2.3585130916595456,2.4210174786284564
1761316101709425400,3.87142529296875,14.50758312665224,2.7053412007316946,3.1756752779632804
1761316101719408600,3.88140869140625,14.297509466630219,2.888519255043566,3.6348885339826342
1761316101729390300,3.891390380859375,13.790227468490599,2.996120090323686,3.9237753262177106
1761316101739373600,3.90137353515625,13.176535598421095,3.07251330191344,4.037064728528261
1761316101749355500,3.91135546875,12.603767274892329,3.0691496706992387,3.8415065005928275
1761316101759338500,3.92133837890625,12.21936931362152,2.951165388570726,3.4771441961348053
1761316101769320400,3.931320556640625,12.059769118773936,2.8035563680291173,3.1104277297660707
1761316101779303400,3.941303466796875,12.130098792541027,2.670139831230044,2.773489146545529
1761316101789286400,3.951286376953125,12.52730129032731,2.46469909170568,2.4879011035948992
1761316101799268600,3.9612685546875,12.804238409310578,2.2668074523866175,2.2839751525476575
1761316101809251600,3.97125146484375,12.836899154418706,2.1704279760837553,2.2353848707713184
1761316101819233500,3.981233642578125,12.692369102931021,2.1364491341143843,2.2892753047823904
1761316101829216500,3.991216552734375,12.481742485201359,2.1847002470642325,2.4810195273876188
1761316101839198500,4.001198486328125,12.13663842344284,2.3161492831826207,2.804056426505744
1761316101849181400,4.011181396484375,11.707229938578605,2.3888258123368025,3.2161072415947913
1761316101859163600,4.02116357421875,11.197208870863914,2.4423697709977628,3.5322879912078378
1761316101869146600,4.031146728515625,10.579184524548053,2.48933552031219,3.6729905933618543
1761316101879128600,4.041128662109375,9.938653747391701,2.4629148386374116,3.5596284180760382
1761316101889111600,4.051111572265625,9.36934228631854,2.267174239872396,3.0969793423891065
1761316101899093500,4.061093505859375,8.719961263230443,1.9860884767770766,2.3742310314036903
1761316101909076500,4.071076416015625,7.628096585127711,1.7146449867740272,1.8593042175993322
1761316101919059500,4.0810595703125,6.156614750289917,1.214230536316335,1.6095238394804299
1761316101929041400,4.09104150390625,4.305328127190471,0.35958325348794457,1.3051140455514192
1761316101939024400,4.1010244140625,1.3644336650043725,-0.8442265727095305,1.1203080977767705
1761316101949006600,4.111006591796875,-2.7757155904233453,-2.1796984932541847,1.5751767487205564
1761316101958989300,4.1209892578125,-7.079267940112948,-3.6050352475106715,2.613270527538657
1761316101968971500,4.130971435546875,-11.475814215320348,-4.4004561421275135,2.947319234536588
1761316101978954500,4.14095458984375,-17.40637564616799,-3.6187855404436586,0.5864394137457013
1761316101988936400,4.1509365234375,-25.319381644332406,-2.086672272901982,-4.858783847483992
1761316101998919400,4.16091943359375,-34.76786702547073,0.5343186197556555,-11.593898158431053
1761316102008901400,4.1709013671875,-42.948807336473465,3.456113098543882,-16.458090586960314
1761316102018884400,4.18088427734375,-45.17615371608734,4.260206544438004,-18.21282646884322
1761316102028866600,4.190866455078125,-41.10434617547989,3.5254590219706294,-17.184003645586966
1761316102038849300,4.200849365234375,-33.12115897210836,2.669864521420002,-14.219163659667968
1761316102048831500,4.21083154296875,-23.981233344185352,1.4829719277538358,-10.755559328585862
1761316102058814500,4.220814453125,-15.837938580965995,0.04401186794489622,-7.918691642585396
1761316102068797700,4.230797607421875,-9.933813906145096,-1.4214762794360518,-6.007355916714668
1761316102078779400,4.240779296875,-6.489103660625219,-2.3423908088982106,-4.595907694818079
1761316102088762600,4.2507626953125,-4.7226364244163035,-2.546896897920966,-3.436612571521103
1761316102098744300,4.260744384765625,-3.6418075195908544,-2.3826880402341484,-2.6608698985815047
1761316102108727600,4.2707275390625,-2.581034145322442,-2.111025208391994,-2.1586185880854725
1761316102118709500,4.28070947265625,-1.7865104918062686,-1.7657082345351576,-1.4114800783395767
1761316102128692500,4.2906923828125,-1.8214555484592914,-1.1967857727795839,-0.2726858912795782
1761316102138674400,4.30067431640625,-1.8721786044806241,-0.4477552387420088,0.46705870882272715
1761316102148657700,4.31065771484375,-1.1440005235314368,-0.026581936651095747,0.5628071937456727
1761316102158639400,4.320639404296875,0.27509762859642506,-0.013402648539096116,0.4082645745486021
1761316102168622600,4.33062255859375,2.3192554325044155,-0.08602028711289167,0.17187603131383655
1761316102178604300,4.340604248046875,4.824754736632109,0.010439268688857554,0.12134732882082462
1761316102188587500,4.35058740234375,7.325420629253983,0.2979889671012759,0.5351958409816027
1761316102198569500,4.360569580078125,9.3855879031986,0.6582463204585015,1.2320607920393347
1761316102208552400,4.370552490234375,10.741004733532666,1.02621512497589,2.0993787558704615
1761316102218535400,4.380535400390625,11.704045463323592,1.4470236854076384,2.8632869063705204
1761316102228517600,4.390517578125,12.368716994524002,1.9678296203784644,3.387456910946965
1761316102238500400,4.400500244140625,12.877545637583731,2.37744005657807,3.698631230574846
1761316102248482600,4.410482666015625,13.31097563304901,2.6606781754016873,3.8478944480642676
1761316102258465500,4.420465576171875,13.536488854265212,2.8406363908842205,3.9547164079263806
1761316102268447500,4.430447509765625,13.552385511577128,2.903877567695081,3.9527465691581365
1761316102278430500,4.440430419921875,13.578802393859624,3.01979907207489,3.793895439112186
1761316102288412700,4.45041259765625,13.757671937322616,3.014472324094176,3.4107261428534983
1761316102298395400,4.4603955078125,14.077674291050434,2.9203762825533746,3.001393354551494
1761316102308377600,4.470377685546875,14.446596450769901,2.906697593551874,2.7729721369341016
1761316102318360600,4.480360595703125,14.827833317661284,2.9069711497962474,2.7593969083070755
1761316102328342500,4.490342529296875,15.140805042099952,2.915800937461853,2.878110966014862
1761316102338325500,4.500325439453125,15.323676222419738,2.906868858465552,3.1584388964802024
1761316102348307500,4.510307373046875,15.402777231663464,2.838690225252509,3.49865752428472
1761316102358290400,4.52029052734375,15.325841291499136,2.7323180549845096,3.8133985964834687
1761316102368273400,4.5302734375,14.941730914998054,2.6771234065070746,4.178827361129224
1761316102378255400,4.54025537109375,13.989637111157178,2.884351029448211,4.511588950926066
1761316102388238300,4.55023828125,12.904504956179856,3.056513476487994,4.532110345429182
1761316102398220500,4.560220458984375,12.028776599138974,2.920832501888275,4.10694899661541
1761316102408203300,4.570203369140625,11.095391002899408,2.719671047118306,3.2535242413192984
1761316102418185500,4.580185546875,9.959847342067956,2.4741844206705688,2.3874647531166673
1761316102428168400,4.59016845703125,8.643415199166537,2.13716152016744,1.7793207264326512
1761316102438150400,4.600150390625,7.213000703254342,1.5878734409473836,1.3313815824910997
1761316102448133400,4.61013330078125,5.503355424463749,0.9411749349415302,1.0170685264460742
1761316102458115600,4.620115478515625,2.5776731444567442,0.08811696713119745,0.8424922962628304
1761316102468098300,4.630098388671875,-1.1195195777475833,-0.8669409472122788,0.14659034501835702
1761316102478080500,4.64008056640625,-4.197253536918759,-2.174826211042702,-1.0281086836375295
1761316102488063500,4.6500634765625,-6.354221142926812,-3.858846050189435,-2.3378232087217268
1761316102498045400,4.66004541015625,-9.677747141233086,-4.9817473793298,-3.852565362484753
1761316102508028400,4.6700283203125,-15.530909106057882,-4.822523032057285,-5.909257946056127
1761316102518011600,4.68001171875,-23.90847907361984,-2.7369728950530288,-8.747875690594315
1761316102527993000,4.6899931640625,-34.070988338148595,1.2375750254161655,-11.464338881582021
1761316102537976000,4.69997607421875,-41.93886573929787,3.418565165916085,-13.937419432663917
1761316102547958000,4.7099580078125,-43.25583096616268,2.382139174179733,-15.768578044492005
1761316102557941000,4.71994091796875,-37.899590348982805,0.9589821751151233,-15.556351005828379
1761316102567923000,4.7299228515625,-29.899201835441588,0.32194486609771844,-12.908860813301802
1761316102577906000,4.739906005859375,-22.86279279384613,-0.2775706676464528,-9.970890129607914
1761316102587888000,4.74988818359375,-18.075144675815103,-0.9773830703329295,-7.7160525164783
1761316102597871000,4.75987109375,-15.368520741796493,-1.269565470047295,-5.991482640278339
1761316102607853000,4.76985302734375,-13.713264640319347,-1.4305610647760332,-4.984752406364679
1761316102617836000,4.7798359375,-12.080620183622836,-1.65910926977396,-4.481251388068497
1761316102627818000,4.78981787109375,-10.128277324581145,-1.7373102614380418,-4.055232545642554
1761316102637801000,4.799801025390625,-8.055031957876682,-1.5369547162234782,-3.5805285827636717
1761316102647783200,4.809783203125,-5.9635331416010855,-1.2801353793784975,-2.952995526607334
1761316102657766000,4.819765869140625,-3.981291403380036,-0.9477696570314467,-2.241177044306695
1761316102667748000,4.829748046875,-1.949597359725833,-0.5546958565477281,-1.480917187181115
1761316102677731000,4.83973095703125,0.11356675794720648,-0.08684197875931858,-0.5637015122368931
1761316102687713800,4.8497138671875,2.268557510924339,0.3253852158099413,0.27971885865628715
1761316102697696000,4.859696044921875,4.310395931974053,0.7563461908131838,0.9442132797241211
1761316102707679000,4.869678955078125,6.159131701546907,1.1572228470675647,1.3911296564891933
1761316102717661000,4.879660888671875,7.718410477781295,1.5794738613925874,1.8348802626997232
1761316102727644000,4.889643798828125,9.13543416172266,1.9364524853400884,2.36541541839391
1761316102737626000,4.899626220703125,10.40096964560151,2.274520949373394,2.7826351605534554
1761316102747608800,4.90960888671875,11.373719283980131,2.668631472493708,3.1716154811784625
1761316102757591000,4.919591064453125,12.069377489596604,3.1175039517626164,3.646789399656653
1761316102767574000,4.929573974609375,12.627777096033096,3.419557099562883,3.938674789185822
1761316102777556000,4.939555908203125,13.043175760245322,3.649374739974737,3.8942414809584616
1761316102787539000,4.9495390625,13.373591955959796,3.860200387407839,3.6837472574368118
1761316102797521000,4.95952099609375,13.642853133487701,4.079413339436054,3.429766651149094
1761316102807504000,4.96950390625,13.926056327128409,4.220835488036275,3.2159690021678804
1761316102817486000,4.979486083984375,14.190952295184134,4.2598730746999385,3.1335935012981295
1761316102827468800,4.98946875,14.400762920355795,4.299947310934961,3.1754046443283555
1761316102837451000,4.999450927734375,14.535916071689128,4.415424578678608,3.2504788822740314
1761316102847434000,5.00943408203125,14.429631287443637,4.5632507491022345,3.4207504010006784
1761316102857416000,5.019416015625,14.082617008149622,4.709212879219651,3.5436592800498006
1761316102867399000,5.02939892578125,13.653885399633646,4.940122406521439,3.5120874992221593
1761316102877382100,5.039382080078125,13.189013971722126,5.198355409556627,3.356180898195505
1761316102887363800,5.04936376953125,12.856934226709603,5.365147561734914,3.193994778507948
1761316102897347000,5.05934716796875,12.753119631969929,5.4846565692126745,3.12608619440794
1761316102907329000,5.0693291015625,12.694938661158083,5.703945801347494,3.13964417963922
1761316102917312000,5.07931201171875,12.441992658615112,5.94023176099062,3.2702345531016586
1761316102927294000,5.0892939453125,12.004737551903723,6.129263802027702,3.5272955897480247
1761316102937277200,5.099277099609375,11.34982987434864,6.301182211178541,3.7427754927277563
1761316102947259000,5.1092587890625,10.411737707853316,6.391838633659481,3.745941263282299
1761316102957242000,5.1192421875,9.327295873227715,6.266616509231925,3.575479774941504
1761316102967223800,5.129223876953125,8.034657862889766,5.783639515787363,3.2921409722223878
1761316102977207000,5.13920703125,6.659323449164629,4.881784199321269,2.947930936694145
1761316102987189000,5.14918896484375,5.268470563790202,3.7445354881376027,2.6435592828184364
1761316102997172000,5.159171875,3.7175147947430607,2.58461843355,2.069104613637924
1761316103007154000,5.16915380859375,1.5660913788586854,1.2123299633920193,1.1504162357926369
1761316103017137200,5.17913720703125,-1.0154027851909397,-1.0719169918343425,0.35556203514784573
1761316103027118800,5.189118896484375,-2.6647774274140597,-4.362767631985247,0.4325532126307487
1761316103037102000,5.19910205078125,-3.869840614673495,-7.120474979770183,0.327920287245512
1761316103047083800,5.209083740234375,-7.934248692679405,-7.897818365904689,-1.808960516284406
1761316103057067000,5.21906689453125,-17.00023931581974,-6.204606335520744,-7.041332469472288
1761316103067050000,5.229050048828125,-29.366204381287098,-3.7078199146807194,-12.890140915262698
1761316103077032200,5.2390322265625,-41.422349464344975,-1.8262227628611027,-16.42872888339758
1761316103087015000,5.249014892578125,-48.09466683511734,-1.0930467274941504,-17.1065030572772
1761316103096997000,5.2589970703125,-44.82273307688236,-0.9637019701786339,-14.109483972287178
1761316103106980000,5.26897998046875,-34.45282843163013,-1.789185117843002,-9.99917280576229
1761316103116962000,5.278962158203125,-24.763302589797973,-3.110348234789073,-6.980706443595886
1761316103126945000,5.288945068359375,-18.74435209687948,-4.063841091772914,-5.280567828819155
1761316103136927000,5.298927001953125,-15.398631802421807,-4.350243373715878,-4.338818893381953
1761316103146910000,5.308909912109375,-13.22218441991806,-4.065306488150358,-3.7801679425328967
1761316103156892200,5.31889208984375,-11.134483826881647,-3.758404731275141,-3.5653757295563815
1761316103166875000,5.328875,-8.750859090319276,-3.540338903455436,-3.405532373602688
1761316103176857000,5.338857177734375,-6.3751125397861,-3.211933170780539,-3.1791601974695918
1761316103186840000,5.348840087890625,-4.281002664229273,-2.853926957350969,-2.8868378778278827
1761316103196822000,5.358822021484375,-2.5790654755979774,-2.6041654300630093,-2.381627717526257
1761316103206805000,5.368804931640625,-1.227314182034135,-2.2597052191659808,-1.5760490015104411
1761316103216787000,5.378786865234375,0.10992284848690033,-1.7221785971492527,-0.7446873172014952
1761316103226770000,5.38877001953125,1.5678087041705846,-1.1174264048606157,-0.013664660476148128
1761316103236753000,5.3987529296875,3.077041885253787,-0.6550824496001004,0.705964495575428
1761316103246734800,5.40873486328125,4.69213256508112,-0.32206827328167853,1.3414683844804762
1761316103256717800,5.4187177734375,6.127400930765271,-0.03502484389096498,1.6895467858746647
1761316103266700000,5.428699951171875,7.09297322486043,0.171348354177922,1.8063488724812864
1761316103276682800,5.438682861328125,7.663350853860377,0.5308361844673752,2.020147982767224
1761316103286665000,5.4486650390625,8.106674466830492,0.9390724097043275,2.347673425476253
1761316103296648000,5.45864794921875,8.494106096708775,1.2835244372949004,2.5684762770444154
1761316103306630000,5.4686298828125,8.813899191600084,1.6251741208158432,2.753547597756982
1761316103316612900,5.47861279296875,9.018482437512278,1.9435382058173416,2.94380918058902
1761316103326595000,5.488594970703125,9.440533545351029,2.194089568308741,3.0699796917825934
1761316103336577800,5.498577880859375,10.179401947140693,2.3492003427825865,3.152762604409456
1761316103346560000,5.50856005859375,11.087459040856361,2.580451961520314,3.1623540240973234
1761316103356543000,5.51854296875,12.100691496270894,2.878403811481595,3.1282261290460824
1761316103366525000,5.52852490234375,13.165139759659766,3.0420863072067497,3.0026760878384113
1761316103376508000,5.5385078125,14.10481481143236,3.19668562502712,2.953250085890293
1761316103386489900,5.54848974609375,14.946657265484331,3.419033952471614,2.902833903861046
1761316103396472800,5.558472900390625,15.524396363162994,3.552210835295915,2.917846764075756
1761316103406455000,5.568455078125,15.779178933483362,3.60368529420644,3.0754698136314746
1761316103416437800,5.578437744140625,15.58719739499092,3.8467113757595417,3.286826791462302
1761316103426420000,5.588419921875,15.067172819656133,4.198973200318217,3.3478812718838453
1761316103436403000,5.59840283203125,14.50372294409275,4.378444509066641,3.2252672841280696
1761316103446386000,5.608385986328125,14.029364725911616,4.449778683701157,3.0935943761259317
1761316103456367900,5.618367919921875,13.60805303826332,4.54460800795257,3.029644758784771
1761316103466351000,5.62835107421875,13.04394499105215,4.573308324997127,3.055966948521137
1761316103476332800,5.638332763671875,12.436929530006646,4.5668163326293225,3.144423815131187
1761316103486316000,5.64831591796875,11.909734040129184,4.5894253470614546,3.269479935342073
1761316103496298000,5.658298095703125,11.110559345936775,4.592090474617481,3.39474969830364
1761316103506281000,5.668281005859375,10.00866777933836,4.406069598095119,3.2050814051896332
1761316103516263000,5.678262939453125,8.770267555144429,3.7455782751888034,2.5631454374104736
1761316103526246400,5.688246337890625,7.417337280929088,2.6015388809517024,1.6968534556262194
1761316103536228000,5.69822802734375,5.670185570564866,1.4381386604234576,0.7449404151797294
1761316103546211300,5.70821142578125,3.60298649828732,0.24994389811754225,0.2750704483285546
1761316103556193000,5.718193115234375,1.5986042399287224,-1.3840455434471368,0.40128377575054763
1761316103566176300,5.72817626953125,-0.5376128389954566,-3.974635452622175,0.7798030542463064
1761316103576158200,5.738158203125,-3.9340982750505207,-6.258001825621724,0.3200876939237118
1761316103586141200,5.74814111328125,-10.845396835899352,-6.534525687628984,-2.9423335550785064
1761316103596123100,5.758123046875,-21.140321351230142,-5.512422528016567,-8.176721232002974
1761316103606106400,5.7681064453125,-31.284256848192214,-3.7692175094515084,-12.483984711170196
1761316103616088000,5.778088134765625,-39.55272580504417,-1.8455906034149228,-14.395561844581366
1761316103626071300,5.7880712890625,-44.78803118133545,-0.7060557540554553,-13.823776686871051
1761316103636053200,5.79805322265625,-43.73515762040615,0.06090360070876777,-12.698334733337163
1761316103646036200,5.8080361328125,-38.031030617272854,-0.1221735505118966,-11.15087265162468
1761316103656018200,5.81801806640625,-31.324074479317662,-1.5001843438394367,-8.9900185595721
1761316103666001400,5.82800146484375,-25.099374619317054,-2.497320966108143,-7.174325812423229
1761316103675984100,5.837984130859375,-20.16234141098261,-3.0050679514110086,-5.7668462018966675
1761316103685966300,5.84796630859375,-16.514391735374925,-3.130216426080465,-4.598979357348382
1761316103695949300,5.85794921875,-13.683779018115997,-2.854664623975754,-3.7682264525875446
1761316103705931300,5.86793115234375,-10.945504392814636,-2.4246336232990027,-3.3160061241954564
1761316103715914200,5.877914306640625,-8.081681479871273,-1.979709297133982,-3.0933328025802966
1761316103725896200,5.887896240234375,-5.291109681099653,-1.5945324604451656,-2.897913983115554
1761316103735879200,5.897879150390625,-2.633079974380135,-1.1184782520011067,-2.5262787650451064
1761316103745861400,5.907861328125,-0.5190875867456197,-0.4206074849016964,-1.7818290559917687
1761316103755844000,5.917843994140625,0.9229822756469249,0.48321343254894017,-0.8438315820425748
1761316103765826300,5.927826416015625,2.274772147655487,1.3365299051649868,0.06752163060903549
1761316103775809300,5.937809326171875,3.8297961890548464,1.948265234339237,0.6665484309881925
1761316103785791200,5.947791259765625,5.374541997545958,2.402211363610625,0.8734963602051138
1761316103795774200,5.957774169921875,6.785575501161813,2.7831004399776456,0.9573473404549062
1761316103805756400,5.96775634765625,7.99628809248507,3.1216154787346717,1.1162832261748612
1761316103815739100,5.9777392578125,9.115406103694438,3.4305212689086795,1.3349120947048068
1761316103825721300,5.987721435546875,10.230747518974542,3.852296190154552,1.5966360085956752
1761316103835704300,5.997704345703125,11.182577118921278,4.308594727770984,1.892012162850052
1761316103845686300,6.007686279296875,11.902719777452946,4.6534556284233926,2.1777613877117634
1761316103855669200,6.017669189453125,12.493234185552597,4.911198509854078,2.442736996874958
1761316103865651200,6.027651123046875,13.095140925282239,5.214031117594242,2.6401369071543215
1761316103875634200,6.03763427734375,13.685275394153594,5.444040481185913,2.61302269025743
1761316103885617200,6.0476171875,14.185852926218509,5.478856943023205,2.5198028470292684
1761316103895599000,6.05759912109375,14.582190331608055,5.584415751081705,2.4759365250349044
1761316103905582000,6.06758203125,14.887442859971522,5.812936921942233,2.436239743810147
1761316103915564300,6.077564208984375,15.087498983848095,5.943640692651272,2.4492121842384336
1761316103925547000,6.087547119140625,15.137790078192948,5.9970344291865825,2.4797744957625865
1761316103935529200,6.097529296875,14.899412699228524,6.037905368757247,2.4558295565515755
1761316103945512200,6.10751220703125,14.380696283882855,6.120548580652475,2.4396529132544993
1761316103955494100,6.117494140625,13.777169249475001,6.289989786034822,2.4664304455429313
1761316103965477000,6.12747705078125,13.217814534270763,6.392051399627327,2.445340018980205
1761316103975459300,6.137459228515625,12.618439943367243,6.4836921569705,2.553879596415162
1761316103985442000,6.147442138671875,12.01658697965145,6.608202333736419,2.8689316342592237
1761316103995424300,6.15742431640625,11.408194385033845,6.6919245730400085,3.233828776246309
1761316104005407200,6.1674072265625,10.77938093367815,6.761760910332202,3.5810178275853395
1761316104015389200,6.17738916015625,10.292226362287998,6.77655457483828,3.7981864143043755
1761316104025372200,6.1873720703125,9.969406613051891,6.681295626997947,3.8405069681614634
1761316104035354000,6.19735400390625,9.642383566907048,6.548183626103401,3.731770114588737
1761316104045337000,6.207337158203125,9.262530847850442,6.3065785172641275,3.3823639717221257
1761316104055319300,6.2173193359375,8.595378605750202,5.843439612233638,2.97245542935878
1761316104065302000,6.227302001953125,7.864882310986518,5.191134226131439,2.390648936110735
1761316104075284200,6.2372841796875,7.220428222906589,4.240394467248023,1.7409290364570915
1761316104085267200,6.24726708984375,6.376867274498939,2.785164971292019,1.0242349109441042
1761316104095249200,6.257249267578125,4.640160385781527,1.0471499225854872,0.257662655801326
1761316104105232100,6.267232177734375,1.8252958572745321,-1.295142394374311,0.3430300319634378
1761316104115214000,6.277214111328125,-0.8596306241989136,-4.48531089259237,1.4754979386113583
1761316104125197000,6.287197021484375,-5.064746565055847,-7.019633847883343,0.9574918634921312
1761316104135180300,6.29718017578125,-14.11404675015807,-7.130460951733589,-4.109715830980241
1761316104145162000,6.307161865234375,-27.3775042607069,-5.968513268101215,-11.76874736033678
1761316104155145200,6.317145263671875,-41.088400418329236,-4.059615290771425,-18.517746988773347
1761316104165127200,6.327127197265625,-50.10519767923355,-2.4996833113253114,-20.8330498842597
1761316104175110100,6.337110107421875,-49.56049809684753,-2.291785680168122,-17.589644301372765
1761316104185092000,6.347092041015625,-41.29614417409896,-2.4605963325619697,-11.997972295552492
1761316104195075300,6.357075439453125,-32.2492042883873,-2.734419118916988,-7.812700872850417
1761316104205057000,6.36705712890625,-24.78023969607353,-3.667443480628729,-5.516021429291367
1761316104215040300,6.377040283203125,-18.56741965895891,-4.831283261618018,-4.251784460790455
1761316104225022200,6.387022216796875,-13.762895224928855,-5.218512646922469,-3.383204514199495
1761316104235005200,6.397005126953125,-10.362520964741707,-4.917528881919384,-2.951868276143074
1761316104244987100,6.406987060546875,-8.190730468133092,-4.445364958912134,-2.963313799265027
1761316104254970400,6.416970458984375,-6.391662692570686,-3.975601082783937,-3.222378284688294
1761316104264952000,6.4269521484375,-4.324350807568431,-3.425574167895317,-3.3129493669733403
1761316104274935300,6.436935302734375,-2.3053958339780567,-2.7766107856974003,-2.9920410043165084
1761316104284917000,6.4469169921875,-0.9474643904745578,-1.9704224133506416,-2.006949770759046
1761316104294900200,6.456900146484375,0.18293664677143096,-0.7118994385823607,-0.686463968552649
1761316104304882200,6.466882080078125,1.609738797405362,0.4234191813215613,0.3604651508890092
1761316104314865200,6.476865234375,2.849110496979952,0.8993529782563447,0.9893902459256351
1761316104324847000,6.48684716796875,3.9704789174646136,1.0364727534875273,1.2101387369580565
1761316104334830300,6.496830322265625,5.2086786506503815,1.2445659072168171,1.2672615770190954
1761316104344812000,6.50681201171875,6.717026281070709,1.4852375345982611,1.2873105317048728
1761316104354795300,6.516795166015625,8.189002036905288,1.618440136385709,1.428368230906874
1761316104364777200,6.526777099609375,9.2584467934072,1.9108333293065427,1.833231180318445
1761316104374760200,6.53676025390625,9.912668242263793,2.383965658954531,2.387813420423865
1761316104384742100,6.5467421875,10.22603276541233,2.676891643577814,2.9182787257522342
1761316104394725400,6.556725341796875,10.339116708278656,2.831485700701177,3.2670442326277493
1761316104404708000,6.5667080078125,10.43951886422634,2.986256283435225,3.23393866636157
1761316104414690300,6.576690185546875,10.720793135631084,3.147089234948158,2.8441443990051747
1761316104424673300,6.58667333984375,11.137475409913062,3.2884812806710597,2.4589038494303823
1761316104434655200,6.5966552734375,11.65175647315979,3.2606422566309567,2.2187505468346176
1761316104444638200,6.60663818359375,12.375315077614783,3.1251424838170405,2.045127379592508
1761316104454620200,6.6166201171875,13.027583054316043,3.0882395710945127,1.9832244656480849
1761316104464603100,6.62660302734375,13.483105639123917,3.0467656971946355,1.9784043520152568
1761316104474585300,6.63658544921875,13.426450270444153,3.055787792561948,2.0369608781412243
1761316104484568000,6.646568115234375,12.751647805851697,3.1690459229514003,2.086471343502402
1761316104494550300,6.65655029296875,11.840172428125141,3.283801598422229,1.9618537608392534
1761316104504533200,6.666533203125,10.883253980606794,3.378105729755759,1.8498546906001865
1761316104514515200,6.67651513671875,10.096911879980563,3.48630160831958,1.5645948566906154
1761316104524498200,6.686498291015625,9.747801505190134,3.577696866469085,1.1056358676932752
1761316104534480100,6.696480224609375,9.466048510357737,3.5668174527972933,0.9004857816785573
1761316104544462800,6.706462890625,8.929963027060031,3.5942172086372968,0.9890871713258326
1761316104554445000,6.716445068359375,8.248723222896457,3.8182273318141697,1.0785418168015777
1761316104564428000,6.726427978515625,7.401658065760135,3.9642607736021276,1.0696857256509362
1761316104574410000,6.736409912109375,6.34227000837028,4.016154626968503,1.1609355839803814
1761316104584393000,6.74639306640625,5.34447185345292,3.8165862866088744,1.2271131065040826
1761316104594375000,6.756375,4.445277865150571,3.2243905012935397,1.1494409610196947
1761316104604358000,6.76635791015625,2.8542525360435245,2.352955165271461,1.0803025428637862
1761316104614340000,6.776340087890625,0.4157505463898182,1.1319406679034232,0.8062164293974637
1761316104624323000,6.786322998046875,-2.7319939375966786,-0.25902590697854755,0.5584137080270797
1761316104634305000,6.796304931640625,-6.025745559886097,-1.882460344520211,0.5262332207165659
1761316104644288000,6.8062880859375,-9.29619580156505,-3.736108143793046,0.6576360796056687
1761316104654270000,6.81627001953125,-12.378742713975905,-5.019519768363237,0.609020517257601
1761316104664253000,6.8262529296875,-14.947597176682947,-5.28951101373136,-0.5719771731510758
1761316104674235100,6.836235107421875,-17.61544392853975,-5.161490783017873,-2.1293967313848436
1761316104684217900,6.8462177734375,-20.348511632847785,-5.241791231179237,-2.976450344213843
1761316104694200000,6.856199951171875,-21.847529709386823,-5.310792871212959,-2.587181562036276
1761316104704183000,6.86618310546875,-22.108626285159588,-5.287503765562176,-1.7540435157045722
1761316104714166000,6.876166015625,-22.808970018243787,-5.1335553128659726,-1.423714852143079
1761316104724148000,6.88614794921875,-23.74732638863325,-4.600112745292485,-1.5524264261215925
1761316104734131200,6.896131103515625,-22.795011635518073,-4.1086245286121965,-1.8188643629223107
1761316104744113000,6.90611279296875,-19.574342785096167,-4.280429832777381,-1.7175424617812036
1761316104754096000,6.91609619140625,-15.639890874302386,-4.64700776745826,-1.1095903044074773
1761316104764077800,6.926077880859375,-11.880152556335926,-4.686536644770205,-0.7363014008458704
1761316104774061000,6.93606103515625,-8.602848795500398,-4.516723391205072,-0.8235824286095798
1761316104784043000,6.94604296875,-6.006400223425031,-4.120027966158092,-1.028383335860446
1761316104794026000,6.95602587890625,-3.748486856111884,-3.4564772556811567,-1.1585441587992011
1761316104804008000,6.966008056640625,-1.6541308968394994,-2.61228590041548,-1.1701928032778204
1761316104813991200,6.9759912109375,0.1735451335698366,-1.752646800649166,-1.1291230531994252
1761316104823972900,6.985972900390625,1.6541642145872115,-1.0516095323428511,-1.0496904008485377
1761316104833956000,6.9959560546875,2.710290055310726,-0.402324663105607,-0.74980926332511
1761316104843938000,7.00593798828125,3.680795714154839,0.20484715754538774,-0.5101184636745602
1761316104853921000,7.015921142578125,4.743644725653529,0.5934498770296573,-0.5837864515515044
1761316104863903000,7.025903076171875,5.7014954855859274,0.8240598368629812,-0.5725985199198127
1761316104873886200,7.03588623046875,6.482534219107031,1.221589959168434,-0.4582848160628229
1761316104883868000,7.045867919921875,7.383362530612946,1.7443062578052282,-0.29794699112307277
1761316104893851100,7.05585107421875,8.566834648311138,2.014892838717997,-0.24139168528430163
1761316104903832800,7.065832763671875,9.85157635244131,1.987812816351652,-0.23235833787061272
1761316104913816000,7.075816162109375,10.964195064759254,2.0083821416497227,-0.07848726125955581
1761316104923798000,7.085798095703125,11.902662494307755,2.057159908822179,0.20400131783839315
1761316104933781000,7.095781005859375,12.722857764697075,1.9446449980154632,0.4216039485931396
1761316104943763000,7.105762939453125,13.19068219719529,1.7851862574651836,0.4965481669509783
1761316104953746200,7.11574609375,13.102849599963426,1.8003487552836537,0.6790180364608764
1761316104963728000,7.125727783203125,12.529529487770795,2.006533883434534,0.8737230085678398
1761316104973711000,7.135711181640625,11.630387521916628,2.1120134887769817,0.7267552085392177
1761316104983693000,7.145693115234375,10.680473984724282,2.055458365601301,0.38332854194100946
1761316104993676000,7.155676025390625,10.052672925281524,2.037903127427399,-0.0024628464495763183
1761316105003658000,7.165657958984375,9.479965392029285,1.9501821738764642,-0.42929008264895524
1761316105013641200,7.17564111328125,8.930088699266314,1.8553478811889885,-0.7233600862082094
1761316105023623000,7.185622802734375,8.465361648261547,1.805459814687073,-0.8523324300147592
1761316105033606100,7.195606201171875,8.1017147985965,1.8576070582926272,-0.7593491720214486
1761316105043587800,7.205587890625,7.865949063435196,1.9072084168076513,-0.5052455238759518
1761316105053571000,7.215571044921875,7.636698993778229,1.9502169529289006,-0.2151198740283027
1761316105063553000,7.225552978515625,7.215510055726766,2.098215557309985,0.13519419572977348
1761316105073536000,7.235535888671875,6.978374201256036,2.310731057526171,0.65309712100178
1761316105083519000,7.24551904296875,7.583353772559762,2.5049580368578432,1.0230415364410728
1761316105093501200,7.255501220703125,8.138538508602977,2.5003806459397078,1.1487788438491522
1761316105103484000,7.26548388671875,7.022441306519508,2.0913404108434914,1.393253662905842
1761316105113466000,7.275466064453125,5.301784804370999,1.7246537550911307,1.0442810891509056
1761316105123449000,7.285448974609375,3.7532039477616546,1.509763634698093,0.23218789494084194
1761316105133431000,7.29543115234375,1.9542326183110474,1.0514365138635038,-0.5256585626337676
1761316105143414000,7.3054140625,-0.6339806248605251,0.06442892529070376,-1.315564858547598
1761316105153396200,7.315396240234375,-3.7891707486778494,-1.1893848488733172,-1.8622711045809088
1761316105163379000,7.32537890625,-6.822749339780211,-2.357689792577922,-1.7351916618488727
1761316105173361200,7.335361083984375,-9.180849174463749,-3.3058801592394707,-0.6010169147504493
1761316105183344000,7.34534423828125,-11.185233186388015,-4.091074551135302,1.4086486543059349
1761316105193326000,7.355326171875,-12.70078388005495,-4.624482047395408,2.962092148515582
1761316105203309000,7.36530908203125,-13.591274921941757,-4.843769525964558,3.6330119264557954
1761316105213291000,7.375291015625,-14.6486516395092,-4.736207561390102,3.714954004344344
1761316105223274000,7.38527392578125,-15.93990842462182,-4.217732553584874,3.583286649300158
1761316105233256200,7.395256103515625,-17.003450679081677,-3.7059251869753003,2.4614541184350847
1761316105243239000,7.405239013671875,-17.825784130543468,-3.716526075966656,0.26047935718987136
1761316105253221000,7.41522119140625,-18.40408320019245,-3.7273546362340446,-2.09414991530627
1761316105263204000,7.4252041015625,-18.000583063566683,-3.6793893544882534,-4.085881950928271
1761316105273186000,7.43518603515625,-16.03210038610697,-3.8510216401740904,-4.7681060899540775
1761316105283169000,7.4451689453125,-12.890664646875857,-4.250852732898295,-4.057558650502562
1761316105293151000,7.45515087890625,-9.952531466096639,-4.574752094064652,-2.7717688986241815
1761316105303134000,7.465134033203125,-7.6044304628580806,-4.378498577341437,-1.6949886846676467
1761316105313116200,7.4751162109375,-5.8360021557092665,-3.612496084910631,-0.7034052395466714
1761316105323099000,7.485098876953125,-4.314308136981725,-2.530599843114614,-0.24747845785208045
1761316105333081000,7.4950810546875,-2.636308873298764,-1.5746064014866947,-0.1503415873106569
1761316105343064000,7.50506396484375,-1.1027847160458564,-0.8499389590069651,-0.1649910210404545
1761316105353046000,7.5150458984375,0.16883330261707305,-0.28482699545025825,-0.27926157987546174
1761316105363029000,7.525029052734375,1.2730372378110886,0.1911804512426257,-0.5213612672986463
1761316105373011200,7.53501123046875,2.1553876433402297,0.5671899388745427,-0.8016200415179133
1761316105382994000,7.544993896484375,2.9353672231972214,0.6657032123357057,-1.0831269526347518
1761316105392976100,7.55497607421875,3.75934902638793,0.6531432982310652,-1.3799287557780742
1761316105402959000,7.564958984375,4.569087784692645,0.7664915911220014,-1.6194436143398283
1761316105412941000,7.574941162109375,5.323955719646811,0.8207219246119261,-1.623417194145918
1761316105422924000,7.584924072265625,5.858935872051119,0.6107043786913157,-1.2933886825747787
1761316105432906000,7.594906005859375,5.804914943528175,0.2593294199697673,-0.6348743588298559
1761316105442889000,7.604888916015625,5.763039795351028,0.29942645255848765,0.07889143987996504
1761316105452871200,7.61487109375,6.180329387876391,0.4265523647807538,0.5302515164472162
1761316105462854000,7.62485400390625,6.895426453456282,0.46929172857180235,0.6918768604468554
1761316105472836000,7.634836181640625,7.33333447111845,0.42491205022782086,0.7705007536981254
1761316105482819000,7.644819091796875,7.443983880314231,0.3969204659745097,0.7652412987999617
1761316105492801000,7.654801025390625,7.703679941639304,0.4577291549414396,0.6089617728076875
1761316105502784000,7.664783935546875,8.079716317278146,0.48776905002668497,0.3536974103197455
1761316105512766200,7.67476611328125,8.536126790836454,0.431993240660429,0.010017901471629738
1761316105522749000,7.6847490234375,9.106162474530935,0.35196474130824207,-0.30713717306628824
1761316105532732000,7.69473193359375,9.561973228630423,0.49805795045942064,-0.33134127467013896
1761316105542713900,7.7047138671875,9.799904617393016,0.5992530103504657,-0.33145880010258405
1761316105552696800,7.71469677734375,9.636073068585992,0.6087136432655156,-0.33095457690749314
1761316105562679000,7.724678955078125,9.565631166616082,0.7705668777368962,-0.21958580392859875
1761316105572661800,7.734661865234375,9.822759423279761,1.0639286234289407,-0.11075756401168182
1761316105582644000,7.74464404296875,10.003153399831056,1.2880103505373,-0.13428279823958872
1761316105592627000,7.754626953125,9.91506010583639,1.38222154289037,-0.377470646225661
1761316105602609000,7.76460888671875,9.291543007323146,1.2342743764355777,-0.6583391133084893
1761316105612591900,7.774591796875,8.342177751663327,1.175119592155516,-0.7862088296353816
1761316105622573800,7.78457373046875,7.22227238946855,1.4807662344031034,-0.737060256389156
1761316105632556800,7.794556884765625,5.715639746272563,1.749351266235113,-0.6846199481211602
1761316105642539000,7.8045390625,4.290454383185506,1.9149048165291547,-0.6001517858210951
1761316105652522000,7.81452197265625,3.7075709083557125,2.137245691319555,-0.5095865487549454
1761316105662504000,7.82450390625,3.6098733351916072,2.226117714601755,-0.503534920565784
1761316105672487000,7.83448681640625,2.753936889335513,2.060737621178478,0.05565532479174435
1761316105682468900,7.84446875,0.7781699000865221,1.2771499338269232,1.5119007928572594
1761316105692451800,7.854451904296875,-1.4641905087858438,-0.11258213082402944,3.053068304470181
1761316105702434000,7.86443408203125,-3.6340918306469914,-1.9245874216318128,4.035879902657866
1761316105712416800,7.874416748046875,-5.409155045765638,-3.6099753342613576,3.8379239659309383
1761316105722399000,7.88439892578125,-7.312698510324955,-4.571265713253617,2.5484680927604435
1761316105732382000,7.8943818359375,-10.37486139087677,-4.2933202940106385,0.9504585307892411
1761316105742364000,7.904364013671875,-15.267546923440694,-2.9577064807772633,-0.0050440585818141695
1761316105752347000,7.914346923828125,-19.826250676763056,-1.0836949617810547,-0.45434557691775257
1761316105762328800,7.924328857421875,-21.957662985754013,0.7214313831679523,-0.6941153600886464
1761316105772311800,7.934311767578125,-21.397578787231446,1.4396091713674366,-1.073420601330325
1761316105782294000,7.9442939453125,-20.022970349693296,0.996865404111892,-1.1653097074113785
1761316105792276700,7.95427685546875,-18.321515976142884,0.6061535835191607,-0.9943908306919038
1761316105802259000,7.964259033203125,-15.864495748502016,0.2977814618304372,-1.153014873983711
1761316105812242000,7.974241943359375,-12.963381508040428,-0.4670040560260415,-1.3636767091572284
1761316105822224000,7.984223876953125,-9.602890929952263,-1.2620838821202516,-1.1642922739971429
1761316105832206800,7.994206787109375,-6.32037381838262,-1.8495055849015711,-0.3923840646538883
1761316105842189000,8.00418896484375,-3.8154859241515395,-2.1707260822474956,0.3403837552383542
1761316105852171800,8.014171875,-2.3931501052767037,-2.0069354499727488,0.806996327728778
1761316105862154000,8.024154052734374,-1.7967156594783067,-1.277775079987943,1.016785325590521
1761316105872137000,8.034136962890624,-1.5723445940345524,-0.40386619345918295,1.0690513732701539
1761316105882119000,8.044118896484376,-1.767132422119379,0.2347264552414417,1.1751100206095724
1761316105892102000,8.054101806640626,-2.0012252556324004,0.653923708019033,1.2156259361974895
1761316105902083800,8.064083740234375,-1.9166718262016773,0.951683250278607,0.6929026963632553
1761316105912066800,8.07406689453125,-0.9420943878740071,0.8890369706209749,-0.44973304162099953
1761316105922049000,8.084049072265625,0.4862099840164184,0.6402892965506762,-1.5534598608225583
1761316105932031700,8.09403173828125,1.9589824431866407,0.5701610636398196,-2.0298925471901894
1761316105942014000,8.104013916015624,3.3173189603596924,0.5566775318842381,-1.8339144864074886
1761316105951997000,8.113996826171874,4.519165523660183,0.5669193052396178,-1.3429323195531964
1761316105961979000,8.123978759765626,5.655509394958615,0.6411090885009616,-0.7859453563936054
1761316105971961900,8.1339619140625,6.896584975841641,0.703635906497389,-0.3324517931953072
1761316105981944000,8.143944091796875,8.053112387990952,0.6880375014796852,0.06558072567433118
1761316105991926800,8.1539267578125,9.044213091096282,0.577336946618557,0.32624365927018223
1761316106001909000,8.163908935546875,9.843715702068804,0.38675007735490796,0.20159465855546294
1761316106011892000,8.17389208984375,10.397746591901779,0.10647153898924588,-0.26728973132446404
1761316106021874000,8.1838740234375,10.818511167061327,-0.16209259618520735,-0.9834206699967384
1761316106031857000,8.19385693359375,11.153877094137668,-0.3879750891052186,-1.7383435500085354
1761316106041838800,8.2038388671875,11.18477842835784,-0.49177638597190376,-2.0568103647321463
1761316106051821800,8.21382177734375,10.955227329927682,-0.4111801697343588,-1.922729811066389
1761316106061804000,8.223803955078125,10.558291374123096,-0.2856519019670784,-1.582216876490414
1761316106071787000,8.233787109375,10.116563505911827,-0.1541397374846041,-1.1609536310937254
1761316106081769000,8.24376904296875,9.676001758870482,-0.030004823771864173,-0.7393867265753448
1761316106091752000,8.253751953125,9.39218657081127,0.049521717407554386,-0.312263576169312
1761316106101734000,8.26373388671875,9.036544748425483,0.2069869460530579,0.05995207213759422
1761316106111716900,8.273716796875,8.705165260636806,0.3345417512118816,0.16836422380059957
1761316106121698800,8.28369873046875,8.519600603449344,0.3903830270297825,-0.022175153059512377
1761316106131681800,8.293681884765626,8.361051963481307,0.39195816739201544,-0.35388080406263467
1761316106141664000,8.3036640625,8.07394591718316,0.45617403445392846,-0.6245280291214584
1761316106151647000,8.31364697265625,7.389877027073502,0.7098131338275968,-0.6906785175077617
1761316106161629000,8.32362890625,6.310450390261411,1.0094124587349593,-0.6653985303007066
1761316106171612000,8.33361181640625,5.2369548970639705,1.1656319251030682,-0.5057188404761255
1761316106181593900,8.34359375,3.7221979841232296,1.054887092708796,0.0892933174341917
1761316106191576800,8.353576904296874,1.7679998526036738,0.6626242432817816,0.8987352847494184
1761316106201559000,8.36355908203125,-0.8784171577334403,0.12370908951610327,1.1507222330018878
1761316106211542000,8.3735419921875,-4.43688705342412,-0.5525989573337138,0.6693471217960119
1761316106221524000,8.38352392578125,-8.02541949442327,-1.8962227662824094,0.8552982940830289
1761316106231507000,8.3935068359375,-10.386897865629196,-3.4249913995712995,1.6749658873364328
1761316106241489000,8.403489013671875,-11.583282071870565,-3.882437061396241,2.8312241271555423
1761316106251472000,8.413471923828125,-13.040262503147124,-3.4782185473680496,3.86754665851742
1761316106261453800,8.423453857421874,-14.981720395559071,-2.2927860893823206,4.111140018564463
1761316106271437000,8.43343701171875,-16.838214524173736,-1.0131342557370662,4.090850971512496
1761316106281419000,8.4434189453125,-17.80262420423031,-0.33626886726543304,3.4430838133618233
1761316106291402000,8.453402099609375,-17.929746024799346,-0.3490383324675262,1.8286454599633812
1761316106301384000,8.463384033203125,-17.884300616919994,-0.39590997375771403,-0.19620017910078166
1761316106311367000,8.473366943359375,-17.131209628510476,-0.2492886490792036,-1.581284564076364
1761316106321348900,8.483348876953125,-15.328784943735599,-0.3863255683325231,-1.8766328074105083
1761316106331332000,8.49333203125,-12.607519905424118,-0.7698080221936107,-1.6589646006062626
1761316106341314000,8.50331396484375,-9.401729475182295,-1.1357065963082016,-1.389834355981648
1761316106351297000,8.513297119140624,-6.299628551995754,-1.3146570960529147,-1.1051645969197152
1761316106361280000,8.523280029296876,-4.039135105061531,-1.4101102512910961,-1.0005218807928264
1761316106371262000,8.533261962890625,-2.9379473028182983,-1.1702253903731703,-0.7490945391844958
1761316106381245000,8.543244873046875,-3.1706156564861536,-0.3058407035149634,0.15963040732275693
1761316106391227000,8.553226806640625,-3.757634039163589,0.5410571342304349,0.9578365852765739
1761316106401208800,8.563208740234375,-3.972992361590266,0.7850605363830924,1.1092568346694112
1761316106411192000,8.573192138671875,-3.7407740897774695,0.630958865886554,0.5081478942539542
1761316106421174000,8.583174072265624,-2.802262821087241,0.4434153829067945,-0.40804088532794264
1761316106431157000,8.593156982421876,-1.492570215573907,0.30598705318309366,-1.3771676205016672
1761316106441139000,8.603138916015626,0.11937515196502207,0.16050795734226703,-2.1451921202793716
1761316106451122000,8.613121826171875,1.9225111998796462,0.02869147615097463,-2.2937357913225886
1761316106461105000,8.62310498046875,3.7775241500258443,-0.09223419319167733,-1.7711534943290055
1761316106471087000,8.633087158203125,5.511045978966355,-0.05820230586081743,-0.9503384846061468
1761316106481070000,8.643070068359375,6.95283527085185,0.05117949455194175,-0.19375179956797509
1761316106491052000,8.653052001953125,8.036499106842278,0.07715995817855,0.5342540666194633
1761316106501034000,8.663033935546874,8.784077469310164,-0.09702369249053298,1.0377117937631903
1761316106511017000,8.673016845703126,9.479008529695868,-0.2724536899589002,1.113726819690317
1761316106520999000,8.6829990234375,10.007954662632942,-0.34428076267689467,0.8889333641160279
1761316106530982100,8.692982177734375,10.286109925234317,-0.4587352632440626,0.30888913130015133
1761316106540965000,8.702965087890625,10.492366657316683,-0.5916283606909215,-0.4388812466084957
1761316106550947000,8.712947021484375,10.432333921158314,-0.5952675939761102,-0.9682160866022109
1761316106560930000,8.722929931640625,10.213449178171157,-0.511096441861242,-1.2271879253059625
1761316106570912000,8.732912109375,10.009961910802126,-0.42615752024427056,-1.2954285178393126
1761316106580895200,8.742895263671874,9.937788654994964,-0.3713954179652035,-1.2887737361252307
1761316106590877200,8.752877197265626,9.992199459618329,-0.31706045505702496,-1.1578916131746024
1761316106600860200,8.762860107421876,10.032755926412344,-0.22529753263890742,-1.083807701440528
1761316106610842000,8.772842041015625,10.034856698083876,-0.1548281581401825,-1.2642939593851565
1761316106620825000,8.7828251953125,10.010561630260943,-0.04053454722315073,-1.4197409800760448
1761316106630807000,8.79280712890625,9.825172329640388,0.0059051323905587195,-1.6101204901993273
1761316106640790000,8.8027900390625,9.319316564911603,0.05625394827201962,-1.8965122507482766
1761316106650772000,8.81277197265625,8.500306120392679,0.30510347528159615,-1.9383140414282678
1761316106660755200,8.822755126953124,7.6364909039855,0.3828169756896794,-1.9164223814852535
1761316106670737200,8.832737060546876,7.012578084152937,0.3919296719498932,-1.8102239603489636
1761316106680720100,8.84272021484375,6.231106804433464,0.461467756947875,-1.1512544401824474
1761316106690702000,8.8527021484375,4.645775303053855,0.23658596550300717,0.019662293455749748
1761316106700685000,8.86268505859375,1.8809037627279757,-0.5495132662780583,0.8303117368645966
1761316106710667000,8.8726669921875,-1.4370675240606068,-1.2738413938008248,0.7306659522421658
1761316106720650200,8.882650146484375,-4.564073755922913,-2.197810488528013,0.2653537948258221
1761316106730632200,8.892632080078124,-6.710804630076884,-3.032399025928974,0.4968165720961988
1761316106740615200,8.902615234375,-8.46485194517374,-3.223783767572045,1.52177482887879
1761316106750597000,8.91259716796875,-10.703727434539795,-2.7670430391460656,2.581125622998178
1761316106760580000,8.922580078125,-14.091603447681665,-1.4294899284131823,3.6877421722918746
1761316106770562000,8.93256201171875,-17.749883963167665,0.09556991348564624,4.723414715312421
1761316106780545000,8.942544921875,-20.054384894132614,0.648366439218074,4.841527592256665
1761316106790527200,8.95252734375,-20.394929685151578,0.5528454794406891,3.9991871255546805
1761316106800510200,8.96251025390625,-19.574436308598518,0.5455334028616547,2.5265859312981367
1761316106810492200,8.9724921875,-19.343173730075357,0.71345324389562,1.0009319228984415
1761316106820475100,8.98247509765625,-18.848226312851903,0.8457301091402769,0.06813844733312725
1761316106830457000,8.99245703125,-16.450416983592508,0.5424976884275674,-0.061431350909918546
1761316106840440000,9.002440185546876,-12.677549134939909,-0.09458689379766583,0.31475802333354946
1761316106850422000,9.012422119140625,-8.841095826083421,-0.5469777564510703,0.5031016437150537
1761316106860405200,9.0224052734375,-5.523455963206291,-0.947836292526871,0.3946212491214275
1761316106870387200,9.03238720703125,-2.829712553548813,-1.1456355773873625,0.20740853246599433
1761316106880370200,9.0423701171875,-1.1964566869556903,-0.9094723673410713,0.43136371058523654
1761316106890352000,9.05235205078125,-0.41214229276478287,-0.42607787913680073,0.9539451307959854
1761316106900335000,9.062335205078124,-0.06586217296421527,-0.09394055871814488,1.252558513405919
1761316106910317000,9.072317138671876,-0.09098317021727562,0.049329190510138864,0.9194662303499876
1761316106920300000,9.082300048828126,0.08595978909730911,0.11467713034190237,-0.04886617610827088
1761316106930282200,9.0922822265625,0.776877522188425,0.055518400539085265,-1.1072679989397525
1761316106940265200,9.10226513671875,2.0258938329428435,-0.04872055709250271,-2.0376992754183707
1761316106950247200,9.1122470703125,3.6302445075690746,-0.05897869706079364,-2.434017245455086
1761316106960230100,9.122230224609375,5.179954660469293,-0.09022665276154876,-2.243832673382014
1761316106970212000,9.132212158203124,6.467573381340503,-0.09084880324788391,-1.7690563759192823
1761316106980195000,9.142195068359374,7.458776960298419,-0.08041779093071817,-1.2167474145080894
1761316106990177300,9.15217724609375,8.244581300786137,-0.14742672277726232,-0.5842687917083501
1761316107000160000,9.162159912109376,8.713016558659076,-0.19471220556534827,0.042636707134172315
1761316107010142200,9.17214208984375,8.642161399713158,-0.15426467903852462,0.3585675005741417
1761316107020125200,9.182125244140625,8.413656010943651,-0.06785743843466042,0.37334406781494617
1761316107030107100,9.192107177734375,8.261123854786158,-0.0415449663747102,0.09444266302138567
1761316107040090000,9.202090087890625,8.040287977731227,-0.10201996640786529,-0.29133287021294235
1761316107050072300,9.212072265625,7.961008104789257,-0.33550212067663665,-0.7129268088687211
1761316107060055000,9.222054931640624,8.097284707194566,-0.5433888651136308,-1.0814902913436293
1761316107070037200,9.232037353515626,8.187045642140507,-0.6020888913635164,-1.2801339180737734
1761316107080020200,9.242020263671876,8.001723561537265,-0.45268641153387723,-1.0922378222640603
1761316107090002200,9.252002197265625,7.812671646755933,-0.2891959312494844,-0.6837145237140357
1761316107099985200,9.261985107421875,7.9840844444721935,-0.1339255092345178,-0.4072835276219994
1761316107109967000,9.271967041015625,8.37286748895943,-0.08388422493226826,-0.20000008284039794
1761316107119950000,9.2819501953125,8.73785230922997,-0.21583777650669217,-0.014061185513064265
1761316107129932300,9.291932373046874,8.82153363200128,-0.30164917010925707,-0.012639993603527544
1761316107139915000,9.3019150390625,8.35946031037569,-0.2619072345685214,-0.09768566353060304
1761316107149897200,9.311897216796876,7.625640424147248,-0.19961283708848057,-0.10876973292902112
1761316107159880200,9.321880126953126,7.052604974114894,-0.24406485001631079,-0.16959069685563444
1761316107169862100,9.331862060546875,6.61737815836072,-0.3036016924165189,-0.25605069056004287
1761316107179845000,9.34184521484375,6.1468210860282175,-0.273975054307282,-0.38292175123840566
1761316107189827300,9.351827392578125,5.428952217647433,-0.1740919537976384,-0.6049754796504974
1761316107199810000,9.36181005859375,4.498177096167207,-0.08097951646670698,-0.7081409628316759
1761316107209792300,9.371792236328124,2.970006574901938,-0.5160753993175924,-0.4387798320606351
1761316107219775200,9.381775146484374,1.048928038173914,-1.2203884744241833,0.15238558729365467
1761316107229757200,9.391757080078126,-0.6404939522773027,-1.6394870160676538,0.6067844287686049
1761316107239740200,9.401740234375,-2.2440432473927734,-1.80735381174013,0.2551546185031533
1761316107249722000,9.41172216796875,-4.495307678210735,-2.0680673795446753,-0.06295008490979671
1761316107259705000,9.421705078125,-6.7376330157697195,-2.2751262217901647,0.03122705904319882
1761316107269687300,9.431687255859375,-7.822119858580828,-2.257445749801397,0.15114450119137762
1761316107279670000,9.441669921875,-7.834606999710202,-1.5956528427772223,0.49763534113317726
1761316107289652200,9.45165234375,-7.754644405201077,-0.6731298552051186,0.7655711152762175
1761316107299635200,9.46163525390625,-8.19444393569827,-0.37904856306686996,0.644621699731797
1761316107309617200,9.4716171875,-8.54948662314713,-0.2218206503085792,0.29953721945658324
1761316107319600000,9.48160009765625,-8.499196113324166,0.3572638706296682,-0.16336904586181045
1761316107329582300,9.491582275390625,-9.010511312502622,1.1930141452863812,-0.2564097331307828
1761316107339565000,9.50156494140625,-10.504802945041655,1.9262652917161582,-0.11792436863481998
1761316107349547300,9.51154736328125,-12.778057673871517,2.6439149643883106,0.39148426626995203
1761316107359530200,9.5215302734375,-15.05598857781887,3.479525246052444,1.3104741112798453
1761316107369512200,9.53151220703125,-16.12404100317955,3.669106153143942,1.8118398711130022
1761316107379495200,9.5414951171875,-15.875432153058052,3.1543098338514564,1.6507142202638088
1761316107389477000,9.55147705078125,-14.477258131015299,2.494287005239725,1.3807505935549735
1761316107399460000,9.561460205078125,-12.448313678330182,1.750672724097222,1.251211044319719
1761316107409442300,9.5714423828125,-10.411062000548839,0.9893611659616232,0.975965093293786
1761316107419425000,9.581425048828125,-8.381461129781604,0.3226568868245929,0.713042544202879
1761316107429407200,9.5914072265625,-6.2866112495124336,-0.39139315392039714,0.011803542779386042
1761316107439389000,9.601388916015624,-3.9664299343347547,-0.7969926739782095,-0.8381630348868667
1761316107449372200,9.6113720703125,-1.484130888530612,-0.8848341851688921,-1.3881765057720243
1761316107459354000,9.62135400390625,0.6354828461170197,-0.8516395523797721,-1.5977312564864754
1761316107469337000,9.631337158203126,1.9835726945638656,-0.720762763191387,-1.3969330820709467
1761316107479319000,9.641319091796875,2.882413047122955,-0.5939366011006757,-0.9892078020308166
1761316107489302300,9.65130224609375,3.4041742369920014,-0.45652577050104737,-0.49398313876856115
1761316107499284000,9.661283935546875,3.657659168717265,-0.27519487842582163,-0.20898327096942812
1761316107509267200,9.67126708984375,3.7662978226125237,-0.10965729288589209,-0.1611031832890585
1761316107519249200,9.681249267578124,3.76749901509583,-0.023301914900005792,-0.05002941120136529
1761316107529232600,9.691232666015624,3.9767900003075596,0.0779533644454088,0.2714132409952581
1761316107539214800,9.70121484375,4.362458127644658,0.04550822114960756,0.46335302270520473
1761316107549197600,9.711197509765626,4.904159697258472,-0.06701416514408774,0.4914343310685828
1761316107559179800,9.7211796875,5.62959637054503,-0.2049637696623802,0.4404942712957039
1761316107569162800,9.731162841796875,6.36395927760899,-0.37873072928935286,0.3294463277690112
1761316107579144700,9.741144775390625,6.922192295306921,-0.6120661320311949,0.17117241308912634
1761316107589127700,9.751127685546875,7.268565354087948,-0.6013123540330678,0.14080971579030155
1761316107599109600,9.761109619140624,7.484047010633349,-0.5121851138807832,0.09476349247358738
1761316107609092600,9.771092529296874,7.57690415802896,-0.5727754473892972,-0.020824322972446678
1761316107619074800,9.78107470703125,7.557969740456342,-0.590389174284786,-0.20242292607314882
1761316107629057500,9.7910576171875,7.732148495754599,-0.5998512685045599,-0.5613191471450031
1761316107639039700,9.801039794921875,8.18645936668515,-0.7054032084308565,-0.8548717392340301
1761316107649022700,9.811022705078125,8.460976565045117,-0.7101131396874785,-0.9246539351861923
1761316107659004700,9.821004638671875,8.488957043382525,-0.6580993862684815,-0.786935025018081
1761316107668987600,9.830987548828125,8.318997367084027,-0.5562427206635475,-0.4589472254943102
1761316107678969900,9.840969970703124,8.066365837317704,-0.4198215221557766,-0.29244229275956746
1761316107688952600,9.85095263671875,7.556020944476127,-0.4099960745163262,-0.227342847796157
1761316107698934800,9.860934814453126,7.15722094836533,-0.4915921154461801,-0.3371333751402795
1761316107708917800,9.870917724609376,6.729841338980197,-0.5199227223955094,-0.4723009933903813
1761316107718899700,9.880899658203125,6.2958677381575106,-0.5240649367667735,-0.585732288389653
1761316107728882700,9.890882568359375,5.872161848849058,-0.7759522240370511,-0.4973293439239263
1761316107738864600,9.90086474609375,4.726682484936714,-1.046035969994217,-0.14038352626748382
1761316107748847600,9.91084765625,3.1331711842328307,-1.3775455139033495,0.1470619811180979
1761316107758829800,9.920829833984374,1.4525608612686394,-1.489414674152434,0.4902064332414418
