time,seconds_elapsed,z,y,x
1761316481867243800,0.077243896484375,-0.07487433145940303,-0.0006310644451528787,0.0015040935531724243
1761316481877226800,0.087226806640625,-0.07831482730209827,0.0050734673393890255,-0.00009419022263027727
1761316481887210000,0.0972099609375,-0.0652946022093296,0.004805783713376149,0.0031054300858755594
1761316481897191700,0.107191650390625,-0.06604454379379748,0.004877013185527176,0.0013246156502864322
1761316481907175000,0.1171748046875,-0.07038344978094101,0.0058682709788903595,0.0018342981884954495
1761316481917156900,0.127156982421875,-0.06903612682521343,-0.008682095423759893,0.0035857746484573
1761316481927139800,0.137139892578125,-0.06903554230332375,0.002006353120040148,0.00474157992034452
1761316481937121800,0.147121826171875,-0.07472235576808452,-0.0010636745756026358,0.009783069802448153
1761316481947105000,0.15710498046875,-0.07936170600652694,-0.008643343449104576,0.014089475459209643
1761316481957087700,0.167087646484375,-0.07502104645371437,0.0001204480418935418,0.00679294807575643
1761316481967070000,0.177070068359375,-0.07666530652940273,-0.007288065515784546,0.013279702579439617
1761316481977053000,0.187052978515625,-0.07875964846014977,-0.0005922211389523,0.006167352106876205
1761316481987035000,0.197034912109375,-0.0778606537938118,-0.0032185236550867557,0.01021750428051455
1761316481997017900,0.207017822265625,-0.07351999424099921,-0.004462349703721702,0.009073556126491166
1761316482007000800,0.217000732421875,-0.06349369026720524,0.001783759877923876,0.0005886866081506013
1761316482016982800,0.226982666015625,-0.07815759091377258,0.005060854452988132,0.0030901914175483396
1761316482026965800,0.2369658203125,-0.08025543997585773,0.003000588321778923,0.0024409474283107555
1761316482036947700,0.24694775390625,-0.07202478724718094,0.0035515824011992663,0.002671856407623272
1761316482046930700,0.2569306640625,-0.07187573416531086,-0.0006331559375394136,0.015475096015154849
1761316482056913000,0.266912841796875,-0.07472001768052577,-0.012988131187763064,0.017326728930941317
1761316482066896000,0.276895751953125,-0.07846329586207866,-0.013150774403568356,0.0043828455935698
1761316482076878800,0.28687890625,-0.07502104645371437,-0.008511634227680042,0.0059772751781623805
1761316482086860800,0.29686083984375,-0.06948387059271335,-0.015417385894991456,0.002082044138177298
1761316482096844000,0.306843994140625,-0.08190203813910484,-0.004435562161495909,0.0053610224263626145
1761316482106825700,0.31682568359375,-0.08370002747178078,0.005563634609663859,0.0016997051735292187
1761316482116809000,0.32680908203125,-0.0675426733970642,0.007377040707180276,0.0019254995863069778
1761316482126790700,0.336790771484375,-0.07382803727686404,0.010889268345525487,-0.0021029179628472773
1761316482136774000,0.34677392578125,-0.07861585607528686,0.0020202629143837836,0.005196803741401527
1761316482146756900,0.3567568359375,-0.07053834808170795,-0.0015861458134371787,0.010004343303735367
1761316482156738800,0.36673876953125,-0.07727320929467678,-0.0021132475606165826,0.010967030306451488
1761316482166721800,0.3767216796875,-0.08445639879703522,-0.011520789448404683,0.011074118826561606
1761316482176704000,0.3867041015625,-0.08071487418115139,-0.011263408020697533,0.00022898873357335105
1761316482186686700,0.396686767578125,-0.07847089464664458,-0.00791468211468309,-0.001185417242150288
1761316482196669000,0.4066689453125,-0.06380582495629787,-0.007769282294623554,0.0026459433649433776
1761316482206652000,0.41665185546875,-0.08206278165876865,-0.0006623728988692164,0.0017984893728862515
1761316482216634600,0.426634521484375,-0.07802315087914466,-0.0009268690539523959,-0.004937611665809527
1761316482226616800,0.436616943359375,-0.07158990296125411,0.0006322152226231992,-0.002336788367514964
1761316482236599800,0.446599853515625,-0.08445932140648364,0.0015953885658178478,0.004575861114752479
1761316482246581800,0.456581787109375,-0.06635434039533138,-0.005101981047820299,0.008370474474609363
1761316482256564700,0.466564697265625,-0.06770107882916927,0.0006051445526070893,0.0005811494723777286
1761316482266547000,0.476546875,-0.06845160493552685,0.004925875562243163,0.002833919668116141
1761316482276529700,0.48652978515625,-0.07772855184674263,-0.006627948506083339,0.005079737249971367
1761316482286513000,0.496512939453125,-0.07548340326845646,0.0039272838457953185,0.005913064535264857
1761316482296494800,0.506494873046875,-0.07682897265851497,-0.0053849535745102905,-0.0012216507494449615
1761316482306477800,0.516477783203125,-0.07997077781558036,-0.0037885877611581235,0.002178392068564426
1761316482316459800,0.526459716796875,-0.07742752307355404,0.005689124152855947,0.00560689607936656
1761316482326443000,0.536443115234375,-0.08116670960187912,-0.008471713209245354,0.010277865298779216
1761316482336424700,0.5464248046875,-0.07817278848290443,-0.01379134646258317,0.01016182628723327
1761316482346408000,0.556407958984375,-0.07428279530704021,-0.009837503403425216,0.01083139382858062
1761316482356391000,0.566390869140625,-0.0747317081183195,-0.005329624924389645,0.0020059078787569885
1761316482366372900,0.576372802734375,-0.07607786203026771,-0.000021535978373140095,0.006935306555358693
1761316482376355800,0.58635595703125,-0.07398118201196194,0.0021088179806713014,0.00014018707211362196
1761316482386337800,0.596337890625,-0.07248480597436428,0.00716407380993478,-0.017256695902033242
1761316482396320800,0.60632080078125,-0.08535422441959381,0.014055349427321924,-0.011091944460908417
1761316482406303000,0.616302978515625,-0.08086626535058021,0.011533667196286842,-0.00981442163864849
1761316482416285700,0.62628564453125,-0.07069149281680584,0.006929671399015933,-0.005064726910507306
1761316482426269000,0.63626904296875,-0.07847089464664458,0.008963853240897879,0.0077786186618381175
1761316482436251000,0.6462509765625,-0.07966799547672271,-0.001543630979117006,0.016736617550684604
1761316482446233900,0.65623388671875,-0.07428045721948147,-0.008341072566900401,0.012168405452847945
1761316482456215800,0.6662158203125,-0.07772153758406639,-0.01852973662870936,0.0189020040072035
1761316482466199000,0.676198974609375,-0.07338321611881256,-0.01338776149721816,0.012281750183808617
1761316482476180700,0.6861806640625,-0.06904489465355873,-0.010430153800640255,0.009479741757607553
1761316482486164000,0.6961640625,-0.0742833798289299,-0.014818634550552814,0.004322767703095451
1761316482496147000,0.70614697265625,-0.0742833798289299,-0.017821661424590275,-0.002984564202162437
1761316482506129000,0.71612890625,-0.07099310611188411,-0.00727593668657355,-0.007932213204796425
1761316482516112000,0.72611181640625,-0.08012333802878856,0.0018254892609547823,-0.021563240839401258
1761316482526094000,0.736093994140625,-0.07907704384624957,0.010528015551390126,-0.007679628966504242
1761316482536076800,0.746076904296875,-0.07563596348166465,0.011753694021981209,0.0020113649385864844
1761316482546059000,0.75605908203125,-0.07204524551331996,0.01586380535508506,0.005433409525849856
1761316482556042000,0.7660419921875,-0.0680044456899166,0.016141434986377132,0.007963768253684975
1761316482566024700,0.776024658203125,-0.07458908477723598,0.010343608028348534,0.01320930422435049
1761316482576007000,0.7860068359375,-0.07608487629294396,-0.0038782662054523825,0.008199008631531614
1761316482585990000,0.795989990234375,-0.07473872238099574,-0.01218454145360738,0.013127642406441736
1761316482595971800,0.805971923828125,-0.08057166631817818,-0.02492236027526669,0.0025928797371452673
1761316482605954800,0.815954833984375,-0.07832651773989201,-0.019747597119025885,-0.0028143267683684824
1761316482615936800,0.825936767578125,-0.07398819627463817,-0.01849934149044566,0.0009101690809009596
1761316482625919700,0.835919677734375,-0.06964987480938434,-0.00676374938073568,0.004264708239771426
1761316482635903000,0.845903076171875,-0.07518821971416473,0.0033777236716356126,-0.007815833983244374
1761316482645884700,0.855884765625,-0.07503858211040497,0.009560668356576934,0.004138383012940176
1761316482655868000,0.865867919921875,-0.05932721823751926,0.0066010148333851245,0.003889445186592638
1761316482665849900,0.875849853515625,-0.06845335850119591,0.005458950392482802,0.011765624205081258
1761316482675832800,0.885832763671875,-0.07069675351381302,-0.0003012571020517498,0.012234881118068005
1761316482685814800,0.895814697265625,-0.07443769360780715,-0.0007031159012112766,0.010552184161555487
1761316482695798000,0.905798095703125,-0.07488835998475551,-0.011522661745082586,0.008426800921862014
1761316482705780700,0.91578076171875,-0.07892974433004855,-0.019218513477314264,0.0021551504735834895
1761316482715763000,0.925762939453125,-0.07264554949402809,-0.012183929532254114,-0.006681656021275557
1761316482725746000,0.935745849609375,-0.07549275561869144,-0.0073134282859042285,-0.008698372988414485
1761316482735727900,0.945727783203125,-0.07579319986999035,-0.00021514972117729484,-0.006380090675258543
1761316482745710800,0.9557109375,-0.0793850868821144,0.002782251129671931,0.0007902050961973145
1761316482755693000,0.965693115234375,-0.07220248190164566,0.004541698550246656,-0.00035762921507703137
1761316482765675800,0.97567578125,-0.07848959934711455,-0.007724392840126529,0.009522731515963096
1761316482775658800,0.98565869140625,-0.0668196198195219,-0.0020826971587259322,0.01139622692039702
1761316482785641000,0.995640869140625,-0.0734030898630619,-0.00884136850554496,0.010883637755759991
1761316482795623700,1.005623779296875,-0.07146013910174369,-0.006769064876670018,0.0061805152658373115
1761316482805606000,1.01560595703125,-0.0731067372649908,0.004491657996596768,0.004115817271394189
1761316482815588900,1.0255888671875,-0.07879471977353096,0.00011187200979329645,0.004265785952005535
1761316482825570800,1.03557080078125,-0.07744739681780338,0.00217823908822611,-0.0070933261116850185
1761316482835553800,1.0455537109375,-0.07953998518288136,0.005584092875802889,-0.005512918202579021
1761316482845537000,1.055537109375,-0.06771919900774956,-0.007235531610948965,-0.008487141390528995
1761316482855518700,1.065518798828125,-0.07804360914528369,0.010395201218267902,-0.0009634039553464389
1761316482865502000,1.075501953125,-0.07774199585020541,0.004848170683532953,0.0002313039882457815
1761316482875483600,1.085483642578125,-0.07280278588235378,-0.0016307978059165178,0.004905182117375079
1761316482885467000,1.095466796875,-0.07429857739806175,-0.0007770761865656822,0.006666577183152549
1761316482895448800,1.10544873046875,-0.07205518238544463,0.006626395869813859,-0.0003063899348955601
1761316482905432000,1.11543212890625,-0.0813327138185501,-0.010105534089310093,0.00021227734407875686
1761316482915415000,1.1254150390625,-0.0645715486317873,0.0035529432412236927,-0.00037789111839374526
1761316482925397000,1.13539697265625,-0.07324936060607433,0.0015176654207985846,-0.0018707508914987555
1761316482935380000,1.1453798828125,-0.07758885111510753,-0.004629778692498803,0.0007757678621797822
1761316482945362000,1.15536181640625,-0.07055471469461917,0.00023900552080012856,-0.0014706616410287096
1761316482955345000,1.165344970703125,-0.07669044097065925,-0.010664063021214679,-0.0032500513045117256
1761316482965327000,1.1753271484375,-0.0729500853985548,-0.01108944882643409,0.0010118073910474776
1761316482975310000,1.18531005859375,-0.07609247507750988,-0.0058678508537821465,0.005256431824015453
1761316482985292800,1.195292724609375,-0.07609364412128924,-0.00388793821609579,0.014438549191784113
1761316482995275000,1.20527490234375,-0.07564356226623058,0.004285248704301193,-0.0019903016009600832
1761316483005258000,1.215258056640625,-0.07429565478861332,0.0001861976213287562,0.00536673749780748
1761316483015240000,1.225239990234375,-0.07324585347473621,-0.00595954772522673,0.010288672103872522
1761316483025223000,1.235222900390625,-0.07264671853780746,-0.0011214874437544494,0.007041776304249651
1761316483035204900,1.245204833984375,-0.07264613401591777,-0.0041351909754332155,0.0056525321692461146
1761316483045187800,1.255187744140625,-0.07354454416036606,-0.004549178603803739,0.0069788306032540276
1761316483055170000,1.265170166015625,-0.06591361089050769,0.004715904339682311,0.0032873237081337717
1761316483065152800,1.27515283203125,-0.07249649641215801,0.00056049256012775,0.0049040427563479165
1761316483075136000,1.285135986328125,-0.07803191870748996,-0.0049115091101732105,-0.0030712287054629993
1761316483085118000,1.295117919921875,-0.06995090358257293,0.0014599986831191926,-0.00021588037353940308
1761316483095101000,1.305100830078125,-0.07997720755636692,-0.0018816490281373262,0.0005155300403945148
1761316483105083000,1.315082763671875,-0.08162439024150371,-0.0010640855675563216,0.007866614322410896
1761316483115066000,1.325066162109375,-0.07788403466939926,-0.011238090916350483,0.008358370761573313
1761316483125047800,1.3350478515625,-0.07234627428650856,-0.0061730169459711754,0.0006596603519748896
1761316483135031000,1.345031005859375,-0.07309446230530739,-0.001521245617372915,0.0017716630147537216
1761316483145014000,1.355013916015625,-0.07758359041810035,0.004047795819770545,0.008462054898333736
1761316483154996000,1.364995849609375,-0.06950491338074206,0.006408962860004976,-0.0009415551664307712
1761316483164979000,1.37497900390625,-0.0828232446372509,0.0021233031637500972,0.002934377518040128
1761316483174961200,1.384961181640625,-0.07519114232361317,0.000042578766401857136,0.0009722014664439484
1761316483184943900,1.39494384765625,-0.07504325828552245,-0.0029678824954200533,0.001957682539569214
1761316483194926000,1.404926025390625,-0.06876140153706073,0.0080527936774306,0.005385396532504819
1761316483204909000,1.414908935546875,-0.08492401630878448,-0.003920653175609186,-0.0026203591158264314
1761316483214892000,1.42489208984375,-0.07265431732237339,-0.007194752075988799,0.012508245566196273
1761316483224874000,1.4348740234375,-0.07669394810199737,-0.011716841743467375,0.00865369816304883
1761316483234857000,1.44485693359375,-0.08731821796894072,-0.007078788412967696,0.004532857656665146
1761316483244839000,1.4548388671875,-0.06711772598326206,-0.003297890767920762,0.010362559323990717
1761316483254822000,1.46482177734375,-0.06382511417865752,-0.006478840625286102,-0.01168982130580116
1761316483264803800,1.474803955078125,-0.07639350385069847,0.0066229892031755295,-0.004019261561741587
1761316483274787000,1.484787109375,-0.07774082680642605,0.001419529675412923,-0.0018986549618653951
1761316483284770000,1.49477001953125,-0.0789367585927248,-0.0043583778725937005,-0.005919108400272671
1761316483294752000,1.504751953125,-0.07833937722146511,0.007529235594207421,-0.0003329468649695627
1761316483304735000,1.51473486328125,-0.06547054329812527,0.006734833813505247,0.001682875053025782
1761316483314717000,1.524717041015625,-0.08043488819599151,0.004112330689653754,0.004413147116999607
1761316483324700000,1.534699951171875,-0.0799865599066019,-0.004121993567142635,0.0019111057347734458
1761316483334682000,1.54468212890625,-0.06382569870054722,-0.0027838768311776218,0.0068548571637133135
1761316483344665000,1.5546650390625,-0.07370236507058144,-0.009111234955489635,0.010809764235373586
1761316483354647000,1.56464697265625,-0.08013970464169978,-0.017907595275528727,0.0012747280769748613
1761316483364630000,1.574630126953125,-0.07969196087419986,-0.008012041541934013,0.00273949426675681
1761316483374613000,1.584613037109375,-0.08223580013811588,-0.01133703951248899,0.01189823532551527
1761316483384595000,1.594594970703125,-0.06817044990658759,-0.001586154946591705,0.008847396387532352
1761316483394578000,1.604577880859375,-0.0743050071388483,-0.0018133421654347329,0.007241093702055513
1761316483404560100,1.61456005859375,-0.07265840897560119,-0.0018148126033134756,-0.004840284204599447
1761316483414542800,1.62454296875,-0.07834639148414134,0.0008049597073346376,-0.004350683189905248
1761316483424525000,1.634525146484375,-0.07685235353410244,0.005423349356139078,0.0024447445373050867
1761316483434508000,1.644508056640625,-0.07984685917496681,0.0037484201475512235,0.007290211807098239
1761316483444491000,1.654490966796875,-0.07311375152766704,-0.0011264284803532063,0.005284077882766723
1761316483454473000,1.664472900390625,-0.06488309879899025,-0.01009875728865154,0.0029444605206372216
1761316483464456200,1.674456298828125,-0.06922317382991314,-0.009891197218885645,-0.001840677696932107
1761316483474438000,1.68443798828125,-0.07521101606786251,-0.00750304170702584,-0.009363862576265819
1761316483484421000,1.694421142578125,-0.07431202140152454,0.0014115746978204697,0.0005488112554885447
1761316483494402800,1.70440283203125,-0.0666805036097765,0.0029546576876658946,0.0017014199232915416
1761316483504386000,1.714385986328125,-0.07221709494888782,0.0026658125426154583,0.009665731599670834
1761316483514368000,1.724367919921875,-0.06982230876684188,-0.00007978723794221877,0.0026990526585141195
1761316483524351000,1.73435107421875,-0.06293956351578235,0.002988158098468557,0.005906036572856828
1761316483534334000,1.744333984375,-0.08209025418758392,0.0022095018761698155,0.007978997788857668
1761316483544316200,1.754316162109375,-0.08089198431372642,0.0042391171407885845,0.007251573996874503
1761316483554299000,1.764298828125,-0.07700140661597252,-0.002783027447806671,-0.008892358907265589
1761316483564281000,1.774281005859375,-0.07266308515071869,-0.0019456907076761125,-0.007629229936539195
1761316483574264000,1.78426416015625,-0.07296236035823822,-0.00402802254022099,-0.0011351049771532416
1761316483584246000,1.79424609375,-0.07580664387345314,0.0015947309786919503,-0.0017463048112113027
1761316483594229000,1.80422900390625,-0.0759562814772129,-0.0024705182993784544,-0.004999913479411043
1761316483604212000,1.8142119140625,-0.07670330045223235,0.004872373543027788,0.008903318692697212
1761316483614194000,1.82419384765625,-0.07490881825089454,-0.003295379150426015,0.0045415798192378135
1761316483624177000,1.834177001953125,-0.08762801457047462,-0.0024299122943542894,0.0053708839499624446
1761316483634159000,1.8441591796875,-0.08343640809953212,0.0008737506272271275,0.00865355431586504
1761316483644141800,1.854141845703125,-0.06712649381160736,0.0009594287498388439,0.012896658078604377
1761316483654124000,1.8641240234375,-0.07056582061052322,-0.0023685192296281454,0.01077247813201975
1761316483664107000,1.87410693359375,-0.07430559166073798,0.0003825147778727114,0.007196163148363121
1761316483674089000,1.8840888671875,-0.07744739681780338,-0.00202891201172024,0.004176979723968543
1761316483684072000,1.894072021484375,-0.07684884640276432,-0.004140214210422709,-0.0019874931559432296
1761316483694055200,1.90405517578125,-0.06248305191993713,-0.0033095994720235464,-0.00938972766988445
1761316483704036900,1.914036865234375,-0.06682195790708065,-0.0037808976450469343,0.001724777965992689
1761316483714020000,1.92402001953125,-0.06802139682471751,-0.007959745099116117,-0.0034445783627685155
1761316483724001800,1.934001708984375,-0.06742050832211971,-0.010042643187241629,-0.0038144985205493865
1761316483733985000,1.943985107421875,-0.0696650723785162,-0.00463714914820157,0.0013936508820625022
1761316483743967000,1.953967041015625,-0.07535188584327697,0.007643811017740518,0.016042541189165784
1761316483753950000,1.963949951171875,-0.0802916803330183,0.006891540478868409,0.004701789049361832
1761316483763933000,1.973932861328125,-0.07984276752173901,0.004214978213375434,-0.0010882884270511568
1761316483773915100,1.9839150390625,-0.07146481527686119,0.006437001644400879,0.006290816373052075
1761316483783897900,1.99389794921875,-0.06652852791845798,-0.00109934867718257,0.010251066340110264
1761316483793880000,2.003880126953125,-0.08044599411189556,0.0025604890046175568,0.015208433019160292
1761316483803863000,2.013863037109375,-0.07745382655858993,-0.01371070984127,0.005785551998345181
1761316483813845000,2.023844970703125,-0.08418576516211032,-0.009453435989283025,0.0013084385503316298
1761316483823828000,2.033827880859375,-0.07386193954646587,-0.0035606516236439344,-0.0012358802041970193
1761316483833811000,2.04381103515625,-0.07895254068374634,0.0005229461618699134,0.005633539774408563
1761316483843793000,2.05379296875,-0.06757949827611447,0.011279427573736756,-0.006643315038573927
1761316483853776000,2.06377587890625,-0.07491232538223266,-0.00019970555687323212,-0.005067571888142265
1761316483863758000,2.073758056640625,-0.07805413053929805,0.0032394020463339984,0.0027801413709763437
1761316483873740800,2.08374072265625,-0.0702747287094593,0.0031794702863320707,-0.002813979708496481
1761316483883723000,2.093722900390625,-0.0822480750977993,-0.002212168757291511,0.00703278928019572
1761316483893706200,2.103706298828125,-0.07970482035577296,-0.00005836999057792127,0.005716108057904057
1761316483903689500,2.113689453125,-0.06953297043144703,0.0037354784675873815,0.003395505923498422
1761316483913671200,2.123671142578125,-0.0834504366248846,0.0003812087367754429,0.004555626610899344
1761316483923654400,2.133654296875,-0.08390285656750202,-0.0056592039386276155,0.005320405004895292
1761316483933636000,2.143635986328125,-0.07657002946138382,-0.0010781871581450103,-0.00007817523616831749
1761316483943619300,2.153619384765625,-0.07313128718435764,0.0016149061170406638,-0.0058219750185962765
1761316483953601300,2.163601318359375,-0.08046469881236552,0.0019441380714066325,-0.006354355729091912
1761316483963584500,2.17358447265625,-0.07851999448537826,0.00467924385741353,-0.00038066074750386176
1761316483973566200,2.183566162109375,-0.07298574123382567,-0.004137291600974277,-0.0017260337747400625
1761316483983549400,2.193549560546875,-0.08271277000010013,0.0068195529548916965,0.0059153204244328655
1761316483993532400,2.203532470703125,-0.06984218251109123,0.005037555775791406,0.004469820624124259
1761316484003514400,2.213514404296875,-0.0626584084868431,0.008862548290891573,0.005571114663220942
1761316484013497300,2.223497314453125,-0.07687339632213115,0.0022862203741911796,0.0027003723993431774
1761316484023479300,2.233479248046875,-0.08121054874360562,0.0027355167779605834,-0.00444397379681468
1761316484033462300,2.243462158203125,-0.0865963334351778,0.0025260296125896274,-0.0007844329425366595
1761316484043444500,2.253444580078125,-0.07118366024792194,-0.0010426226544193924,-0.011431142970151267
1761316484053427200,2.26342724609375,-0.07507014629244804,-0.00020861038253642617,-0.009048120291135274
1761316484063409400,2.273409423828125,-0.07566811218559742,-0.00444019267084077,-0.006852601274545304
1761316484073392400,2.283392333984375,-0.07102817742526531,-0.0037309484229423105,-0.010175361622241325
1761316484083375000,2.293375,-0.07850888856947422,-0.0013874997024890035,-0.004094178545032628
1761316484093357300,2.303357421875,-0.07791092267632484,0.0006180679662618786,0.0016715065589291043
1761316484103340300,2.31334033203125,-0.07372048524916172,0.0022178130467887967,0.00780523267412791
1761316484113322200,2.323322265625,-0.0651899727910757,-0.0008105491979047655,0.012125794720405246
1761316484123305200,2.33330517578125,-0.07461947991549968,0.006030612800596281,0.011963939239177853
1761316484133287200,2.343287109375,-0.07267477558851242,0.002303171508992091,0.007072481969767249
1761316484143270100,2.353270263671875,-0.07312485744357108,0.0028233320587314663,0.006165810887049883
1761316484153253400,2.36325341796875,-0.07432371183931827,-0.007564909695787355,-0.005425427148793824
1761316484163235000,2.373235107421875,-0.07073533195853234,-0.004273019410390407,-0.008047469048341735
1761316484173218300,2.38321826171875,-0.08255845622122288,0.00043408056832849976,-0.0043477697136113415
1761316484183200300,2.3932001953125,-0.07387947520315646,-0.002887775597069412,-0.0016613025420345365
1761316484193183500,2.40318359375,-0.07552548884451389,0.0020682393751107154,-0.004068318017991259
1761316484203165200,2.413165283203125,-0.06684650782644748,0.005059575811354443,0.0009645707158371805
1761316484213148400,2.4231484375,-0.07687339632213115,0.013934444727702066,0.0074683357198256995
1761316484223130000,2.433130126953125,-0.07837035688161849,0.0010772921090014278,0.01050604118159972
1761316484233113300,2.44311328125,-0.08330722876191139,-0.000025883359927684068,0.016172875870834102
1761316484243096300,2.453096435546875,-0.07118716737926006,0.008057004061667249,0.006821315653715282
1761316484253078300,2.463078369140625,-0.06969137586355209,0.0007367076435592025,0.0021967108932556584
1761316484263061200,2.473061279296875,-0.07358253808319568,0.0001351980864536017,0.0060369512098375705
1761316484273043500,2.48304345703125,-0.08196165937185287,-0.0005312299330253154,0.000211322929430753
1761316484283026200,2.493026123046875,-0.07148878067433834,-0.00403368509602733,-0.010359613881655969
1761316484293008400,2.50300830078125,-0.07238719081878661,-0.0022121230915188787,0.0015702997903339563
1761316484302991400,2.512991455078125,-0.07388356685638427,-0.00022220964962616562,0.003390985012007877
1761316484312974300,2.522974365234375,-0.07044307101368903,0.00286717120045796,0.004685678164777346
1761316484322956300,2.532956298828125,-0.07388298233449458,0.007418030304694548,0.005382090330566279
1761316484332939300,2.542939208984375,-0.07238309916555881,-0.0038743389490060506,0.014787641190667635
1761316484342921200,2.552921142578125,-0.07178337970674037,0.0035350239920429885,0.011718339580809697
1761316484352904200,2.562904296875,-0.07163140401542187,0.006129296535253524,-0.0029919026918243615
1761316484362886100,2.57288623046875,-0.07043488770723343,0.0006398322734981775,0.0013633059761486946
1761316484372869400,2.582869384765625,-0.07328034026622772,-0.0038764852403197435,-0.0038165215142769737
1761316484382852400,2.592852294921875,-0.0725315677255392,-0.0031040669625625014,-0.009883036745316348
1761316484392834300,2.602834228515625,-0.07552373527884483,-0.003136252199113369,-0.010966735762218013
1761316484402817300,2.6128173828125,-0.07432488088309765,0.004853924570884556,-0.005792739790957421
1761316484412799200,2.62279931640625,-0.07761457007825374,0.00939713009162806,-0.0031464447995647785
1761316484422782500,2.632782470703125,-0.07058101817965508,0.007590783922560513,0.0036803553134435786
1761316484432764400,2.642764404296875,-0.0723749158591032,0.0018079262048006056,0.008245996428281069
1761316484442747400,2.652747314453125,-0.07521803033053874,0.0019705602874513714,0.002393197013158351
1761316484452729300,2.662729248046875,-0.07177636544406414,0.001970039697643369,0.006168664997839368
1761316484462712300,2.67271240234375,-0.07177636544406414,-0.0013452771291136742,0.007310775104514323
1761316484472695300,2.6826953125,-0.07342121004164219,-0.001526908173179254,0.0021660691598197443
1761316484482677200,2.69267724609375,-0.08015490221083164,-0.00007349449447356164,0.00718648657114245
1761316484492660200,2.70266015625,-0.07357143216729163,0.0006761365627404302,0.00046339342778082935
1761316484502642400,2.712642333984375,-0.07851181117892266,-0.006633802858134731,-0.0015109023198718204
1761316484512625200,2.722625244140625,-0.08030980051159858,0.002288896388467401,-0.0013559492201777174
1761316484522607400,2.732607421875,-0.07387655259370804,0.008337401038780808,0.007242075516167097
1761316484532590300,2.74259033203125,-0.07073357839286327,0.008902240980463102,0.006490343833412043
1761316484542573300,2.7525732421875,-0.07043488770723343,0.006239853370795026,0.008531224844139068
1761316484552555300,2.76255517578125,-0.06490121897757054,0.00539216876658611,0.00494451633063145
1761316484562538500,2.77253857421875,-0.07013795058727264,0.004938104856153949,-0.0045423698371043425
1761316484572520200,2.782520263671875,-0.06879296571910382,0.0008739150240086018,0.006173459903965704
1761316484582503400,2.79250341796875,-0.07492869199514389,-0.002676708395965397,-0.0050008907269453624
1761316484592485000,2.802485107421875,-0.08031389216482639,0.0024865835181903093,-0.0008931540140183642
1761316484602468400,2.81246826171875,-0.06744447371959686,-0.006834102070052177,-0.0008830207790713756
1761316484612450300,2.8224501953125,-0.07283142745494842,-0.00008680150061845779,0.004850202810415066
1761316484622433300,2.832433349609375,-0.07732114008963108,0.005467882617609575,-0.0014597429547924547
1761316484632416300,2.842416259765625,-0.07747136221528053,0.010627356873173266,0.0025480542147299275
1761316484642398500,2.8523984375,-0.07343056239187717,0.0034522867451887576,0.013757512691640295
1761316484652381400,2.86238134765625,-0.07956511962413787,0.0026704795845784246,0.007572830424050335
1761316484662363400,2.87236328125,-0.07612520830333233,0.0038851069381926205,0.009594728173094336
1761316484672346400,2.882346435546875,-0.06729717420339584,-0.002210113797523081,0.005578946343227289
1761316484682328300,2.892328369140625,-0.07941840462982654,0.0010003635484259574,0.008087755392957478
1761316484692311300,2.902311279296875,-0.07642506803274154,-0.006033416679035872,-0.002845569006714504
1761316484702294300,2.912294189453125,-0.08016776169240475,-0.001270759721333161,0.0039261079521500505
1761316484712276200,2.922276123046875,-0.07732172461152076,-0.005790027244063094,0.0007293737204745411
1761316484722259200,2.93225927734375,-0.07343173143565654,-0.007261067911004647,-0.001670648042403627
1761316484732241400,2.942241455078125,-0.07687398084402083,0.005802311336901038,-0.00717226853283355
1761316484742224100,2.95222412109375,-0.08675064721405505,-0.0013386647252365946,-0.0012422003471292554
1761316484752206300,2.962206298828125,-0.07163608019053935,0.0018786350871436296,0.006707064457167871
1761316484762189300,2.972189208984375,-0.06550035391449928,0.005416864816425368,0.01598310490279691
1761316484772171300,2.982171142578125,-0.07088672312796115,-0.0018098533004056662,0.014513943382399155
1761316484782154200,2.992154296875,-0.06714344494640827,-0.0025943638747557996,0.009466393652267287
1761316484792137500,3.002137451171875,-0.05472410835623741,-0.0010944350400473922,0.00987885376054328
1761316484802119200,3.012119140625,-0.07268062080740928,-0.0018626064009498804,0.006521604338067118
1761316484812102400,3.022102294921875,-0.07717033344209194,-0.0010574640305247157,-0.008402518147265073
1761316484822084000,3.032083984375,-0.06894084975719451,0.002592144518205896,-0.010388070507871452
1761316484832067300,3.0420673828125,-0.07088555408418178,0.0020898758181836456,-0.0014234866146114653
1761316484842049300,3.05204931640625,-0.07447744109630584,0.00332076018685475,-0.0050605599087546575
1761316484852032500,3.062032470703125,-0.07447861014008522,0.0005159958312753588,0.005051988443231676
1761316484862015200,3.07201513671875,-0.07896890729665756,0.002259286701492965,0.002749734816269483
1761316484871997400,3.08199755859375,-0.07777122194468974,-0.0016568546957802027,0.007721977120754308
1761316484881980400,3.09198046875,-0.06684943043589592,-0.000040989597514271734,0.012690315001679118
1761316484891961900,3.1019619140625,-0.06984276703298091,0.006506605415046215,0.009860936794651207
1761316484901944800,3.11194482421875,-0.07507949864268303,0.0018103830233681946,0.011715031095582525
1761316484911926800,3.1219267578125,-0.0776250914722681,0.005530198130942881,0.0040429872139124195
1761316484921909800,3.13190966796875,-0.07897124538421631,0.005079285158822312,0.0019271983530488796
1761316484931892000,3.14189208984375,-0.07104220595061779,-0.0011202544678933918,0.008626106903224717
1761316484941874700,3.151874755859375,-0.07867430826425552,-0.006137854301044717,0.011037156950193456
1761316484951858000,3.16185791015625,-0.07463350844085216,-0.0031606925206258893,-0.0010506940797320567
1761316484961839900,3.17183984375,-0.07014496484994888,0.005569881687359884,-0.0023033838548348284
1761316484971822800,3.18182275390625,-0.07538286550343036,0.011268860513949767,0.00254094177064253
1761316484981804800,3.1918046875,-0.07747837647795677,0.00603910663430579,-0.0007864787691505625
1761316484991788000,3.2017880859375,-0.07882686847746372,0.007561393431294709,0.00322625030381605
1761316485001769700,3.211769775390625,-0.06879939545989036,0.0010190043168142437,-0.0030683951442711985
1761316485011753000,3.2217529296875,-0.07657996633350848,0.001430452928226441,-0.0034031321075279264
1761316485021736000,3.23173583984375,-0.07822597997486591,0.011443943086219951,0.0008334391664364375
1761316485031718000,3.2417177734375,-0.07762976764738559,-0.0026696302012074735,0.004562638590286951
1761316485041700900,3.251700927734375,-0.07703355531990527,0.001511537074111402,0.002754054798360448
1761316485051682800,3.261682861328125,-0.0734422528296709,-0.003277934825280681,0.00048483579132007433
1761316485061665800,3.271665771484375,-0.07658698059618473,0.0028418358298018575,0.005807478419074323
1761316485071648000,3.28164794921875,-0.07150047111213206,0.0030482725215610117,0.001851950292906258
1761316485081630700,3.291630615234375,-0.07539046428799628,0.005270195487886667,-0.0029715837062918578
1761316485091613000,3.301613037109375,-0.06910860753953456,0.007366583245247602,0.008740164020238445
1761316485101596000,3.311595947265625,-0.07479483648240566,0.008382153495959938,0.006985899664857425
1761316485111578600,3.32157861328125,-0.08392273031175136,-0.003741552015347406,0.010051568562502507
1761316485121560800,3.331560791015625,-0.06880991685390472,-0.0034329427239019423,0.008553779169241897
1761316485131543800,3.341543701171875,-0.07644143464565277,-0.0019824516546446827,0.009986944644362665
1761316485141525800,3.35152587890625,-0.07374561969041823,-0.01314310255376622,-0.0031642772837774825
1761316485151508700,3.3615087890625,-0.07583879257738589,0.0011125004197005183,0.00004814542408566922
1761316485161491000,3.371490966796875,-0.08017594499886035,0.00396421832269989,-0.0012113645341596565
1761316485171473700,3.3814736328125,-0.08286883734464645,0.005097277473239228,0.00262487089416245
1761316485181457000,3.391456787109375,-0.07837912470996379,0.008052994606830179,-0.0022960727646364827
1761316485191438800,3.40143896484375,-0.06865209594368935,0.006109970780275762,0.0022699359596706926
1761316485201421800,3.411421875,-0.07957681006193161,0.007225192880025133,0.004557250029116403
1761316485211403800,3.42140380859375,-0.07493862886726856,-0.000034842984518036244,-0.00015277027576230466
1761316485221387000,3.431386962890625,-0.06611001024544239,-0.0048024501119740305,0.005145144336111843
1761316485231368700,3.44136865234375,-0.07344166830778122,0.010914567183563486,0.009497724938869941
1761316485241352000,3.45135205078125,-0.08166998294889927,0.007634011142933741,0.008062319557601585
1761316485251333600,3.461333740234375,-0.08466390406787395,-0.0017232618623413145,0.004467911794828251
1761316485261316900,3.47131689453125,-0.0810714325338602,-0.00040380416107363995,-0.007683916982554364
1761316485271299800,3.4812998046875,-0.07478548413217068,0.0019148571779951452,-0.0005088719707448035
1761316485281281800,3.49128173828125,-0.07194120061695575,-0.008941677941707894,0.0024153905786573884
1761316485291264800,3.5012646484375,-0.07119242807626724,-0.0011758936452679336,-0.0021210449912934565
1761316485301247000,3.5112470703125,-0.06984685868620873,0.006515692903799936,0.009616181953076739
1761316485311229700,3.521229736328125,-0.08660627030730247,0.005618040811177343,0.01041022069088649
1761316485321212000,3.5312119140625,-0.077328738874197,0.005019627393456175,-0.0016066360456170514
1761316485331195000,3.54119482421875,-0.07583177831470966,0.003191389052988961,-0.0027911650884896513
1761316485341177600,3.551177490234375,-0.07179156301319599,0.004839430254651233,0.0038156355982879174
1761316485351159800,3.561159912109375,-0.06655541592538357,0.00642387730134651,0.010178581059211864
1761316485361142800,3.571142822265625,-0.08585925133228302,0.005243115684716031,0.010231692636071238
1761316485371124700,3.581124755859375,-0.07987257813811302,0.0017202661876566706,-0.0010963278863229788
1761316485381107700,3.591107666015625,-0.0625152006238699,-0.0018278730142861604,-0.0022921729076537303
1761316485391090000,3.60108984375,-0.07912497464120388,0.0015982746426481753,-0.0001059308927739039
1761316485401072600,3.61107275390625,-0.08151859177947043,0.002124417408602312,0.004230637006810866
1761316485411054800,3.621054931640625,-0.08825286847054958,-0.00158561609047465,0.006888257109816186
1761316485421037800,3.631037841796875,-0.07867430826425552,0.002665072757098824,0.003742860339733306
1761316485431020800,3.641020751953125,-0.07298866384327411,-0.007335503120394423,0.008044669736479408
1761316485441002800,3.651002685546875,-0.07239069795012473,-0.0011840495522599667,0.0012830232645734212
1761316485450986000,3.660986083984375,-0.06805003839731216,0.006409775710757821,0.0016488175197970122
1761316485460967700,3.6709677734375,-0.07463467748463154,0.004946571290399879,0.0019533968068077227
1761316485470951000,3.680950927734375,-0.07717851674854755,0.003005392361059785,-0.0021272053040214812
1761316485480932600,3.6909326171875,-0.07418518015146255,0.003023494273331016,-0.0007510855120723136
1761316485490915800,3.700915771484375,-0.0640092385739088,-0.00013458616510033606,-0.001660768252494745
1761316485500897800,3.710897705078125,-0.07163724923431873,-0.0028577549181412905,0.005185197785287164
1761316485510880800,3.720880859375,-0.07911620681285858,-0.0007792316110339016,-0.0004055074943928048
1761316485520863700,3.73086376953125,-0.07836918783783912,-0.004738627628143877,0.0023857329426216893
1761316485530846000,3.740845947265625,-0.0746276632219553,-0.00028700024783611294,0.002443943102995399
1761316485540828700,3.75082861328125,-0.07178396422863006,0.005366760330693796,0.004949884342204313
1761316485550811000,3.760810791015625,-0.07253332129120826,-0.0014470204705372453,0.009239067152817733
1761316485560793900,3.7707939453125,-0.08420622342824935,0.0020932185527402906,0.014635069561016279
1761316485570775800,3.78077587890625,-0.08450549863576888,0.008424768794979899,0.012014098523836583
1761316485580758800,3.7907587890625,-0.08884557366669177,0.00855638668485917,0.002325433573150076
1761316485590741800,3.80074169921875,-0.08091536518931389,0.006502532028127461,0.009810656495695002
1761316485600723700,3.8107236328125,-0.06819733791351318,0.0015204601660836487,0.005153565104585141
1761316485610706700,3.820706787109375,-0.06834756003916263,0.00689018877199851,-0.007597266178985591
1761316485620689000,3.83068896484375,-0.07373334473073483,0.0008363960252143442,-0.004853538695105817
1761316485630671600,3.840671630859375,-0.06864625072479248,-0.0022739910802803934,-0.0030330292866565284
1761316485640653800,3.85065380859375,-0.0798690710067749,-0.001833763898955658,-0.008801148376299533
1761316485650636800,3.86063671875,-0.07388298233449458,-0.0017512367146555333,0.0039492330994107755
1761316485660618800,3.87061865234375,-0.08136603156626224,0.004440420999703929,0.008480775581824126
1761316485670601700,3.880601806640625,-0.08884849627614021,0.0022365177472587674,0.008032600272772833
1761316485680585000,3.8905849609375,-0.07253916651010513,-0.0021833171221427618,0.002514519554597791
1761316485690566700,3.900566650390625,-0.07478256152272224,0.004490744681144133,0.0029973529017879624
1761316485700550000,3.9105498046875,-0.08555705351531505,-0.00010272058895789086,0.003910871567111462
1761316485710531600,3.920531494140625,-0.07268938863575458,0.0034541225092485544,0.003126781117869541
1761316485720514800,3.930514892578125,-0.06894961758553982,0.004423259802348912,0.010374925615219398
1761316485730496800,3.940496826171875,-0.07598316948413848,0.0011711809375323354,0.004543637062294874
1761316485740479700,3.950479736328125,-0.07942424984872341,-0.000007936711283400654,0.004959375973045826
1761316485750462700,3.960462646484375,-0.07149345684945584,0.005243106551561504,0.011892059029766823
1761316485760445000,3.97044482421875,-0.06939736135303974,0.004923327412130311,0.008695696974138262
1761316485770427600,3.980427734375,-0.07762684503793715,-0.006302342414064332,0.00707439536564052
1761316485780409900,3.990409912109375,-0.07567980262339115,0.010056936574075371,0.007754427218786441
1761316485790392800,4.000392822265625,-0.07492927651703357,0.001519071926595643,0.0006701703295460902
1761316485800374800,4.010374755859375,-0.07672551228404044,0.00019618929238058626,0.008576646304887253
1761316485810357800,4.020357666015625,-0.06610182693898678,0.0005146441244054586,0.00725076342941029
1761316485820340000,4.030340087890625,-0.08196282841563224,0.00406501181605272,0.0017808623846503906
1761316485830322700,4.04032275390625,-0.07089081478118896,0.0002291325807571411,0.0051378355292021295
1761316485840306000,4.050305908203125,-0.07029284888803959,0.0021983228950295595,0.006055311133724171
1761316485850287900,4.060287841796875,-0.07388298233449458,0.003735880326386541,0.007929066833062097
1761316485860270800,4.070270751953125,-0.07957096484303473,0.00236810823767446,-0.002795909762266092
1761316485870252800,4.080252685546875,-0.07912205203175544,0.002527134724287316,0.0004689715019077994
1761316485880236000,4.090236083984375,-0.0740349580258131,0.000010274798842146992,-0.005998797456803731
1761316485890217700,4.1002177734375,-0.08047054403126239,0.0020026541924569752,0.004569340042420662
1761316485900201000,4.110200927734375,-0.0746358465284109,0.006681687987316399,-0.0012172531355405226
1761316485910184000,4.120183837890625,-0.07209083822071552,0.005983102130750194,0.005035738278040662
1761316485920166000,4.130165771484375,-0.07014671841561794,-0.002639171130862087,0.001983737146144267
1761316485930148900,4.14014892578125,-0.08496084118783473,0.0029072931482922284,0.007536679115146398
1761316485940131000,4.150131103515625,-0.07882511491179466,0.004840946358302608,0.004312538570025936
1761316485950114000,4.160114013671875,-0.06909925518929957,0.00213912178738974,0.010491067374753766
1761316485960096000,4.170095947265625,-0.06820318313241004,0.006574811813049018,0.004994054560782388
1761316485970079000,4.180078857421875,-0.07239478960335254,0.0023450744219589976,0.005226274147769436
1761316485980061000,4.19006103515625,-0.07029986315071582,0.004723028200212866,0.00275575356510235
1761316485990044000,4.2000439453125,-0.07882920656502246,0.006679605628084391,-0.0015990760769578627
1761316486000027000,4.21002685546875,-0.07882979108691215,0.0038766405039466914,-0.0016685816661920398
1761316486010008800,4.2200087890625,-0.07344400639533996,0.003008342369971797,-0.008500067087472417
1761316486019991800,4.22999169921875,-0.07583762353360653,0.0041595216990914195,-0.0006890143106225877
1761316486029974000,4.23997412109375,-0.07508943551480769,0.012544533872418105,-0.003959553564025555
1761316486039957000,4.24995703125,-0.07359422852098942,0.007890716717205941,0.0010721615594462492
1761316486049939000,4.25993896484375,-0.0807750799357891,0.006141808956954628,0.003228645473590586
1761316486059922000,4.269921875,-0.07568798592984675,-0.0006729673581197858,0.012367821032064966
1761316486069904000,4.27990380859375,-0.0670072513461113,0.0004792257511522621,0.005406099110527429
1761316486079886800,4.289886962890625,-0.0755336721509695,-0.00016105404691770672,0.0023192801102879454
1761316486089870000,4.2998701171875,-0.07762976764738559,-0.0001147306871600449,0.007023263400024734
1761316486099851800,4.309851806640625,-0.07628127564787865,0.008323335980810224,0.0004345554923638701
1761316486109835000,4.3198349609375,-0.07657879728972912,0.004501485270867124,0.0030755601039971223
1761316486119817000,4.32981689453125,-0.06909691710174083,0.004788923910120502,0.0017226316746789961
1761316486129800000,4.339800048828125,-0.0656564212590456,0.0021917013579979537,0.008064141621929593
1761316486139782000,4.349781982421875,-0.07448562440276145,-0.002506667324993759,-0.0024750757434871045
1761316486149765000,4.35976513671875,-0.07673018845915794,-0.0010279730745591223,-0.004957190865825396
1761316486159747800,4.369747802734375,-0.06984510512053967,-0.006806693473318592,0.004398634534457232
1761316486169730000,4.37972998046875,-0.07927402772307396,0.005892291175294667,0.005928810093668289
1761316486179713000,4.389713134765625,-0.07957447197437285,0.0013499441710766403,0.006641214413032867
1761316486189695000,4.399695068359375,-0.07404080324470996,-0.0035877770925872026,0.00668558556101052
1761316486199678000,4.409677978515625,-0.07060206096768379,0.0012154128049034624,0.006455293069628533
1761316486209660000,4.419659912109375,-0.07224807460904122,0.004365602197824046,0.0026804050402599385
1761316486219643000,4.429642822265625,-0.08167524364590645,0.007536679115146398,0.002299881290073972
1761316486229625000,4.439625,-0.07598901470303535,0.01004401316042058,-0.0001489822999224998
1761316486239607800,4.44960791015625,-0.07075169857144355,0.005847748780669644,0.0011686853030580095
1761316486249590800,4.4595908203125,-0.06880699424445628,0.002904306606762111,0.002528938522306271
1761316486259573000,4.469572998046875,-0.07509235812425613,0.002469805913325399,0.006359655242005828
1761316486269556000,4.479555908203125,-0.07778583499193191,-0.002342672402318567,-0.0010417938206461258
1761316486279538000,4.489537841796875,-0.06880933233201503,0.0038471586811356243,-0.001147873127181083
1761316486289521000,4.49952099609375,-0.07793956424891949,0.004102950939955189,0.01214237596244784
1761316486299502800,4.5095029296875,-0.0819780259847641,-0.0024333280941471456,0.01339145585822407
1761316486309485800,4.51948583984375,-0.07793781068325042,-0.0001690638234373182,0.005267980697914026
1761316486319469000,4.529468994140625,-0.08003332165777682,-0.002982623406825587,0.004955508082103916
1761316486329450800,4.53945068359375,-0.06806055979132652,0.00421025637248531,0.00851140361552825
1761316486339434000,4.54943408203125,-0.08122866892218589,0.004506389774847776,0.0058380607870058155
1761316486349416000,4.559416015625,-0.07868307609260082,0.006125771137606352,0.002664661765145138
1761316486359399000,4.56939892578125,-0.07688625580370426,0.0008130516822449863,0.01200299489122117
1761316486369380900,4.579380859375,-0.0747884067416191,-0.0016399583599064499,0.009999671695195137
1761316486379364000,4.589364013671875,-0.07553776380419731,0.009508216650132089,-0.0020152282629511318
1761316486389345800,4.599345703125,-0.0707493604838848,0.0068473999430425465,0.0048667703527258705
1761316486399329000,4.6093291015625,-0.06955225965380668,0.004613457745360211,0.01556283823068952
1761316486409312000,4.61931201171875,-0.07553659476041794,0.0011238529307767747,0.004352014347177464
1761316486419294000,4.6292939453125,-0.0786754773080349,0.0016946568223647773,0.010298844154726247
1761316486429277000,4.63927685546875,-0.0818166979432106,0.004770767198922113,0.004832080348546151
1761316486439259000,4.6492587890625,-0.08121873205006122,-0.002712473829090595,-0.001704029722197447
1761316486449241900,4.659241943359375,-0.08256780857145786,0.0016131799508351831,0.0034063241450348865
1761316486459224000,4.66922412109375,-0.07194295418262481,0.0015376396297477185,-0.005784752847324125
1761316486469207000,4.67920703125,-0.08331365850269794,0.016101112109143285,0.004337111322279088
1761316486479189800,4.689189697265625,-0.07658055085539818,0.011611134612979367,0.0046451452249893915
1761316486489172000,4.699171875,-0.06879881093800068,0.011412515901494771,-0.0031637292945059015
1761316486499155000,4.709155029296875,-0.07044365553557873,0.0004345737586729228,0.0012262903919443488
1761316486509137000,4.719136962890625,-0.08091887232065201,0.00031266441205516455,-0.008251037929579616
1761316486519120000,4.729119873046875,-0.07852350161671638,0.0015577782354783266,-0.0018419791714521124
1761316486529101800,4.739101806640625,-0.08076923471689224,0.0008936883035581558,0.008169581607647705
1761316486539084800,4.749084716796875,-0.07044365553557873,-0.0003776285402011126,0.00014546375214122235
1761316486549067000,4.75906689453125,-0.07852350161671638,0.0010450886061415077,0.0048106882173568006
1761316486559049700,4.7690498046875,-0.08196633554697036,0.0009570541296619921,-0.0025749901707167737
1761316486569033000,4.779032958984375,-0.08451134385466576,-0.001979684308823198,-0.0044435285555315205
1761316486579015000,4.789014892578125,-0.06745207250416278,0.006373307024734094,-0.002400576602015644
1761316486588998000,4.798997802734375,-0.08047171307504176,-0.0006052541504614054,0.00910767759180162
1761316486598979800,4.808979736328125,-0.07867781539559364,0.0017746997886337339,0.00913619815009879
1761316486608963000,4.818963134765625,-0.06715571990609169,0.002970037919888273,0.00032154640483204275
1761316486618944800,4.82894482421875,-0.07149521041512488,0.0023602628579363224,0.01778422005760949
1761316486628928000,4.838927978515625,-0.08182137411832809,0.0026128493795171378,0.0015869198482832871
1761316486638909700,4.84890966796875,-0.0801741914331913,-0.002370519390469417,0.003115574737265706
1761316486648893000,4.858892822265625,-0.0746364310503006,0.0025364140092860904,0.00013337373883696272
1761316486658876000,4.8688759765625,-0.07702771010100841,0.0017714849182404577,0.007390107968018855
1761316486668857900,4.87885791015625,-0.0674509034603834,0.0032595041194465007,-0.0009728636201471089
1761316486678840800,4.8888408203125,-0.06715338181853293,-0.012306980523187667,0.003274169682327192
1761316486688823000,4.898822998046875,-0.07987257813811302,-0.0017859883676283061,0.0021684003975125958
1761316486698806000,4.908805908203125,-0.0734381611764431,0.0008015987064689397,0.004922601326345466
1761316486708788000,4.9187880859375,-0.07643325133919715,0.004702579067228362,0.004674003710004035
1761316486718771000,4.92877099609375,-0.08227028692960739,0.006416342448862269,0.0074667853668448515
1761316486728754000,4.93875390625,-0.0831675280302763,0.009962381025264038,0.008371723433490841
1761316486738735900,4.94873583984375,-0.07089607547819614,0.016949015909060835,-0.004959375973045826
1761316486748719000,4.958718994140625,-0.0714946258932352,0.004963714221445844,-0.002184929123916663
1761316486758700800,4.96870068359375,-0.06341477981209755,0.003941732496256008,0.004425995182129554
1761316486768684000,4.97868408203125,-0.07314005501270293,0.004477602071780711,0.0017901028537424281
1761316486778666000,4.988666015625,-0.07762859860360621,0.009231226339656859,0.007780764953151811
1761316486788649000,4.99864892578125,-0.07657879728972912,0.00838470164607279,-0.0009216403229860588
1761316486798631000,5.008630859375,-0.07403554254770278,0.019461090061534195,0.00001707899896427989
1761316486808614000,5.01861376953125,-0.06550503008961678,0.009078154669795184,0.013658687393087893
1761316486818596900,5.028596923828125,-0.07792612024545668,-0.003300986907305196,0.017844982934673317
1761316486828579000,5.0385791015625,-0.075978493309021,-0.00919160671532154,0.009835895968228578
1761316486838562000,5.04856201171875,-0.07732581626474856,-0.017973618849599735,0.0066804664278985
1761316486848544000,5.0585439453125,-0.060714873203635215,-0.01969574820077978,-0.005147541789175011
1761316486858527000,5.06852685546875,-0.07358312260508537,-0.02005366739351302,-0.009272519614559133
1761316486868509000,5.078509033203125,-0.06789864722788333,-0.01773748113932088,-0.00802608148372965
1761316486878492000,5.088491943359375,-0.06460720446705817,-0.0102340101740323,-0.0006385490652872249
1761316486888475000,5.098474853515625,-0.08047171307504176,0.0035712643492035565,0.0038175033283885567
1761316486898456800,5.108456787109375,-0.06969839012622833,0.012149013482499867,0.010999284041661303
1761316486908439800,5.118439697265625,-0.06984861225187779,0.01402358431587927,0.02096886655926937
1761316486918422000,5.128422119140625,-0.07987374718189238,0.015500013543991371,0.01686086726814974
1761316486928405000,5.138405029296875,-0.07508417481780051,0.02993711969736032,0.012719668960326816
1761316486938387000,5.148386962890625,-0.07478489961028098,0.022905887620011344,0.011489992451341823
1761316486948370000,5.158369873046875,-0.07029401793181896,0.011153910631081088,0.00568205509125255
1761316486958352000,5.168351806640625,-0.08286357664763927,0.013557638171408325,-0.0081320374926785
1761316486968334800,5.1783349609375,-0.07807575784921646,0.005058269770257175,-0.013296233589132315
1761316486978318000,5.188318115234375,-0.07762626051604747,-0.0017200561251025646,-0.01177794939711457
1761316486988299800,5.1982998046875,-0.07702771010100841,-0.011293583963252604,-0.006789087034680415
1761316486998283000,5.208282958984375,-0.06924597018361091,-0.014285714983940124,-0.004152094161172863
1761316487008265000,5.218264892578125,-0.07388415137827396,-0.01000825686044991,0.001725615932920482
1761316487018248000,5.228248046875,-0.07822247284352779,-0.009614362172037363,0.005552633725036867
1761316487028230000,5.23822998046875,-0.072535659378767,-0.005610990015882999,0.024670634553499986
1761316487038213000,5.248213134765625,-0.072535659378767,0.007401106569357216,0.01807196237425087
1761316487048195800,5.25819580078125,-0.07163724923431873,0.014848052441282197,0.014457973128173034
1761316487058178000,5.268177978515625,-0.07971709531545638,0.009103955831332132,0.020975657059659713
1761316487068161000,5.2781611328125,-0.08061725902557372,0.011767695147870108,0.010087365961668546
1761316487078143000,5.28814306640625,-0.06864683524668216,0.009345673899026586,-0.0005894012774922885
1761316487088126000,5.2981259765625,-0.062063365203142165,-0.0038229923542588947,-0.0018861539566074497
1761316487098108000,5.30810791015625,-0.07702537201344967,0.001126729874452576,-0.007143521928961854
1761316487108091000,5.3180908203125,-0.07478080795705318,-0.0015724186821840702,-0.016933818339928984
1761316487118073000,5.328072998046875,-0.07657762824594974,-0.0018102460260502992,-0.018723638065881093
1761316487128055800,5.338055908203125,-0.07777531359791755,0.00240972802285105,-0.00937821076202672
1761316487138038800,5.348038818359375,-0.07508359029591083,-0.001699515660572797,0.004369839981524274
1761316487148021000,5.35802099609375,-0.07358546069264411,-0.0033329438149929044,0.0072812316329102025
1761316487158004000,5.36800390625,-0.07238894438445567,-0.002997318652458489,0.020161577897530515
1761316487167986000,5.37798583984375,-0.08226561075448989,-0.0023606464504264293,0.022325902624835723
1761316487177969000,5.387968994140625,-0.07732698530852794,-0.003718801327422261,0.021620336754922753
1761316487187950800,5.397950927734375,-0.0768757344096899,-0.002213940589269623,0.01962058918889379
1761316487197933800,5.407933837890625,-0.07657587468028068,-0.004809774901904165,0.010914564900274853
1761316487207916000,5.417916015625,-0.07956745771169663,0.007515974253835156,0.0033994286133674904
1761316487217898800,5.427898681640625,-0.07193418635427952,0.009979523956310004,-0.012059074743301607
1761316487227882000,5.437882080078125,-0.07986264126598834,0.00385941537450999,-0.011661876136239152
1761316487237864000,5.447864013671875,-0.07103226907849311,-0.0008637315567117184,-0.00642078572853934
1761316487247847000,5.457846923828125,-0.07327566409111022,0.0037348391467705365,0.0025040986252832225
1761316487257828900,5.467828857421875,-0.07267886724174022,0.003577721489453688,0.014077951701486017
1761316487267812000,5.47781201171875,-0.07372633046805858,-0.004402536674728617,0.01873856849024305
1761316487277793800,5.487793701171875,-0.07627192329764365,-0.001001486926432699,0.019017147969605866
1761316487287777000,5.497777099609375,-0.07193301731050014,0.0033909210799261927,0.01624899614723399
1761316487297760000,5.507760009765625,-0.07028700366914271,0.00791167730684392,0.00787067400959786
1761316487307742000,5.517741943359375,-0.07552724241018295,0.0044717203202657395,-0.00045395202928921204
1761316487317725000,5.527724853515625,-0.07358253808319568,0.009310155061073602,-0.006449806327046826
1761316487327707000,5.537706787109375,-0.08330781328380107,0.00909952625138685,-0.008139364565897266
1761316487337689900,5.54768994140625,-0.07851999448537826,-0.00473513876311481,-0.0051889012794476
1761316487347672000,5.557672119140625,-0.06759644941091537,-0.01643832644056529,0.006194370261253789
1761316487357655000,5.567655029296875,-0.07747194673717021,-0.010145528172980993,0.014176128546067047
1761316487367637000,5.577636962890625,-0.06849427503347397,-0.0013055022411514073,0.015362612084008286
1761316487377620000,5.587619873046875,-0.08450842124521732,0.0017072149098385123,0.013349660259822848
1761316487387603000,5.59760302734375,-0.07553250310719013,0.014984182109497486,0.0021749146199785173
1761316487397585000,5.6075849609375,-0.0812199010938406,0.013235466145491226,0.004802596242446452
1761316487407568000,5.61756787109375,-0.07074468430876732,0.004284006595285609,-0.008067402158095502
1761316487417549800,5.6275498046875,-0.06715455086231231,-0.004480670811701565,-0.010547103844350203
1761316487427532800,5.63753271484375,-0.07224281391203403,-0.010883815852273255,-0.0148331768158474
1761316487437515000,5.647514892578125,-0.08077157280445098,0.00046670419629663224,-0.010198119160032364
1761316487447497700,5.657497802734375,-0.07538461906909942,-0.0002957132772542536,0.004818656894681044
1761316487457481000,5.66748095703125,-0.07538228098154068,0.010619027436245232,0.010435793523560277
1761316487467463000,5.677462890625,-0.07283610363006592,0.004173257963499054,0.017396885257435497
1761316487477446000,5.68744580078125,-0.08525544022023678,0.0014751962522510439,0.014713902384310494
1761316487487427800,5.697427734375,-0.078522332572937,0.00809947323021479,0.027865619786083696
1761316487497411000,5.7074111328125,-0.07059212409555912,-0.0002519928665366024,0.010596995984239037
1761316487507392800,5.717392822265625,-0.08555646899342537,0.009260689896158874,0.008373721311043482
1761316487517376000,5.7273759765625,-0.06864858881235122,0.0014341701221186668,-0.00469705579202855
1761316487527357700,5.737357666015625,-0.07268763507008552,-0.003804625580506399,-0.003707601796684321
1761316487537341000,5.7473408203125,-0.07238660629689693,-0.003278400616161525,-0.007714044976048171
1761316487547324000,5.757323974609375,-0.07238777534067631,0.00521063818722032,-0.013912726086238399
1761316487557305900,5.767305908203125,-0.07253799746632575,0.00703222759119235,-0.01048309641414089
1761316487567288800,5.777288818359375,-0.07298807932138443,0.0038292211656458675,0.006067654592066537
1761316487577271000,5.78727099609375,-0.08361410275399685,0.011590785944694652,0.008846905480476562
1761316487587254000,5.79725390625,-0.08211889576017856,0.006741482750000432,0.010465620122954714
1761316487597236000,5.807236083984375,-0.07403612706959248,0.006594767755689099,0.025229318749031514
1761316487607219000,5.817218994140625,-0.08121873205006122,0.001249068479333073,0.020523415213555562
1761316487617201000,5.827200927734375,-0.08256547048389912,0.0009265493935439735,0.008557409598166123
1761316487627183900,5.837183837890625,-0.0720914227426052,0.0014227719452697782,-0.002107073548156768
1761316487637167000,5.8471669921875,-0.06954875252246856,-0.0009075158995110541,-0.004254906081676018
1761316487647148800,5.857148681640625,-0.07568506332039833,0.002703422872954979,-0.009505421904847025
1761316487657132000,5.867132080078125,-0.07778057429492473,-0.001477141614165157,-0.015397343187383375
1761316487667114000,5.877114013671875,-0.07104571308195591,0.005288626193720847,-0.013279981140652672
1761316487677097000,5.887096923828125,-0.07344049926400184,0.005309166658250614,0.0021165514792664906
1761316487687079000,5.897078857421875,-0.07463876913785934,-0.0013991536076646298,0.007150378644722514
1761316487697062000,5.907061767578125,-0.07074643787443638,-0.012322981809917836,0.016122586438723375
1761316487707044900,5.917044921875,-0.07478723769783974,-0.003895546133816242,0.015160200830106623
1761316487717027000,5.927027099609375,-0.07119651972949505,0.0031374029765836894,0.014321642530558164
1761316487727010000,5.937010009765625,-0.08107201705574989,0.010908502768957986,0.009017168030445463
1761316487736992000,5.946991943359375,-0.07254267364144325,0.007365332003077492,-0.00458036375993397
1761316487746975000,5.95697509765625,-0.06910100875496863,0.0063283627713099115,-0.008964684357959777
1761316487756957000,5.96695703125,-0.06984919677376747,0.0057527731067501,-0.006262414545763749
1761316487766940000,5.97693994140625,-0.07493804434537887,-0.006735911525739356,-0.0029609549977118147
1761316487776922000,5.986922119140625,-0.07359130591154098,-0.009583830036455765,0.006400843485631048
1761316487786904800,5.99690478515625,-0.07164543254077434,-0.011672509411396458,0.007966642914072144
1761316487796887800,6.0068876953125,-0.08032616712450981,-0.008727724663773551,0.016189904637448488
1761316487806870000,6.0168701171875,-0.0677566084086895,0.0008133074105717242,0.014003792770020663
1761316487816853000,6.02685302734375,-0.0774812990874052,0.010320976071432232,0.00824937569545582
1761316487826835000,6.0368349609375,-0.0631166736483574,0.009290984569722787,0.013786999081028624
1761316487836818000,6.04681787109375,-0.0688023180693388,0.006592164806649089,0.00767357368505327
1761316487846800000,6.0567998046875,-0.08765782518684863,0.010731730563100427,-0.0014743286025710404
1761316487856782800,6.066782958984375,-0.07433832488656043,0.003714189084386453,0.001221415570715908
1761316487866766000,6.07676611328125,-0.0752373195528984,0.0040735878481529654,-0.006186470082588494
1761316487876747800,6.086747802734375,-0.07404197228848934,-0.0043552269342821085,0.007414192096504848
1761316487886731000,6.09673095703125,-0.0694032065719366,-0.00505975847444497,0.0094462710295571
1761316487896713200,6.106713134765625,-0.07314473118782043,0.0033672844760119914,0.003214824727503583
1761316487906696200,6.1166962890625,-0.06910510040819645,0.0022386457722634078,0.012534832179022487
1761316487916678100,6.12667822265625,-0.06985328842699527,0.0006154010851401835,0.013685972692235373
1761316487926661400,6.136661376953125,-0.07434241653978824,0.008227529189828782,0.009656637261051218
1761316487936643300,6.146643310546875,-0.06925415349006653,0.011166395653318614,0.010494990064622834
1761316487946626300,6.156626220703125,-0.07239537412524223,0.010940222214628011,0.010197361108206678
1761316487956609300,6.166609375,-0.07643383586108685,-0.0022074103837832807,0.004288703320000786
1761316487966591200,6.17659130859375,-0.07568447879850863,-0.0025806732761207967,0.00282158305963967
1761316487976574500,6.186574462890625,-0.07343991474211216,-0.003005712021468207,-0.004648029018531088
1761316487986556400,6.196556396484375,-0.07134440376758575,-0.0005437149552628398,-0.007960039643349591
1761316487996539400,6.206539306640625,-0.07239186699390411,0.005012750128097832,0.0032335613940143956
1761316488006521300,6.216521240234375,-0.06925123088061809,-0.003407826548954472,0.0012039164466434158
1761316488016504300,6.22650439453125,-0.06999766533374786,0.004875341818248852,0.012001579252269584
1761316488026487300,6.2364873046875,-0.08346504967212677,0.00757088277884759,0.009960821539128663
1761316488036469200,6.24646923828125,-0.07134440376758575,0.013588773095188661,0.005050947263615671
1761316488046452200,6.2564521484375,-0.07942308080494404,-0.003843441487243399,0.007295114027790259
1761316488056434400,6.266434326171875,-0.07972177149057388,0.00223896543267183,0.009129090272588654
1761316488066417200,6.276417236328125,-0.07628069112598895,0.0075138553619850425,0.00988256410456961
1761316488076399400,6.2863994140625,-0.06745207250416278,0.010360312567977235,0.0013549080405617132
1761316488086382300,6.29638232421875,-0.0708937373906374,0.010240987904090434,0.0005781766305794008
1761316488096364300,6.3063642578125,-0.07343465404510498,-0.006826019228296354,-0.0019743025975185445
1761316488106347300,6.31634716796875,-0.07463000130951404,-0.007517243762314319,0.005576261195796541
1761316488116330500,6.32633056640625,-0.07358253808319568,-0.0034951121067628263,0.002229295705317054
1761316488126312200,6.336312255859375,-0.07298515671193599,-0.006114089832967147,0.006429939432663377
1761316488136295400,6.34629541015625,-0.08241291027069092,-0.002934765677107498,0.012463682621973567
1761316488146277000,6.356277099609375,-0.07941898915171623,-0.0023615871653426437,0.011116517213161568
1761316488156260400,6.36626025390625,-0.07119008998870849,-0.00033516850480809805,0.007350166399986482
1761316488166242300,6.3762421875,-0.07193944705128669,0.017266420428315176,0.008699612814141437
1761316488176225300,6.386225341796875,-0.07927402772307396,0.014108358256192877,0.001740498408221174
1761316488186207200,6.396207275390625,-0.07613280708789825,0.004913691934105008,-0.004407694623747374
1761316488196190500,6.4061904296875,-0.08316577446460724,0.002377953778253868,-0.003278208819916472
1761316488206173400,6.41617333984375,-0.07209376083016396,-0.003870603488804772,-0.004716077869618311
1761316488216155400,6.4261552734375,-0.06431377447843552,0.00157572488412261,-0.0028725300788762977
1761316488226138400,6.436138427734375,-0.08092471753954887,0.004932241370948031,0.006645411097537726
1761316488236120300,6.446120361328125,-0.07853051587939262,0.0011725965764839202,0.007907964679528959
1761316488246103300,6.456103271484375,-0.07868015348315238,-0.0001691186223644763,0.006533251393376849
1761316488256085500,6.46608544921875,-0.0743400784522295,0.0010899597943294793,0.01583209275928093
1761316488266068200,6.476068115234375,-0.07493745982348919,-0.00019052673657424748,0.014587915084196719
1761316488276051200,6.48605126953125,-0.07703297079801559,-0.007189701441535726,0.008946886123076547
1761316488286033400,6.496033447265625,-0.07808160306811332,-0.0027400742220692336,0.0031322221946786157
1761316488296016100,6.50601611328125,-0.06521452271044254,0.010215963060688227,0.0036400621189619413
1761316488305998300,6.515998291015625,-0.07628828991055488,0.0004999854113906622,0.002818039395683445
1761316488315981300,6.525981201171875,-0.07598901470303535,0.0014090813466347753,-0.002425220136216376
1761316488325963300,6.53596337890625,-0.07628828991055488,-0.007988660666346549,-0.004270190415775869
1761316488335946200,6.5459462890625,-0.07464227626919746,0.0028857571699190884,0.004045843607990537
1761316488345928200,6.55592822265625,-0.07164835515022278,0.00342864100812003,0.008262189511256292
1761316488355911200,6.5659111328125,-0.07374503516852855,-0.0007555493413470686,0.009895871110714506
1761316488365894400,6.575894287109375,-0.08212123384773731,-0.0032308168810792266,0.014402975554903968
1761316488375876000,6.5858759765625,-0.08122223918139934,0.007185664587235078,0.01085514231363777
1761316488385859300,6.595859375,-0.06984919677376747,0.005957401433913037,0.0035701272714650256
1761316488395841300,6.60584130859375,-0.07359422852098942,0.007854942150926216,0.014605117380747105
1761316488405824500,6.615824462890625,-0.07763444382250309,0.008203627724433317,0.002769588010921143
1761316488415806200,6.62580615234375,-0.07509235812425613,0.00022957097217440604,-0.005925017551251221
1761316488425789400,6.63578955078125,-0.06925766062140465,0.010909680945891887,0.00032418131991289554
1761316488435771100,6.645771240234375,-0.07748772882819176,0.006894362623617052,0.00574026525162626
1761316488445754400,6.65575439453125,-0.07329904496669769,-0.0008191982952412217,0.005436642662552185
1761316488455737300,6.6657373046875,-0.07135434063971043,-0.0004558814081829041,0.011052413884829729
1761316488465719300,6.67571923828125,-0.07060732166469097,0.0020519275611266493,0.01149339455140289
1761316488475702300,6.685702392578125,-0.07928805624842643,-0.007702811195980757,0.0204988995435182
1761316488485684500,6.6956845703125,-0.07046060667037964,0.007918107047630473,0.007987427690485492
1761316488495667200,6.705667236328125,-0.06866553994715213,0.008689054887508972,-0.0038024153571110217
1761316488505649400,6.7156494140625,-0.06701835726201534,0.0059439574304502455,0.005627991383033804
1761316488515632400,6.72563232421875,-0.08392740648686885,0.012043945672828703,0.003524612195882946
1761316488525615000,6.735614990234375,-0.08318097203373909,0.010490606150450185,0.003368257156969048
1761316488535597300,6.745597412109375,-0.08213409332931042,0.009295843407930805,0.002061928365333006
1761316488545580300,6.755580322265625,-0.07150865441858768,0.005164460957935079,0.0008864023295347579
1761316488555562200,6.765562255859375,-0.07315642162561416,-0.0028423381533008068,0.0026842774977791123
1761316488565545200,6.775545166015625,-0.07136135490238667,0.001062752126995474,0.012339172609604428
1761316488575527200,6.785527099609375,-0.07674772411584854,0.0050734673393890255,0.016733012237935326
1761316488585510100,6.79551025390625,-0.07555179232954978,0.0027507874123286454,0.025125219053740145
1761316488595492400,6.805492431640625,-0.07196750410199165,0.007954922793526203,0.003980210476275533
1761316488605475000,6.81547509765625,-0.08934066370725631,0.012001567835826427,0.002918700458295643
1761316488615458300,6.825458251953125,-0.07468903802037238,0.0007053809235338122,0.0016330902277026324
1761316488625440300,6.835440185546875,-0.06661679072380065,0.0034157084613107144,-0.0030657670790562403
1761316488635423500,6.845423583984375,-0.06557517271637917,0.0006027699324302375,0.01252333582076244
1761316488645405200,6.8554052734375,-0.051503977265954015,-0.006318919089529663,0.0037365013808943327
1761316488655388400,6.865388427734375,-0.07274316464960574,-0.00374367090719752,-0.004440329668158665
1761316488665370000,6.8753701171875,-0.08156243092119693,-0.00144833564478904,0.011836353637021966
1761316488675353300,6.885353271484375,-0.06898585794270039,-0.003188639973476529,0.0028348877824959343
1761316488685335300,6.895335205078125,-0.07721241901814938,-0.0014688213103916496,-0.00383767846673727
1761316488695318300,6.905318359375,-0.08977905512452125,0.0072592595464084295,0.006080881683109328
1761316488705301200,6.91530126953125,-0.0822960058927536,0.013836162851843982,-0.0053928423367324285
