time,seconds_elapsed,z,y,x
1761316544733589800,0.07558984375,-0.00146303023211658,-0.0008140811696648598,-0.0021190897095948458
1761316544743573000,0.085572998046875,0.0004834677092730999,0.00063743581995368,0.0006166588282212615
1761316544753555000,0.095554931640625,-0.002745881211012602,0.0007681967690587044,0.0010891036363318563
1761316544763538000,0.105537841796875,0.00011517619714140892,-0.0007117581553757191,-0.0010119008366018534
1761316544773520000,0.115519775390625,-0.0009516860591247678,0.0000536344014108181,-0.0029022127855569124
1761316544783503000,0.125503173828125,-0.0009908073116093874,-0.000486601609736681,-0.0011712010018527508
1761316544793484800,0.13548486328125,-0.0011391453444957733,0.0009962464682757854,0.0011255090357735753
1761316544803468000,0.145468017578125,-0.00069619802525267,-0.0001787552610039711,-0.0015195037703961134
1761316544813450000,0.155449951171875,0.0007261962164193392,-0.0010591959580779076,-0.000004165107384324074
1761316544823433000,0.165432861328125,0.0018906820332631469,0.0020981794223189354,-0.0010368980001658201
1761316544833415000,0.175414794921875,0.0009186282986775041,-0.0003660432994365692,0.0005037407390773296
1761316544843398100,0.185398193359375,-0.00039261061465367675,-0.0020534147042781115,0.000672166352160275
1761316544853379800,0.1953798828125,-0.0004072579904459417,0.0010704733431339264,-0.001824547303840518
1761316544863362000,0.205362060546875,-0.0005434812628664076,-0.0009459285065531731,-0.001036590663716197
1761316544873345000,0.215344970703125,0.0011167332995682955,0.0001361137256026268,-0.00009223376400768757
1761316544883327000,0.225326904296875,0.0005791432922706008,-0.00020236661657691002,0.0007054973393678665
1761316544893310000,0.23531005859375,0.0006875339895486832,0.0010168286971747875,-0.000373615650460124
1761316544903292000,0.2452919921875,0.0019011313561350107,0.0010872292332351208,0.0019488104153424501
1761316544913275000,0.25527490234375,-0.00017986271996051073,0.0008174511604011059,-0.0008589604403823614
1761316544923256800,0.2652568359375,-0.0003005204489454627,-0.00006837444379925728,0.00041285273618996143
1761316544933240000,0.275239990234375,-0.0008728337706997991,0.00017557106912136078,0.001714872196316719
1761316544943222000,0.285221923828125,0.001460416940972209,-0.0008233007974922657,-0.00021972623653709888
1761316544953205500,0.29520556640625,-0.001901557669043541,0.0000981530174612999,0.002336109522730112
1761316544963187700,0.305187744140625,0.0005028684390708804,-0.0028359878342598677,0.0008474723435938358
1761316544973170400,0.31517041015625,-0.0025789416395127773,-0.0010607247240841389,0.001993696903809905
1761316544983152600,0.325152587890625,0.001406299532391131,0.0017708046361804008,0.0005524024600163102
1761316544993135600,0.335135498046875,-0.00018467300105839968,0.00047144806012511253,0.0036917366087436676
1761316545003117600,0.34511767578125,0.0031055279541760683,0.000020433682948350906,-0.00013142544776201248
1761316545013100500,0.3551005859375,-0.0001525831175968051,0.0010023410432040691,-0.0012728562578558922
1761316545023082500,0.36508251953125,0.0008101871935650706,0.0004929010756313801,-0.0006994022987782955
1761316545033065500,0.3750654296875,0.000192866544239223,-0.0007313541136682034,0.0024119687732309103
1761316545043047700,0.385047607421875,0.0007486499380320311,0.004017696715891361,0.004856630228459835
1761316545053030700,0.39503076171875,0.0009827418252825737,0.0015838337130844593,0.002000922802835703
1761316545063012600,0.4050126953125,0.0032510000746697187,0.00016689253970980644,-0.00042752991430461407
1761316545072994800,0.414994873046875,0.00008503417484462261,0.002093955874443054,0.00041509419679641724
1761316545082977500,0.4249775390625,-0.0006271091988310218,-0.0007506255060434341,-0.00015120580792427063
1761316545092959700,0.434959716796875,0.0005332300206646323,0.0007849531248211861,-0.002568557159975171
1761316545102942700,0.444942626953125,0.0013685377780348063,-0.000981226097792387,0.0007999981753528118
1761316545112924700,0.454924560546875,-0.0008117921533994377,-0.0011759032495319843,-0.0009342522826045752
1761316545122907600,0.46490771484375,0.00013737136032432318,-0.0017505525611341,0.0013892007991671562
1761316545132889600,0.4748896484375,0.0004542875103652477,0.00029022758826613426,0.0011817405465990305
1761316545142872600,0.48487255859375,0.0000035901321098208427,-0.0013342471793293953,-0.001185279805213213
1761316545152854800,0.494854736328125,0.000283488305285573,0.000003991182893514633,0.0017125057056546211
1761316545162837500,0.50483740234375,-0.0011625811457633972,-0.00014997785910964012,-0.001618345733731985
1761316545172819700,0.51481982421875,-0.00026296533178538084,-0.0017388197593390942,0.00002216128632426262
1761316545182802700,0.524802734375,0.002630095463246107,0.0007996149361133575,-0.0006697617936879396
1761316545192784600,0.53478466796875,-0.00053693592781201,0.00003981497138738632,-0.000035929493606090546
1761316545202767600,0.544767578125,0.00012207787949591875,0.00037397630512714386,-0.0034005274064838886
1761316545212749800,0.554749755859375,0.0007274143863469362,0.001130846794694662,0.0006714457413181663
1761316545222732500,0.564732666015625,-0.0007804672350175679,0.0015467200428247452,0.0016200114041566849
1761316545232714800,0.57471484375,0.0011298182653263211,-0.0013201730325818062,-0.0006892157252877951
1761316545242697700,0.58469775390625,-0.00018469663336873055,-0.0027527872007340193,-0.0006391059141606092
1761316545252679700,0.5946796875,0.0004355536075308919,0.00043102167546749115,-0.000992773799225688
1761316545262661600,0.60466162109375,0.000018182676285505295,-0.0008383654057979584,-0.0010558012872934341
1761316545272644600,0.61464453125,0.0011100787669420242,0.003249852918088436,0.0005753848236054182
1761316545282626600,0.62462646484375,-0.0010239994153380394,-0.0004625958390533924,0.003006560727953911
1761316545292609800,0.63460986328125,0.0009611209388822317,-0.000619988888502121,-0.001930673373863101
1761316545302591500,0.644591552734375,0.0004226218443363905,0.0002719275653362274,0.0006861891597509384
1761316545312574700,0.65457470703125,-0.0024546573404222727,0.0018778136000037193,-0.0005985198076814413
1761316545322556400,0.664556396484375,0.0021245747338980436,-0.00010646786540746689,0.00047434004954993725
1761316545332539600,0.67453955078125,-0.0007007727981545031,0.0002866149879992008,-0.0009749520104378462
1761316545342521600,0.684521484375,-0.0008110608323477209,0.0009764120914041996,-0.0009130276739597321
1761316545352504800,0.6945048828125,0.0015032262308523059,0.0023452765308320522,-0.00046748085878789425
1761316545362486500,0.704486572265625,0.0005076965317130089,0.00034102797508239746,0.002910334849730134
1761316545372469800,0.7144697265625,-0.00016049062833189964,0.0011658091098070145,-0.0004625585861504078
1761316545382451500,0.724451416015625,-0.0009601107449270785,-0.0004663970321416855,0.003866848535835743
1761316545392434700,0.7344345703125,-0.000018150662072002888,0.000015102792531251907,0.001627396559342742
1761316545402416600,0.744416748046875,-0.0008427195134572685,-0.0017539546824991703,-0.003139425301924348
1761316545412399600,0.754399658203125,-0.0001561566023156047,0.0005267765372991562,0.0028241912368685007
1761316545422381600,0.764381591796875,0.001523763407021761,0.0007455181330442429,0.0016482259379699826
1761316545432364800,0.77436474609375,0.0023304347414523363,0.000972419511526823,-0.00045620393939316273
1761316545442346500,0.784346435546875,0.0005532692885026336,-0.001991097116842866,-0.0016329376958310604
1761316545452328700,0.79432861328125,0.0020552920177578926,-0.0008427421562373638,0.0026361094787716866
1761316545462311400,0.8043115234375,-0.003609436098486185,-0.0014381804503500462,0.00048252707347273827
1761316545472293600,0.814293701171875,0.0021387306042015553,0.00011790497228503227,-0.0002972465008497238
1761316545482276600,0.824276611328125,-0.0016081040957942605,-0.0014606555923819542,0.002410204615443945
1761316545492258600,0.834258544921875,-0.0011620245641097426,-0.002032702788710594,-0.0009818635880947113
1761316545502241500,0.844241455078125,0.0010578150395303965,0.000513976439833641,-0.00039917370304465294
1761316545512223700,0.8542236328125,-0.0018191977869719267,0.0002673673443496227,0.0027627975214272738
1761316545522206500,0.86420654296875,0.0014682498294860125,-0.00007155211642384529,0.0018033862579613924
1761316545532188700,0.874188720703125,0.000033072312362492085,0.00044217146933078766,0.00012612738646566868
1761316545542171600,0.884171630859375,-0.0006003802409395576,-0.0009837597608566284,0.0011328750988468528
1761316545552153600,0.894153564453125,0.00043985049705952406,-0.0006231679581105709,-0.0014139057602733374
1761316545562136600,0.904136474609375,-0.0006028682691976428,-0.00055647362023592,-0.0002563830930739641
1761316545572118500,0.914118408203125,0.002952185459434986,-0.000015585217624902725,0.0005513535579666495
1761316545582101500,0.9241015625,-0.0013389516388997436,0.0014611631631851196,0.0012982236221432686
1761316545592083700,0.934083740234375,-0.0018510775407776237,-0.001833166927099228,-0.0007553398609161377
1761316545602066400,0.94406640625,-0.0017742407508194447,-0.0006660190410912037,0.0014487982261925936
1761316545612048600,0.954048583984375,-0.000281805288977921,-0.0009957184083759785,0.002301276195794344
1761316545622031600,0.964031494140625,0.0013361724559217691,0.0017604115419089794,-0.0010901133064180613
1761316545632013600,0.974013671875,-0.003543271217495203,0.0024770679883658886,-0.00015534390695393085
1761316545641995800,0.983995849609375,0.0024429247714579105,0.0017952676862478256,-0.00021002069115638733
1761316545651978800,0.993978759765625,0.00038536672946065664,0.002750543411821127,0.000246178824454546
1761316545661960700,1.003960693359375,-0.0003754603676497936,0.00027005700394511223,0.00009300676174461842
1761316545671943700,1.013943603515625,0.0007704977178946137,-0.00014006951823830605,-0.0008769165724515915
1761316545681925600,1.023925537109375,-0.0000910318922251463,-0.0015134867280721664,-0.00010385806672275066
1761316545691908600,1.03390869140625,-0.0007408431847579777,0.00013980362564325333,0.0003329003229737282
1761316545701890800,1.043890869140625,-0.0009394186199642718,0.0010533020831644535,-0.00015614531002938747
1761316545711873500,1.05387353515625,0.0003498176811262965,0.001936938613653183,-0.0021726908162236214
1761316545721855700,1.063855712890625,-0.001656644162721932,-0.0028727613389492035,0.0029378801118582487
1761316545731838700,1.073838623046875,-0.0001740623265504837,-0.0004178592935204506,-0.00004246341995894909
1761316545741820700,1.083820556640625,-0.0006585384835489094,-0.0012204633094370365,-0.0012029956560581923
1761316545751803600,1.0938037109375,-0.000015118741430342197,-0.002584800822660327,-0.000193391228094697
1761316545761785600,1.10378564453125,-0.0002827539574354887,-0.0009341132827103138,-0.0019629497546702623
1761316545771768600,1.1137685546875,0.001147629925981164,-0.0008427668362855911,-0.0020260668825358152
1761316545781750800,1.123750732421875,-0.0006051039090380073,-0.0005140281282365322,-0.000152108957991004
1761316545791733500,1.1337333984375,0.0009397957473993301,0.0005230070091784,0.0006223382661119103
1761316545801715700,1.1437158203125,-0.0003421548753976822,-0.001160808838903904,-0.0012546610087156296
1761316545811698700,1.15369873046875,0.0016570801381021738,-0.0031704299617558718,0.0012535041896626353
1761316545821680600,1.1636806640625,0.0004128512227907777,-0.0036703054793179035,0.0011815988691523671
1761316545831662600,1.17366259765625,0.000013643410056829453,-0.00006332015618681908,0.0015046403277665377
1761316545841645800,1.183645751953125,0.002834881655871868,-0.0002285931259393692,0.00014685047790408134
1761316545851627500,1.19362744140625,-0.0018818429671227932,-0.00010555470362305641,-0.00030322372913360596
1761316545861610800,1.20361083984375,0.000037165707908570766,-0.000041266437619924545,0.0015712215099483728
1761316545871592400,1.213592529296875,-0.0021903021261096,-0.001043680589646101,0.00007186178117990494
1761316545881575700,1.22357568359375,0.0010672023054212332,0.0008512698113918304,0.0005848963046446443
1761316545891557600,1.2335576171875,-0.0014782469952479005,-0.0006451602093875408,-0.00000685802660882473
1761316545901540600,1.24354052734375,-0.0009632825385779142,-0.002952735172584653,0.000493014114908874
1761316545911522600,1.2535224609375,-0.0003089439123868942,0.0001767454668879509,0.0017652062233537436
1761316545921505800,1.263505859375,-0.0018912293016910553,-0.0009150495752692223,-0.0005119030829519033
1761316545931487500,1.273487548828125,0.0008060203399509192,-0.0006053242832422256,-0.0003995175939053297
1761316545941470700,1.283470703125,-0.00029778212774544954,0.00024959444999694824,-0.0007972435560077429
1761316545951452700,1.29345263671875,-0.0011521242558956146,0.0009385542944073677,-0.0019876763690263033
1761316545961435600,1.303435546875,0.0006754514761269093,-0.0014923117123544216,0.0015817175153642893
1761316545971417600,1.31341748046875,0.0017409820575267076,0.001523451879620552,0.000658399541862309
1761316545981399600,1.323399658203125,-0.0033979834988713264,0.0004767035134136677,-0.0033723663073033094
1761316545991382500,1.333382568359375,0.00042604957707226276,-0.0008681928738951683,-0.00029162154532969
1761316546001364700,1.34336474609375,0.0005466283764690161,-0.0006348849274218082,0.00047746114432811737
1761316546011347500,1.353347412109375,0.000831852899864316,-0.0011728438548743725,-0.002736974274739623
1761316546021329700,1.36332958984375,-0.0024017179384827614,-0.0007584337145090103,-0.0018316905479878187
1761316546031312600,1.373312744140625,0.001210593618452549,-0.0008002454414963722,-0.0015501945745199919
1761316546041294600,1.383294677734375,-0.00040669250302016735,-0.0015711481682956219,0.00013124593533575535
1761316546051277600,1.393277587890625,-0.0014245526399463415,-0.002110438421368599,-0.0019904945511370897
1761316546061259500,1.403259521484375,-0.0006973966956138611,-0.0010295510292053223,0.0003972614649683237
1761316546071242500,1.413242431640625,-0.0024843779392540455,0.0021089836955070496,0.0007141776150092483
1761316546081224700,1.423224609375,0.0004888745024800301,-0.0008466909639537334,-0.0012761629186570644
1761316546091207400,1.43320751953125,0.001298475544899702,-0.002446718281134963,0.0007640848634764552
1761316546101189600,1.443189697265625,-0.0005759312771260738,-0.0005409885197877884,-0.00231775245629251
1761316546111172600,1.453172607421875,0.002865938004106283,0.0007762107998132706,0.0013464909279718995
1761316546121154600,1.463154541015625,0.000471815699711442,-0.0018432140350341797,-0.0011571096256375313
1761316546131136800,1.47313671875,0.00021561956964433193,-0.0002080332487821579,-0.0014412689488381147
1761316546141119700,1.48311962890625,0.001330781728029251,-0.0012273909524083138,0.0018099152948707342
1761316546151101700,1.493101806640625,0.0005560680292546749,0.0005745035596191883,0.001425621216185391
1761316546161084700,1.503084716796875,0.00010329147335141897,0.0011390717700123787,0.0003842497244477272
1761316546171066600,1.513066650390625,0.0020029242150485516,0.002178503666073084,0.0007027637911960483
1761316546181049600,1.523049560546875,0.0014821973163634539,0.0013880343176424503,-0.000183420954272151
1761316546191031800,1.53303173828125,0.0004347760695964098,0.00008521554991602898,-0.000024164095520973206
1761316546201014500,1.5430146484375,0.000640427228063345,0.0007855091243982315,-0.0011599299032241106
1761316546210996700,1.552996826171875,-0.0008482798002660275,0.00020680390298366547,-0.001285630976781249
1761316546220979700,1.562979736328125,0.0006785730365663767,0.0013979109935462475,0.00011305208317935467
1761316546230961700,1.572961669921875,0.0019462376367300749,-0.0015661874786019325,-0.0005884245038032532
1761316546240944600,1.582944580078125,-0.0018820571713149548,0.002656179014593363,-0.0001451456919312477
1761316546250926600,1.592926513671875,-0.0016311873914673924,0.0011735972948372364,-0.0006303736008703709
1761316546260909600,1.60290966796875,0.0032667736522853374,-0.0010236375965178013,-0.0011768233962357044
1761316546270891800,1.612891845703125,0.0009948310907930136,-0.0015562698245048523,-0.001294268760830164
1761316546280873500,1.62287353515625,-0.0002707764506340027,0.000751495361328125,-0.00038806255906820297
1761316546290856700,1.632856689453125,-0.0016585496487095952,-0.0008567874319851398,0.00023245392367243767
1761316546300838700,1.642838623046875,0.00005944410804659128,0.0007108738645911217,-0.001942240633070469
1761316546310821600,1.652821533203125,-0.0013051596470177174,-0.0002031228505074978,0.000025302870199084282
1761316546320803600,1.662803466796875,-0.0027058040723204613,-0.000997159630060196,-0.0016748853959143162
1761316546330786800,1.672786865234375,-0.0024799678940325975,-0.0016230023466050625,0.0011523265857249498
1761316546340768500,1.6827685546875,-0.00017395650502294302,-0.0008246372453868389,-0.000426700571551919
1761316546350751700,1.692751708984375,0.0010417765006422997,-0.0020345111843198538,-0.0004735721740871668
1761316546360733400,1.7027333984375,0.000028907321393489838,-0.0010853507556021214,0.00004964321851730347
1761316546370716700,1.712716552734375,0.002657979726791382,-0.0005593765527009964,0.004942136351019144
1761316546380698600,1.72269873046875,-0.00041262293234467506,-0.00215726881287992,-0.0021593314595520496
1761316546390681600,1.732681640625,-0.0003343259450048208,-0.0001223473809659481,0.00041354866698384285
1761316546400663600,1.74266357421875,0.000026830937713384628,-0.0007713809609413147,0.001381094683893025
1761316546410646800,1.752646728515625,-0.0009340376127511263,-0.0006936164572834969,-0.0006740668322890997
1761316546420628500,1.76262841796875,-0.0009757870575413108,-0.0008349637500941753,-0.0018395555671304464
1761316546430611700,1.77261181640625,-0.0007781804888509214,0.001465474721044302,0.0018787498120218515
1761316546440593700,1.78259375,-0.0017629906069487333,-0.00014411471784114838,-0.000012632925063371658
1761316546450575600,1.79257568359375,0.0012612950522452593,-0.0018397490493953228,0.0018955218838527799
1761316546460558600,1.80255859375,-0.0011201903689652681,0.002551891840994358,-0.0011152359656989574
1761316546470540500,1.81254052734375,0.0011544154258444905,0.0005507925525307655,0.00021128449589014053
1761316546480523500,1.8225234375,0.00041989958845078945,0.0020455033518373966,0.00061183946672827
1761316546490505700,1.832505615234375,0.0006116472650319338,0.002048433292657137,-0.0009133529383689165
1761316546500488400,1.842488525390625,-0.000021758838556706905,-0.0005891062319278717,0.00255986163392663
1761316546510470700,1.852470703125,-0.0005027257138863206,-0.00020294776186347008,-0.001832490088418126
1761316546520453600,1.86245361328125,0.000209359684959054,0.0004396955482661724,-0.0019190460443496704
1761316546530435600,1.872435546875,-0.000590653857216239,-0.0003778948448598385,-0.0012612452264875174
1761316546540418600,1.88241845703125,0.00021869433112442493,0.0005989549681544304,0.0011877117212861776
1761316546550400500,1.892400390625,-0.000024452339857816696,-0.0006290287710726261,0.00045800558291375637
1761316546560383500,1.902383544921875,0.00023238337598741055,0.002304930705577135,-0.0016595758497714996
1761316546570365700,1.91236572265625,0.0015338701196014881,-0.001719105988740921,0.0008272839477285743
1761316546580348700,1.9223486328125,0.0021215006709098816,0.0007240441627800465,-0.00019285292364656925
1761316546590330600,1.93233056640625,-0.001295867608860135,-0.0013596131466329098,0.0017022524261847138
1761316546600312800,1.942312744140625,0.0002082926221191883,-0.0011587725020945072,0.001697851694189012
1761316546610295600,1.952295654296875,-0.0006812031497247517,-0.0005278694443404675,0.0028712404891848564
1761316546620277800,1.96227783203125,0.0005493416683748364,0.0006700060330331326,0.0000025525223463773727
1761316546630260700,1.9722607421875,-0.00016039074398577213,-0.0019044715445488691,0.0017578420229256153
1761316546640242700,1.98224267578125,-0.0022167209535837173,-0.0009862249717116356,0.0008415129268541932
1761316546650225700,1.9922255859375,0.0009084985358640552,-0.0020152702927589417,-0.00010710512287914753
1761316546660207600,2.00220751953125,-0.0014905096031725407,-0.0010672034695744514,-0.0022617774084210396
1761316546670190600,2.012190673828125,0.0012477525742724538,-0.0013039582408964634,0.0008575832471251488
1761316546680172800,2.0221728515625,-0.0011027834843844175,-0.0016882224008440971,-0.0009083470795303583
1761316546690155500,2.032155517578125,0.00011161796282976866,-0.0009302869439125061,-0.00005080900155007839
1761316546700137700,2.0421376953125,-0.0012993478449061513,-0.002694136230275035,-0.00017303414642810822
1761316546710120700,2.05212060546875,0.0009046844206750393,-0.001954043749719858,-0.0000308214221149683
1761316546720102700,2.0621025390625,0.0006465899059548974,0.0007273121736943722,-0.00042968569323420525
1761316546730085600,2.072085693359375,-0.000023195170797407627,-0.00024207821115851402,0.00044036912731826305
1761316546740067800,2.08206787109375,0.0010443514911457896,-0.0019519967027008533,-0.0012619018089026213
1761316546750049500,2.092049560546875,0.0009034703252837062,0.0008408604189753532,0.00017727049998939037
1761316546760032800,2.10203271484375,-0.0006956400466151536,0.0017030616290867329,-0.0007271338254213333
1761316546770014500,2.112014404296875,-0.0013494461309164762,-0.0002671447582542896,0.0007194953504949808
1761316546779997700,2.121997802734375,0.0006002127192914486,0.002261290792375803,-0.0017912581097334623
1761316546789979600,2.131979736328125,-0.00016810919623821974,0.00317741883918643,0.001619452377781272
1761316546799962600,2.141962646484375,-0.0003423282178118825,0.002008098177611828,0.00025697960518300533
1761316546809944600,2.151944580078125,-0.0005585768958553672,0.000104470644146204,0.0026793910656124353
1761316546819927800,2.161927734375,0.0012434849049896002,-0.0007467609830200672,-0.0003574362490326166
1761316546829909500,2.171909423828125,0.0007175107020884752,0.0010042674839496613,-0.0007103050593286753
1761316546839892700,2.181892822265625,0.0009802314452826977,0.0018746559508144855,-0.004312129691243172
1761316546849874400,2.19187451171875,0.0002864779671654105,0.0005694404244422913,-0.0013650755863636732
1761316546859857700,2.201857666015625,0.0010308197233825922,0.0016588359139859676,0.0010646490845829248
1761316546869839600,2.211839599609375,-0.002102655591443181,0.002777363173663616,-0.00043684104457497597
1761316546879822800,2.22182275390625,0.0010957119520753622,0.00130818085744977,-0.0007021182682365179
1761316546889804500,2.231804443359375,0.0018800129182636738,0.0005257441662251949,-0.0033775297924876213
1761316546899786800,2.241786865234375,-0.0007215507794171572,0.001615624874830246,-0.001902831718325615
1761316546909769500,2.25176953125,-0.0007236812962219119,-0.0003788163885474205,0.0007667209720239043
1761316546919751700,2.261751708984375,-0.0001610505860298872,-0.00013017188757658005,-0.001111367018893361
1761316546929734700,2.271734619140625,-0.0026790695264935493,0.00019127130508422852,0.00015017250552773476
1761316546939716600,2.281716552734375,0.00031516735907644033,-0.0007252567447721958,-0.00041862414218485355
1761316546949699600,2.291699462890625,-0.001932007959112525,-0.0019798718858510256,-0.003199763363227248
1761316546959681300,2.301681396484375,0.0005964033771306276,-0.0009448076598346233,0.00030965590849518776
1761316546969664000,2.3116640625,-0.0004936283803544939,-0.0000422624871134758,-0.0009966245852410793
1761316546979646200,2.321646240234375,0.00020311318803578615,0.00196218304336071,-0.0003918614238500595
1761316546989629200,2.331629150390625,-0.0006562888738699257,0.0004811990074813366,0.0002622108440846205
1761316546999611100,2.341611083984375,0.00041593704372644424,-0.000427901279181242,-0.0013130530714988708
1761316547009594000,2.351593994140625,0.0031571288127452135,-0.0016569499857723713,-0.0005399372894316912
1761316547019576000,2.361576171875,0.0004194226348772645,0.000059262849390506744,-0.002965514315292239
1761316547029559000,2.37155908203125,0.0017243714537471533,0.0011484958231449127,-0.0017705538775771856
1761316547039541200,2.381541259765625,-0.001029751030728221,0.0008765221573412418,-0.0029151514172554016
1761316547049523200,2.391523193359375,0.0007750733057036996,-0.0008257701992988586,0.0006177979521453381
1761316547059506200,2.401506103515625,0.0008007041178643703,0.0008244123309850693,0.0003965250216424465
1761316547069488000,2.411488037109375,-0.003928803838789463,-0.000742325559258461,0.00011662696488201618
1761316547079471000,2.42147119140625,-0.0010251554194837809,0.00005930103361606598,-0.00046139070764184
1761316547089453300,2.431453369140625,-0.0010792175307869911,0.000531479250639677,-0.0003402167931199074
1761316547099436000,2.44143603515625,0.00038629036862403154,0.0005499920807778835,-0.0009090944658964872
1761316547109418200,2.451418212890625,-0.0007884299266152084,0.0015161866322159767,-0.00037513067945837975
1761316547119401200,2.461401123046875,-0.00136377546004951,0.002564503811299801,-0.0005673363339155912
1761316547129383200,2.471383056640625,-0.00025882991030812263,0.00006752414628863335,0.00020844233222305775
1761316547139366100,2.4813662109375,-0.002705903258174658,0.00030620815232396126,-0.003578049363568425
1761316547149348400,2.491348388671875,0.002375940792262554,0.0020657582208514214,-0.0002517614047974348
1761316547159331000,2.5013310546875,-0.0014314096188172698,0.0008170162327587605,-0.0011504881549626589
1761316547169313300,2.511313232421875,-0.0009525732602924109,0.0014111674390733242,-0.0003797693643718958
1761316547179296300,2.521296142578125,0.0003744714194908738,0.0006786193698644638,-0.0006137832533568144
1761316547189278200,2.5312783203125,-0.0004700169083662331,-0.0015381956472992897,-0.00044254190288484097
1761316547199260200,2.54126025390625,0.0009529241360723972,-0.0001644357107579708,0.0005128527991473675
1761316547209243100,2.5512431640625,-0.0018186277011409402,0.0007767253555357456,-0.0010528196580708027
1761316547219225000,2.56122509765625,0.0004982448881492019,-0.0016988487914204597,0.00021746265701949596
1761316547229208300,2.571208251953125,0.0005336649483069777,-0.00035262107849121094,-0.002794572850689292
1761316547239190000,2.58118994140625,0.0009845367167145014,0.00043759215623140335,0.0036224322393536568
1761316547249173200,2.59117333984375,-0.0006823358125984669,0.00017606979236006737,0.00013821851462125778
1761316547259155200,2.6011552734375,0.0004271946381777525,-0.00506694708019495,-0.002370341680943966
1761316547269138200,2.61113818359375,-0.000025809044018387794,-0.0016559702344238758,-0.0009303705301135778
1761316547279120100,2.6211201171875,-0.0025680242106318474,-0.0016864980570971966,-0.0019155149348080158
1761316547289103400,2.631103271484375,0.0007926188409328461,-0.0023352440912276506,-0.0008696913719177246
1761316547299085000,2.6410849609375,0.0006286303978413343,-0.0005555413663387299,-0.0005467545706778765
1761316547309068300,2.651068359375,0.001508006127551198,-0.0008950941264629364,0.0037856758572161198
1761316547319050000,2.661050048828125,-0.0005355324828997254,-0.0020000487565994263,0.000164765864610672
1761316547329033200,2.671033203125,0.0023247026838362217,-0.0011499677784740925,-0.0006733308546245098
1761316547339015200,2.68101513671875,0.0009306569118052721,-0.0005627493374049664,-0.0007482361979782581
1761316547348997000,2.6909970703125,-0.001411327044479549,0.00035178009420633316,-0.0015778110828250647
1761316547358980000,2.70097998046875,0.0005109435878694057,0.0018850001506507397,0.000027308939024806023
1761316547368962000,2.710962158203125,-0.0014230440137907863,-0.0025662072002887726,-0.001961539965122938
1761316547378945000,2.720945068359375,0.0006941554602235556,0.00220330897718668,0.0014286977238953114
1761316547388927200,2.73092724609375,-0.00011890765745192766,0.0007231240160763264,0.001117906766012311
1761316547398910000,2.740909912109375,0.0016127588460221887,0.0004647807218134403,-0.0007237284444272518
1761316547408892200,2.75089208984375,0.0010998341022059321,0.0007289662025868893,-0.0015224104281514883
1761316547418875100,2.760875244140625,0.000943194841966033,-0.0015445491299033165,-0.0012991514522582293
1761316547428857000,2.770857177734375,0.0004949849098920822,0.0008427081629633904,-0.002357491524890065
1761316547438840000,2.780840087890625,0.0014809024287387729,-0.00025516608729958534,-0.0008528551552444696
1761316547448822300,2.790822265625,0.0003647716948762536,-0.000007492490112781525,0.0008592911763116717
1761316547458805000,2.800804931640625,0.0016104235546663404,0.0008662273176014423,-0.002013159217312932
1761316547468787200,2.810787109375,0.0019616945646703243,0.0010960581712424755,-0.0012459028512239456
1761316547478770200,2.820770263671875,0.00024338276125490665,0.0004900731146335602,0.001304163015447557
1761316547488752000,2.830752197265625,-0.0003475726116448641,-0.0002644001506268978,-0.0011062640696763992
1761316547498734300,2.840734375,-0.00035007030237466097,0.00043826550245285034,0.00016950792632997036
1761316547508717000,2.850717041015625,-0.0010962879750877619,-0.0004472355358302593,0.00010772258974611759
1761316547518699300,2.86069921875,0.0010203770361840725,-0.0008311248384416103,-0.0022613322362303734
1761316547528682200,2.87068212890625,-0.0006800512783229351,-0.0011493726633489132,-0.000267690047621727
1761316547538664200,2.880664306640625,0.00016911874990910292,0.00019527599215507507,-0.0005033200141042471
1761316547548647200,2.890647216796875,0.0004953559255227447,0.0006610630080103874,-0.0012218409683555365
1761316547558629000,2.900629150390625,0.0027126313652843237,0.0003485199995338917,-0.0012368953321129084
1761316547568612000,2.910612060546875,-0.0005076630623079836,-0.0017945258878171444,0.0008161355508491397
1761316547578594300,2.92059423828125,0.0007764914771541953,0.0004674340598285198,-0.0007729344069957733
1761316547588577300,2.930577392578125,-0.0013415204593911767,-0.0007943715900182724,-0.0007564227562397718
1761316547598559200,2.940559326171875,0.002233001636341214,-0.00011193240061402321,-0.00070595508441329
1761316547608542200,2.950542236328125,-0.000569975352846086,0.0011059311218559742,-0.0007158089429140091
1761316547618524200,2.960524169921875,-0.002851278055459261,-0.002245916286483407,-0.00038413330912590027
1761316547628507100,2.970507080078125,-0.002678438788279891,-0.0011731949634850025,0.00015968410298228264
1761316547638489300,2.9804892578125,0.0006900058360770345,-0.0024287377018481493,0.0025314916856586933
1761316547648471000,2.990470947265625,0.0031161452643573284,0.0004352256655693054,0.00018471432849764824
1761316547658454300,3.000454345703125,0.0020090441685169935,0.001758510246872902,0.0023680906742811203
1761316547668436000,3.01043603515625,0.0018370039761066437,-0.0010993275791406631,-0.00011876923963427544
1761316547678419200,3.020419189453125,-0.0007028483087196946,0.00144659960642457,0.00044419756159186363
1761316547688401200,3.030401123046875,0.0007626892765983939,0.00036295922473073006,-0.00007298821583390236
1761316547698384100,3.040384033203125,-0.00025007198564708233,0.0006100069731473923,0.001261717057786882
1761316547708366000,3.050365966796875,0.000592818483710289,0.0013109510764479637,-0.0009670823346823454
1761316547718349300,3.060349365234375,-0.0008822801755741239,-0.00005313614383339882,-0.0005738739855587482
1761316547728331000,3.0703310546875,-0.0002686879597604275,0.002134917303919792,0.001327889389358461
1761316547738314200,3.080314208984375,0.00074167107231915,-0.00017988309264183044,-0.0019602470565587282
1761316547748296200,3.090296142578125,0.000134736648760736,0.0022403979673981667,-0.001965573290362954
1761316547758279200,3.100279052734375,0.00033917208202183247,0.0008864384144544601,-0.0006743983831256628
1761316547768261000,3.11026123046875,0.0019077738979831338,0.0013447683304548264,0.0008305540541186929
1761316547778243000,3.1202431640625,-0.0004287562915123999,0.0003356523811817169,0.0006560090696439147
1761316547788226000,3.13022607421875,0.00040667736902832985,-0.0007296120747923851,-0.0003328225575387478
1761316547798208300,3.140208251953125,-0.0012706818524748087,0.0010803565382957458,0.00019657891243696213
1761316547808191000,3.15019091796875,-0.00018517731223255396,-0.0002578818239271641,0.0007838059682399035
1761316547818173200,3.160173095703125,0.0016399775631725788,-0.000019749626517295837,0.0012753643095493317
1761316547828156200,3.17015625,0.0011539505794644356,0.00022845668718218803,-0.0029057986102998257
1761316547838138000,3.18013818359375,-0.0005455411737784743,0.0004115649498999119,0.002646611537784338
1761316547848121000,3.19012109375,-0.0003101177280768752,-0.0013626329600811005,-0.001364109106361866
1761316547858103000,3.20010302734375,0.0029873682651668787,0.00016805483028292656,0.0009224682580679655
1761316547868086000,3.2100859375,0.00009011512156575918,-0.0004780278541147709,0.0019488504622131586
1761316547878068200,3.220068115234375,-0.0003311577020213008,-0.0009133452549576759,0.0015002533327788115
1761316547888051200,3.23005126953125,-0.0002813565079122782,-0.0016246754676103592,0.00010449066758155823
1761316547898033200,3.240033203125,-0.0018620267510414124,0.00001538218930363655,0.00048570497892796993
1761316547908016000,3.25001611328125,0.0018006186001002789,-0.0004962109960615635,-0.000466108787804842
1761316547917998000,3.259998046875,0.0007515217876061797,-0.0008466942235827446,0.00039733201265335083
1761316547927980300,3.269980224609375,0.0006553815910592675,-0.002496522618457675,0.00043355091474950314
1761316547937963300,3.27996337890625,0.00036518508568406105,-0.002618157770484686,-0.00048720650374889374
1761316547947945200,3.2899453125,-0.0002878219820559025,-0.0004215827211737633,-0.0015415521338582039
1761316547957928000,3.299927978515625,0.0016050580888986588,-0.00014853477478027344,0.0012367444578558207
1761316547967910000,3.309909912109375,-0.001612839405424893,-0.0018516264390200377,-0.000015740282833576202
1761316547977892900,3.319892822265625,0.000014040619134902954,0.0016726590692996979,0.001825260929763317
1761316547987874800,3.329874755859375,0.0011323019862174988,0.0010817036963999271,0.004788027610629797
1761316547997857800,3.33985791015625,-0.0018541481113061309,0.0014403872191905975,-0.00035433308221399784
1761316548007840000,3.349840087890625,0.00011472683399915695,0.0009490340016782284,0.00019987067207694054
1761316548017823000,3.359822998046875,0.0007139125373214483,0.00032996712252497673,0.0019442648626863956
1761316548027805000,3.369804931640625,0.00017994886729866266,0.0005068010650575161,0.0011455828789621592
1761316548037788000,3.379787841796875,-0.0003087406512349844,0.00043649738654494286,-0.0003091015387326479
1761316548047769900,3.389769775390625,0.00000444706529378891,0.0008128019981086254,0.0011204833863303065
1761316548057752800,3.3997529296875,0.0008951221825554967,-0.0004473356530070305,0.00003712228499352932
1761316548067735000,3.409735107421875,-0.00007400207687169313,0.0019790702499449253,0.00038173538632690907
1761316548077716700,3.419716796875,0.00028184859547764063,0.0011249561794102192,0.00046410667710006237
1761316548087700000,3.429699951171875,-0.00018313934560865164,0.001209112349897623,-0.000640572514384985
1761316548097681700,3.439681640625,-0.0018250595312565565,0.0009073764085769653,-0.002259813016280532
1761316548107665000,3.449664794921875,0.0019648848101496696,0.000984341837465763,-0.002276058541610837
1761316548117646800,3.459646728515625,-0.0007194788777269423,0.00042106444016098976,0.0016071342397481203
1761316548127629800,3.4696298828125,-0.0011506446171551943,0.0010514343157410622,-0.0006147408857941628
1761316548137611800,3.47961181640625,0.00037793105002492666,0.00034540193155407906,-0.0010381306055933237
1761316548147595000,3.489594970703125,-0.0029073443729430437,0.0005022622644901276,-0.0019217676017433405
1761316548157576700,3.49957666015625,0.0014853357570245862,0.00009740190580487251,-0.0011065155267715454
1761316548167560000,3.509559814453125,0.0022475323639810085,0.0015197964385151863,0.0013526474358513951
1761316548177542000,3.5195419921875,0.002326367888599634,0.0008455794304609299,0.003730097785592079
1761316548187524900,3.52952490234375,-0.0006417250842787325,-0.0000532371923327446,0.0009162017377093434
1761316548197506800,3.5395068359375,0.00028864876367151737,-0.0012286771088838577,0.0002934187650680542
1761316548207490000,3.549489990234375,-0.0001358591252937913,-0.0022926097735762596,0.0013453674037009478
1761316548217471700,3.5594716796875,-0.000801143585704267,0.0004305909387767315,-0.000037895748391747475
1761316548227454000,3.569453857421875,0.00006678060162812471,-0.0005278806202113628,0.004083878360688686
1761316548237436700,3.579436767578125,0.0023492081090807915,-0.0007899478077888489,-0.002298106672242284
1761316548247419000,3.5894189453125,0.00006341701373457909,0.0020415252074599266,0.0019949087873101234
1761316548257401900,3.59940185546875,0.003677314380183816,0.00014562951400876045,0.0020668483339250088
1761316548267383800,3.6093837890625,-0.0009608470136299729,0.00036028027534484863,0.0050860741175711155
1761316548277366800,3.61936669921875,0.0005257581360638142,0.0009431089274585247,-0.00035715242847800255
1761316548287348700,3.6293486328125,0.0028506978414952755,0.0007497635670006275,-0.0001845797523856163
1761316548297331700,3.639331787109375,-0.00018762971740216017,-0.0002616266719996929,-0.0004410871770232916
1761316548307314000,3.64931396484375,-0.001868084422312677,-0.0011258223094046116,0.001007139915600419
1761316548317297000,3.659296875,0.0008075596997514367,0.0012435219250619411,0.0023205329198390245
1761316548327278800,3.66927880859375,0.002116503193974495,-0.00014025671407580376,0.0006643130909651518
1761316548337261800,3.67926171875,0.001164800487458706,0.0009926771745085716,-0.000493096886202693
1761316548347243800,3.689243896484375,0.00021671515423804522,0.003319214563816786,0.0015729833394289017
1761316548357226800,3.699226806640625,0.001809875713661313,0.0012648161500692368,0.0010627961019054055
1761316548367209000,3.709208984375,-0.0013478343607857823,0.000965476967394352,0.0006217766785994172
1761316548377191000,3.71919091796875,-0.00010440556798130274,0.00101903872564435,-0.0005291684065014124
1761316548387174000,3.729173828125,0.0010564662516117096,0.0015346268191933632,-0.0007350307423621416
1761316548397155800,3.73915576171875,-0.000869135488756001,0.0005519096739590168,-0.0019447654485702515
1761316548407138800,3.749138916015625,0.0007660454139113426,-0.0008300049230456352,0.0005290447734296322
1761316548417121000,3.75912109375,0.00011186895426362753,0.0007053688168525696,-0.0026353229768574238
1761316548427103700,3.769103759765625,0.0028541255742311478,0.00012027239426970482,0.0028318804688751698
1761316548437086000,3.7790859375,0.0011586134787648916,-0.0019180797971785069,0.0008690040558576584
1761316548447069000,3.78906884765625,0.0009415657259523869,0.0004516011103987694,0.000707350205630064
1761316548457051000,3.79905078125,0.001382754067890346,-0.0004671006463468075,-0.0012563865166157484
1761316548467033900,3.809033935546875,-0.0006782663986086845,-0.0020282454788684845,-0.0009320136159658432
1761316548477016000,3.81901611328125,-0.00005191459786146879,-0.0008854838088154793,0.0001974587794393301
1761316548486998800,3.828998779296875,-0.0014687161892652512,-0.0033928498160094023,0.0012613915605470538
1761316548496981000,3.83898095703125,-0.00036283466033637524,0.00034533627331256866,0.0020058380905538797
1761316548506962700,3.848962646484375,-0.0010438049212098122,-0.0006291139870882034,-0.0012232447043061256
1761316548516946000,3.85894580078125,0.00026894849725067616,0.0011714911088347435,0.0008871109457686543
1761316548526928000,3.868927978515625,-0.0017380096251145005,0.0008497815579175949,0.00065408437512815
1761316548536910800,3.878910888671875,-0.0001871405402198434,0.00022418564185500145,-0.0003184727393090725
1761316548546892800,3.888892822265625,-0.0007285611354745924,-0.0005382774397730827,0.00016515725292265415
1761316548556876000,3.8988759765625,0.00007853563874959946,-0.0000784299336373806,-0.00010839547030627728
1761316548566857700,3.908857666015625,0.003138507716357708,0.00012450292706489563,-0.00010440056212246418
1761316548576841000,3.918841064453125,0.0005516442470252514,-0.0004016212187707424,0.0009546717628836632
1761316548586822700,3.92882275390625,-0.002383159240707755,-0.0008913762867450714,0.000790088321082294
1761316548596806000,3.938805908203125,0.0013495939783751965,0.0005189664661884308,-0.001338472357019782
1761316548606787800,3.948787841796875,0.001259312964975834,-0.00012711668387055397,0.0011630348162725568
1761316548616770800,3.958770751953125,-0.0017545785522088408,-0.00047919945791363716,-0.0007016030140221119
1761316548626752800,3.968752685546875,-0.0010594935156404972,0.0022651879116892815,-0.003198316553607583
1761316548636736000,3.978736083984375,-0.0027455370873212814,-0.0006915959529578686,0.002119567012414336
1761316548646717700,3.9887177734375,0.0029048919677734375,0.0019382755272090435,0.0005477693630382419
1761316548656700000,3.998699951171875,-0.0007203985587693751,0.001970084849745035,0.00038300734013319016
1761316548666683000,4.008682861328125,0.0006252967286854982,0.001730666495859623,-0.0014963853172957897
1761316548676664800,4.018664794921875,-0.00028688344173133373,-0.0007171155884861946,-0.0015007818583399057
1761316548686647800,4.028647705078125,-0.0003193740267306566,0.0007657324895262718,-0.0019162350799888372
1761316548696629800,4.038629638671875,-0.0011279343161731958,0.0005675796419382095,0.001078088884241879
1761316548706612700,4.04861279296875,0.0039685568772256374,0.0009449496865272522,-0.0007403173949569464
1761316548716595000,4.058594970703125,-0.0008736514719203115,-0.00023278966546058655,0.0018051876686513424
1761316548726577700,4.06857763671875,-0.001068062148988247,0.0010689632035791874,-0.0017176417168229818
1761316548736559900,4.078559814453125,-0.0017539416439831257,-0.00003464799374341965,0.0012692002346739173
1761316548746542800,4.08854296875,0.0013209441676735878,0.0021803034469485283,0.00001964508555829525
1761316548756524800,4.09852490234375,0.002181834075599909,0.0017703450284898281,0.0022566511761397123
1761316548766507800,4.1085078125,0.0006111016264185309,-0.0004342198371887207,0.0005761964712291956
1761316548776490000,4.118489990234375,0.0002722974168136716,-0.0014743544161319733,-0.0007301955483853817
1761316548786472700,4.12847265625,0.0016046769451349974,-0.0007182830013334751,-0.0012729477602988482
1761316548796455000,4.138454833984375,0.00194492656737566,-0.0011891159228980541,-0.00313074910081923
1761316548806436900,4.148436767578125,-0.0021443571895360947,-0.0009137452580034733,-0.0021720111835747957
1761316548816419800,4.158419921875,0.0008428441360592842,-0.00018473248928785324,-0.0015145379584282637
1761316548826402000,4.168402099609375,0.002506520599126816,-0.0016537322662770748,0.0003693820908665657
1761316548836384800,4.178384765625,0.000007600872777402401,-0.0017481413669884205,-0.0022966929245740175
1761316548846367000,4.188366943359375,0.0001711189979687333,0.00029903044924139977,0.0016559707000851631
1761316548856350000,4.198349853515625,-0.001211247406899929,0.0014280648902058601,-0.000872309785336256
1761316548866332000,4.208331787109375,-0.0005611697561107576,-0.0014273766428232193,0.0022880632895976305
1761316548876315000,4.21831494140625,-0.001040574861690402,-0.0019870344549417496,0.0006618381012231112
1761316548886296800,4.228296875,-0.0010621465044096112,-0.0019713216461241245,-0.0012921232264488935
1761316548896279800,4.23827978515625,-0.0002344080712646246,0.0007604104466736317,-0.00004484551027417183
1761316548906262000,4.248261962890625,-0.0007899435004219413,0.000983051024377346,0.0008829997386783361
1761316548916244700,4.25824462890625,0.0005821743980050087,-0.0010870308615267277,-0.0006599831394851208
1761316548926227000,4.26822705078125,0.0010988276917487383,0.0030592442490160465,0.00041806441731750965
1761316548936209000,4.278208984375,-0.0010602727998048067,0.0018126238137483597,-0.0010447734966874123
1761316548946192000,4.28819189453125,0.0003956772852689028,-0.0007922141812741756,-0.0013126875273883343
1761316548956174300,4.29817431640625,0.0015588417882099748,0.00022351974621415138,0.000043584033846855164
1761316548966157300,4.3081572265625,0.0005697439191862941,0.0014035664498806,0.0015759668312966824
1761316548976139300,4.31813916015625,-0.00004018563777208328,0.0015183519572019577,0.001786212669685483
1761316548986122500,4.32812255859375,0.001734012272208929,0.0005170032382011414,0.0005502395797520876
1761316548996104200,4.338104248046875,-0.0020893532782793045,-0.00007332675158977509,0.0027364722918719053
1761316549006087400,4.34808740234375,-0.000022740219719707966,-0.0009572296403348446,-0.00003907410427927971
1761316549016069000,4.358069091796875,0.00019954668823629618,-0.00029505183920264244,-0.0020775827579200268
1761316549026052400,4.36805224609375,0.0016765359323471785,0.0008615590631961823,0.0006729299202561378
1761316549036034300,4.378034423828125,-0.0017017016652971506,0.0005038795061409473,-0.00010804319754242897
1761316549046017300,4.388017333984375,0.0004986019339412451,-0.00048681627959012985,-0.0013914203736931086
1761316549055999200,4.397999267578125,-0.0019901187624782324,0.0005017123185098171,0.002548783551901579
1761316549065982500,4.407982421875,0.0006448128260672092,-0.0006021680310368538,0.0011671356623992324
1761316549075964200,4.417964111328125,0.00017120118718594313,-0.0030345891136676073,-0.000495539978146553
1761316549085946400,4.4279462890625,0.001116623287089169,-0.003057758556678891,0.00021339347586035728
1761316549095929300,4.437929443359375,-0.000757683243136853,-0.0005848081782460213,-0.0011308521497994661
1761316549105911300,4.447911376953125,0.0009760346729308367,0.00002292497083544731,-0.001874406822025776
1761316549115894300,4.457894287109375,-0.00278896139934659,0.0010469998233020306,0.00020914152264595032
1761316549125876200,4.467876220703125,0.0008188228821381927,0.0018001417629420757,0.0010301941074430943
1761316549135859200,4.477859130859375,0.0013666764134541154,-0.001854713773354888,0.00022749649360775948
1761316549145841400,4.48784130859375,0.00038663309533149004,0.0019062021747231483,-0.0005253790877759457
1761316549155824000,4.49782421875,0.0019782548770308495,0.0019776462577283382,0.00013513420708477497
1761316549165806300,4.507806396484375,-0.002132600639015436,-0.0002700616605579853,0.0008067834423854947
1761316549175789300,4.517789306640625,-0.002227828139439225,-0.0000797840766608715,-0.00017390609718859196
1761316549185771300,4.527771240234375,0.0009226913098245859,0.001888025552034378,0.00016298377886414528
1761316549195754200,4.537754150390625,-0.00026984233409166336,0.0010261228308081627,0.0005644224584102631
1761316549205736400,4.547736328125,-0.00007809465751051903,0.0004591355100274086,-0.00045130704529583454
1761316549215719200,4.55771923828125,0.0011828511487692595,0.0031233360059559345,-0.0009128479287028313
1761316549225701400,4.567701416015625,0.0007564791012555361,0.0015211785212159157,0.0032752391416579485
1761316549235683300,4.577683349609375,-0.0009217197657562792,-0.0009689987637102604,0.0019461116753518581
1761316549245666300,4.587666259765625,0.0004434165311977267,-0.0009815152734518051,0.0006097374716773629
1761316549255648300,4.597648193359375,0.0018339335219934583,-0.0006938530132174492,0.000034234486520290375
1761316549265631200,4.60763134765625,-0.0002864752896130085,0.0027533425018191338,0.0005652687977999449
1761316549275613200,4.61761328125,-0.0010326453484594822,-0.0009233662858605385,-0.0007152552716434002
1761316549285596400,4.627596435546875,-0.000719457573723048,0.0006787911988794804,-0.0030953222885727882
1761316549295578400,4.637578369140625,-0.0005381503142416477,0.0004964428953826427,-0.00017538992688059807
1761316549305561300,4.647561279296875,0.0000197818735614419,-0.00039251986891031265,0.0007849459070712328
1761316549315543300,4.657543212890625,-0.0025271722115576267,-0.00016691582277417183,-0.001515476731583476
1761316549325526300,4.6675263671875,0.0005493112839758396,-0.0008670608513057232,-0.0021684837993234396
1761316549335508200,4.67750830078125,0.000472709652967751,-0.00024692388251423836,-0.0004846311639994383
1761316549345491200,4.6874912109375,0.0018064208561554551,-0.0019809079822152853,0.000014178920537233353
1761316549355473200,4.69747314453125,0.0003852603258565068,0.00024678464978933334,-0.003491281997412443
1761316549365455400,4.707455322265625,-0.0005159534048289061,0.00042202090844511986,-0.0004883015062659979
1761316549375438300,4.717438232421875,-0.0004739598371088505,-0.0001146397553384304,0.0005607218481600285
1761316549385420300,4.727420166015625,-0.001156794372946024,-0.0019985598046332598,-0.0006645985413342714
1761316549395403300,4.7374033203125,0.0018255501054227352,0.0005753906443715096,-0.0015851038042455912
1761316549405385200,4.74738525390625,0.0017017133068293333,-0.0008784285746514797,-0.0004287592601031065
1761316549415368200,4.7573681640625,0.00036894273944199085,-0.0019058040343225002,-0.001574493944644928
1761316549425350100,4.76735009765625,0.00013804668560624123,-0.0022285792510956526,-0.0008581036236137152
1761316549435333400,4.77733349609375,-0.0017032198375090957,0.000657795462757349,-0.000636235112324357
1761316549445315300,4.7873154296875,0.0005636627320200205,-0.0008229222148656845,0.0005898842355236411
1761316549455298300,4.79729833984375,-0.002169536892324686,-0.0010727904736995697,-0.0005091184284538031
1761316549465280300,4.8072802734375,-0.0010571344755589962,-0.0007311068475246429,0.000657346099615097
1761316549475263200,4.81726318359375,0.0013738148845732212,0.0005355472676455975,-0.0013118453789502382
1761316549485245200,4.8272451171875,-0.00005310692358762026,0.0020652669481933117,0.001184868044219911
1761316549495228400,4.837228515625,-0.000264141708612442,-0.0010360400192439556,0.0019651062320917845
1761316549505210000,4.847210205078125,0.0011502632405608892,-0.0010738568380475044,0.00002366187982261181
1761316549515192300,4.8571923828125,-0.0016812323592603207,-0.0007601585239171982,-0.0006397329270839691
1761316549525175300,4.86717529296875,0.0005923081189393997,-0.00023125484585762024,0.0000777228269726038
1761316549535157200,4.8771572265625,-0.0031687417067587376,-0.0011325613595545292,-0.0008827811107039452
1761316549545140200,4.88714013671875,-0.0014502039412036538,-0.00042469287291169167,0.0011529391631484032
1761316549555122400,4.897122314453125,0.00011811673175543547,0.00032747723162174225,0.0005973168881610036
1761316549565105200,4.907105224609375,0.0013029570691287518,0.0010563842952251434,0.0012806840240955353
1761316549575087400,4.91708740234375,-0.00018235971219837666,0.0005951160565018654,-0.0019620037637650967
1761316549585070300,4.9270703125,-0.0014968960313126445,0.003133641555905342,0.00046120653860270977
1761316549595052300,4.93705224609375,-0.0011867512948811054,0.0012909723445773125,0.0003996719606220722
1761316549605035300,4.94703515625,0.00047133280895650387,-0.0008249091915786266,0.000006589572876691818
1761316549615017200,4.957017333984375,-0.0005338746123015881,0.0009171529673039913,0.0010567063000053167
1761316549625000200,4.967000244140625,-0.0019277730025351048,0.0005693440325558186,0.0011760159395635128
1761316549634982400,4.976982421875,0.00013893796131014824,0.0010340339504182339,-0.0001466558314859867
1761316549644964000,4.986964111328125,-0.0014783997321501374,0.0003213719464838505,-0.00020071794278919697
1761316549654947300,4.996947265625,-0.0001543500693514943,0.00004360545426607132,0.00035979622043669224
1761316549664929300,5.00692919921875,-0.002123491372913122,0.002160285599529743,0.0007922935765236616
1761316549674912300,5.016912353515625,-0.0016546379774808884,-0.00040169013664126396,-0.0003401113208383322
1761316549684894200,5.026894287109375,0.00026976235676556826,-0.0020398006308823824,0.001841283985413611
1761316549694877400,5.03687744140625,0.001866563456133008,-0.00022936193272471428,-0.0021798736415803432
1761316549704859100,5.046859130859375,-0.002007803414016962,-0.003991875797510147,-0.002213961910456419
1761316549714842400,5.05684228515625,-0.0024094819091260433,0.0018455390818417072,0.00021621561609208584
1761316549724824000,5.066823974609375,-0.003158629173412919,-0.00015689199790358543,-0.001568368636071682
1761316549734807300,5.076807373046875,-0.0029233696404844522,-0.0019512507133185863,0.0014027851866558194
1761316549744789200,5.086789306640625,-0.0012037665583193302,-0.0014311354607343674,0.0004882556386291981
1761316549754772200,5.096772216796875,-0.00278331246227026,-0.0007289559580385685,-0.0006683450192213058
1761316549764754200,5.106754150390625,0.001931281527504325,-0.0023247222416102886,-0.0031597320921719074
1761316549774736100,5.116736083984375,-0.0020914762280881405,0.00026320479810237885,-0.0011950393673032522
1761316549784719000,5.126718994140625,-0.0010834697168320417,0.00005467934533953667,-0.00011326349340379238
1761316549794701300,5.136701416015625,-0.002080111065879464,-0.000490743201225996,0.0002235802821815014
1761316549804684300,5.146684326171875,-0.002014331053942442,0.0017649540677666664,-0.0014781798236072063
1761316549814666200,5.156666259765625,0.00010101764928549528,0.0017742267809808254,-0.0004321453161537647
1761316549824649200,5.166649169921875,-0.00042868510354310274,0.0009917900897562504,0.0004988957662135363
1761316549834631200,5.176631103515625,0.0009035214316099882,0.0000981716439127922,-0.0024688257835805416
1761316549844614100,5.1866142578125,-0.0016488522524014115,0.001775696873664856,-0.0022195535711944103
1761316549854596400,5.196596435546875,-0.0020780896302312613,0.0006470857188105583,0.0002671161200851202
1761316549864579300,5.206579345703125,0.0012540575116872787,0.0013498938642442226,0.0007832368137314916
1761316549874561300,5.216561279296875,-0.0021159271709620953,-0.0010776091367006302,-0.0006131625268608332
1761316549884544300,5.226544189453125,0.000981595367193222,0.0002164212055504322,-0.0009607051033526659
1761316549894526200,5.236526123046875,0.0005709007382392883,-0.0017322157509624958,0.00034242821857333183
1761316549904509200,5.24650927734375,-0.0031162456143647432,-0.0014392677694559097,0.0009355141082778573
1761316549914491100,5.2564912109375,0.0018369585741311312,0.00014986423775553703,-0.0012745487038046122
1761316549924473300,5.266473388671875,-0.002207317855209112,0.0006233742460608482,-0.0012726846616715193
1761316549934456300,5.276456298828125,-0.00004686741158366203,-0.0008222479373216629,0.001283656107261777
1761316549944438300,5.286438232421875,-0.002096436219289899,-0.00037776632234454155,0.00006552622653543949
1761316549954421200,5.296421142578125,0.0008711742702871561,-0.001319927629083395,-0.0016390550881624222
1761316549964403200,5.3064033203125,-0.0008004920091480017,-0.0008852998726069927,-0.00016100076027214527
1761316549974386200,5.31638623046875,-0.0006051443051546812,-0.004660032223910093,-0.0002812675666064024
1761316549984368000,5.3263681640625,-0.0002578680869191885,-0.0027952869422733784,-0.0006208205595612526
1761316549994351000,5.33635107421875,0.00005361356306821108,0.0003345618024468422,-0.0032990833278745413
1761316550004333000,5.3463330078125,0.0007265943568199873,-0.0001868847757577896,0.0004876652965322137
1761316550014316000,5.35631591796875,-0.0013110883301123977,0.00006701238453388214,0.0018363415729254484
1761316550024298200,5.36629833984375,0.0018972217803820968,-0.0016067842952907085,-0.0009538524318486452
1761316550034281000,5.376281005859375,-0.0005717632593587041,0.0010795923881232738,0.001277536852285266
1761316550044263200,5.38626318359375,0.0008487668819725513,-0.0008741025812923908,0.001688462565653026
1761316550054246100,5.39624609375,-0.00042344245593994856,0.000937329139560461,0.0014847276033833623
1761316550064228000,5.40622802734375,0.0003179816994816065,-0.0006712200120091438,0.00076407624874264
1761316550074210000,5.4162099609375,-0.0011033483315259218,-0.0011333199217915535,0.0009068775689229369
1761316550084193300,5.426193359375,-0.0003201126819476485,-0.0009200004860758781,0.00042031798511743546
1761316550094175000,5.436175048828125,0.0018887980841100216,0.0009476076811552048,0.0007932422449812293
1761316550104158200,5.446158203125,0.0007963695097714663,-0.0006428323686122894,-0.001176964258775115
1761316550114140200,5.45614013671875,-0.0015358615200966597,0.0005356916226446629,-0.0005200898740440607
1761316550124123100,5.466123046875,-0.001512691960670054,-0.00009734183549880981,-0.0008447291329503059
1761316550134105000,5.47610498046875,-0.0009318801457993686,-0.00027291523292660713,-0.000596699072048068
1761316550144088000,5.486088134765625,-0.00175373163074255,0.001054670661687851,-0.0020904659759253263
1761316550154070000,5.496070068359375,-0.002527764532715082,0.0006084884516894817,0.0010463400976732373
1761316550164053200,5.50605322265625,-0.0031983484514057636,0.0020567155443131924,-0.00006499700248241425
1761316550174035200,5.51603515625,-0.0007627233862876892,0.0020340182818472385,-0.0009807553142309189
1761316550184018200,5.52601806640625,0.0005467528244480491,0.0005945796146988869,0.0007012971909716725
1761316550194000100,5.536000244140625,-0.002081675920635462,0.00024374714121222496,-0.0015490548685193062
1761316550203982000,5.545982177734375,-0.0006776574882678688,-0.0005061989650130272,0.0007995869964361191
1761316550213965000,5.555965087890625,-0.002148799831047654,-0.0004244609735906124,0.00040008104406297207
1761316550223947000,5.565947021484375,-0.0007719455752521753,-0.0006082188338041306,-0.0013594694901257753
1761316550233930000,5.575929931640625,0.0018482008017599583,0.0012843701988458633,0.0013740970753133297
1761316550243912200,5.585912109375,-0.0011824764078482985,0.000298467930406332,0.000696322531439364
1761316550253895200,5.595895263671875,-0.0021677929908037186,-0.0020017812494188547,0.0006926886271685362
1761316550263877000,5.605877197265625,0.0008730043191462755,-0.00005767354741692543,-0.0007022751960903406
1761316550273860000,5.615860107421875,0.0006731350440531969,-0.0002503925934433937,0.0014795050956308842
1761316550283842000,5.625842041015625,0.00017752067651599646,-0.00023467978462576866,0.001954613020643592
1761316550293825000,5.635824951171875,-0.0016245752340182662,-0.00013399869203567505,-0.0005945053417235613
1761316550303807000,5.645806884765625,-0.0014530676417052746,-0.0021758442744612694,0.000848661526106298
1761316550313790200,5.655790283203125,-0.0003928209189325571,0.000010631978511810303,-0.000035481760278344154
1761316550323772200,5.665772216796875,0.001148883020505309,-0.0009121536277234554,-0.000490083359181881
1761316550333755100,5.675755126953125,0.0011485604336485267,-0.0016834656707942486,-0.0031553369481116533
1761316550343737000,5.685737060546875,-0.0012283108662813902,-0.002739408751949668,-0.0004674084484577179
1761316550353719000,5.695718994140625,0.0012321551330387592,0.0017069592140614986,0.0013001427287235856
1761316550363702000,5.705701904296875,-0.0009700128575786948,-0.001064059790223837,-0.00122693064622581
1761316550373684200,5.715684326171875,-0.000773381267208606,0.0019907429814338684,0.0013467523967847228
1761316550383667200,5.725667236328125,0.0002575283870100975,-0.0027909628115594387,-0.0001416883897036314
1761316550393649200,5.735649169921875,-0.0012259449576959014,0.0003303550183773041,-0.0011830443982034922
1761316550403632000,5.745632080078125,-0.0010781395249068737,-0.0008861767128109932,-0.001750830328091979
1761316550413614000,5.755614013671875,0.000873050419613719,0.0024161706678569317,0.0009326913859695196
1761316550423597000,5.76559716796875,-0.0024037030525505543,-0.0018909596838057041,0.0008136481046676636
1761316550433579300,5.775579345703125,-0.0015170284314081073,0.00027043232694268227,-0.0006832578219473362
1761316550443562000,5.78556201171875,-0.000391310197301209,0.001415325328707695,0.0008746914099901915
1761316550453544200,5.795544189453125,-0.0005011839093640447,-0.0004595816135406494,-0.0005289039108902216
1761316550463527200,5.805527099609375,-0.001862059230916202,0.001326600555330515,0.0024911207146942616
1761316550473509000,5.815509033203125,0.0020330222323536873,0.0010368069633841515,0.0007678346009925008
1761316550483491000,5.825490966796875,0.0013786834897473454,0.002494088839739561,0.0022866353392601013
1761316550493474000,5.83547412109375,0.0012475188123062253,0.0014768429100513458,0.00040556094609200954
1761316550503456000,5.8454560546875,0.001981219742447138,0.002227055374532938,0.00279361754655838
1761316550513439200,5.855439208984375,0.00020213588140904903,0.00015318021178245544,0.0035015519242733717
1761316550523421000,5.8654208984375,0.0008902966510504484,-0.001345647033303976,0.0006189463892951608
1761316550533404200,5.875404052734375,0.0004674716619774699,0.00006391992792487144,0.001603940618224442
1761316550543386000,5.88538623046875,0.001128201954998076,-0.0008197170682251453,0.0017333702417090535
1761316550553369000,5.895369140625,0.0002099501434713602,-0.00010928930714726448,-0.0012624438386410475
1761316550563351000,5.90535107421875,0.000938058365136385,-0.0008776108734309673,0.00048219296149909496
1761316550573334300,5.915334228515625,0.0010938062332570553,0.00046797841787338257,0.0001874440349638462
1761316550583316000,5.92531591796875,-0.0010740068973973393,-0.0009392360225319862,0.002066570334136486
1761316550593299200,5.93529931640625,0.0020754432771354914,-0.002425458747893572,-0.0010739201679825783
1761316550603281000,5.945281005859375,-0.004166207276284695,0.0011522318236529827,0.0031882026232779026
1761316550613264100,5.95526416015625,-0.0005028267623856664,-0.0007875808514654636,0.000020511215552687645
1761316550623246000,5.96524609375,0.0010021255584433675,-0.0003545507788658142,0.0010913682635873556
1761316550633228000,5.97522802734375,0.0014140924904495478,-0.001069508958607912,-0.003363207448273897
1761316550643211000,5.9852109375,-0.0008328165858983994,-0.0006932043470442295,0.0020741685293614864
1761316550653193000,5.99519287109375,0.00000982917845249176,-0.0028399676084518433,-0.0007124023977667093
1761316550663176000,6.005176025390625,0.001075892592780292,-0.002474049339070916,0.0017438312061131
1761316550673158100,6.015158203125,-0.001870173728093505,-0.00078184949234128,-0.0011034037452191114
1761316550683141000,6.02514111328125,-0.0018121168250218034,-0.0015219422057271004,0.0010002271737903357
1761316550693123000,6.035123046875,0.000941956415772438,-0.0002179071307182312,0.00047544040717184544
1761316550703106000,6.04510595703125,-0.0009510185336694121,-0.0007603932172060013,0.0006059353472664952
1761316550713088000,6.055087890625,0.00003858248237520456,0.00025806110352277756,-0.0010819898452609777
1761316550723071000,6.065071044921875,-0.0004373244009912014,-0.00015712575986981392,-0.00024389312602579594
1761316550733053200,6.07505322265625,-0.00002008222509175539,0.00037697935476899147,0.000002598389983177185
1761316550743036000,6.085035888671875,-0.00009092222899198532,0.0021921899169683456,-0.0012600063346326351
1761316550753018000,6.09501806640625,0.0009179323678836226,-0.0010286858305335045,-0.0011173055972903967
1761316550763001000,6.1050009765625,-0.001303143915720284,0.0021929400973021984,0.0013826036592945457
1761316550772983000,6.114983154296875,-0.004008781164884567,0.002803660463541746,0.00045508192852139473
1761316550782965200,6.12496533203125,0.0008173995884135365,0.0040023489855229855,0.00013523641973733902
1761316550792948000,6.134947998046875,0.0011133762309327722,0.0021045044995844364,0.0005212532123550773
1761316550802930200,6.14493017578125,-0.002278425730764866,0.0010307179763913155,0.0002874275669455528
1761316550812913200,6.1549130859375,-0.0018212194554507732,0.0012077675200998783,0.0008653150871396065
1761316550822895000,6.16489501953125,-0.0005908390157856047,0.0013659591786563396,0.001325243036262691
1761316550832878000,6.174878173828125,-0.00022506213281303644,0.00040173251181840897,-0.0006972893606871367
1761316550842860300,6.1848603515625,-0.0008106912719085813,-0.000647552777081728,-0.0016016988083720207
1761316550852843000,6.194843017578125,0.0017967801541090012,-0.001033327542245388,0.003041958436369896
1761316550862825200,6.2048251953125,0.00034961849451065063,-0.0005377130582928658,-0.001098990673199296
1761316550872808200,6.21480810546875,-0.0030444245785474777,-0.0006904024630784988,-0.0008313213475048542
1761316550882790100,6.2247900390625,0.0036401094403117895,0.0018917983397841454,0.0008054575882852077
1761316550892773000,6.234773193359375,-0.002646950539201498,-0.0009386790916323662,-0.0012324675917625427
1761316550902755000,6.244755126953125,-0.0008003146504051983,-0.0004933984018862247,-0.0005019623786211014
1761316550912737000,6.254737060546875,0.0011322778882458806,-0.0010760677978396416,0.0010349128860980272
1761316550922720300,6.26472021484375,0.003685183823108673,0.0007793563418090343,-0.001036493806168437
1761316550932702000,6.274701904296875,0.0011758148903027177,-0.0024421848356723785,0.0014066142030060291
1761316550942685200,6.284685302734375,0.0015499891014769673,-0.001902628457173705,-0.00040273740887641907
1761316550952667000,6.2946669921875,-0.002770473249256611,-0.0016665393486618996,0.0009941845200955868
1761316550962650000,6.304650146484375,0.0016562329838052392,0.00035293586552143097,0.0027468109037727118
1761316550972632000,6.314632080078125,0.002147868275642395,-0.0012076529674232006,0.00009662494994699955
1761316550982615300,6.324615234375,0.0003212061710655689,0.0009843949228525162,0.0005727981915697455
1761316550992597000,6.334596923828125,-0.0014718500897288322,-0.00044696684926748276,-0.00034852116368710995
1761316551002580200,6.344580322265625,0.0006999578326940536,-0.0013814698904752731,-0.0005088434554636478
1761316551012562000,6.35456201171875,0.00042384653352200985,-0.0005223969928920269,-0.0001877807080745697
1761316551022545200,6.364545166015625,-0.0010416909353807569,-0.0009738029912114143,-0.002084217732772231
1761316551032527000,6.374527099609375,0.002082750666886568,-0.0007880767807364464,-0.0002926783636212349
1761316551042510300,6.38451025390625,-0.00042647961527109146,-0.00010630767792463303,-0.0007539379876106977
1761316551052492000,6.394491943359375,-0.00037188048008829355,-0.001340397633612156,-0.0016590382438153028
1761316551062474200,6.40447412109375,0.0013439941685646772,0.0014591170474886894,-0.00039536855183541775
1761316551072457000,6.41445703125,0.00034505536314100027,-0.00047789281234145164,-0.0001836405135691166
1761316551082439200,6.424439208984375,-0.0009809324983507395,0.001481927465647459,0.00025764526799321175
1761316551092422100,6.434422119140625,-0.0026546893641352654,0.00221567926928401,-0.001426916103810072
1761316551102404000,6.444404052734375,0.0006622776854783297,0.001129908487200737,0.0006985526997596025
1761316551112387000,6.454386962890625,-0.00022688216995447874,-0.0015007457695901394,0.0007410211255773902
1761316551122369000,6.464369140625,-0.001696947030723095,0.0020207525230944157,0.0013125354889780283
1761316551132352000,6.47435205078125,0.0009467990603297949,0.0011542881838977337,0.00003187032416462898
1761316551142334200,6.484334228515625,0.002437370363622904,0.0011489614844322205,-0.0008674792479723692
1761316551152317000,6.49431689453125,-0.003066019155085087,-0.0010495311580598354,-0.0005775147583335638
1761316551162299100,6.504299072265625,0.001345773576758802,0.000500162597745657,-0.00046486291103065014
1761316551172282000,6.5142822265625,0.00006389745976775885,-0.0017200694419443607,-0.002646977547556162
1761316551182264000,6.52426416015625,-0.0008394468459300697,-0.0013395040296018124,-0.00006903777830302715
1761316551192246300,6.534246337890625,0.00031250191386789083,0.00129650067538023,-0.0006845935713499784
1761316551202229200,6.544229248046875,-0.0009727395954541862,-0.0021632120478898287,-0.0019250938203185797
1761316551212211200,6.554211181640625,-0.0017433854518458247,-0.0030159568414092064,0.002585075329989195
1761316551222194200,6.564194091796875,0.0005487971939146519,-0.00007875636219978333,0.00012351549230515957
1761316551232176000,6.574176025390625,0.0005230706883594394,-0.000009014271199703217,0.0011194016551598907
1761316551242159000,6.5841591796875,-0.0005805433029308915,-0.0016370047815144062,-0.00017516082152724266
1761316551252141300,6.594141357421875,-0.0001748471986502409,0.0009138374589383602,-0.0011896903160959482
1761316551262124000,6.6041240234375,-0.0004227873869240284,0.001224894542247057,-0.0004751640371978283
1761316551272106200,6.614106201171875,-0.001307929866015911,-0.0010192301124334335,-0.0008165861945599318
1761316551282089200,6.624089111328125,0.0014905198477208614,-0.0012442669831216335,-0.0003878171555697918
1761316551292071200,6.6340712890625,-0.002053541596978903,0.0022874842397868633,-0.0004157519433647394
1761316551302054100,6.64405419921875,0.0006988353561609983,-0.001336012501269579,0.00024737510830163956
1761316551312036000,6.6540361328125,-0.0015926932683214545,0.0014531426131725311,0.00015044724568724632
1761316551322019000,6.66401904296875,-0.00009146938100457191,0.003291256260126829,0.0007254238007590175
1761316551332001300,6.674001220703125,-0.0013268887996673584,-0.0002219630405306816,-0.0007580083329230547
1761316551341983000,6.68398291015625,-0.0015657743206247687,-0.0013905582018196583,-0.0002006087452173233
1761316551351966200,6.69396630859375,0.00005956913810223341,-0.0008195885457098484,0.0013283095322549343
1761316551361948200,6.7039482421875,-0.00036041135899722576,0.000911998562514782,-0.0024051759392023087
1761316551371931100,6.71393115234375,-0.0008916918886825442,0.0010015959851443768,0.0006233664462342858
1761316551381913000,6.7239130859375,-0.0009944899939000607,0.0021403636783361435,0.0021821146365255117
1761316551391896300,6.733896240234375,-0.0008716688025742769,-0.0007484233938157558,-0.0008036037907004356
1761316551401878000,6.7438779296875,-0.001425339956767857,-0.0005907639861106873,0.0016241339035332203
1761316551411861200,6.753861328125,-0.00007732794620096684,-0.0013833469711244106,0.0025138736236840487
1761316551421843000,6.763843017578125,-0.0009809384355321527,-0.0004789377562701702,-0.0031626541167497635
1761316551431826200,6.773826171875,0.00033433211501687765,0.0006986968219280243,0.0018610786646604538
1761316551441808100,6.78380810546875,0.00008905492722988129,-0.0008488660678267479,0.0017686670180410147
1761316551451791000,6.793791015625,0.0009535617427900434,0.00128848385065794,-0.0011829463765025139
1761316551461773000,6.80377294921875,0.00001319951843470335,-0.0018878683913499117,-0.0023829666897654533
1761316551471756300,6.81375634765625,0.0007399714086204767,0.001442063134163618,0.00038697407580912113
1761316551481738000,6.823738037109375,-0.0018784485291689634,-0.0017129839397966862,0.0008045576978474855
1761316551491720200,6.83372021484375,0.0019261109409853816,-0.001578248105943203,-0.0015787973534315825
1761316551501703200,6.843703125,0.000004640198312699795,0.0021866625174880028,0.0007914160378277302
1761316551511685000,6.85368505859375,0.0019129312131553888,-0.0018397907260805368,-0.0014345904346555471
1761316551521668000,6.863668212890625,0.001574177062138915,-0.0002392311580479145,0.0038890684954822063
1761316551531650000,6.873650146484375,-0.0015525835333392024,-0.0012074694968760014,-0.0003938607405871153
1761316551541633000,6.883633056640625,-0.0012324715498834848,-0.0006332919001579285,-0.0012007984332740307
1761316551551615200,6.893615234375,0.0013285315362736583,-0.001857455587014556,-0.00016205688007175922
1761316551561598000,6.903597900390625,0.0008808540878817439,0.000959369819611311,0.0005655187414959073
1761316551571580200,6.913580078125,0.00003648956771939993,0.0016748127527534962,-0.001405087998136878
1761316551581563100,6.923563232421875,-0.0018679369240999222,-0.00010630954056978226,-0.0032735620625317097
1761316551591545000,6.933545166015625,-0.002093205926939845,-0.0019421675242483616,0.0022919694893062115
1761316551601528000,6.943528076171875,0.0019635872449725866,-0.0028553653974086046,-0.0010002302005887032
1761316551611510000,6.953510009765625,0.0004825721262022853,-0.0012249681167304516,-0.0011291892733424902
1761316551621492200,6.9634921875,0.00026872020680457354,0.0019172956235706806,-0.000032765790820121765
1761316551631475200,6.97347509765625,-0.00019241240806877613,0.0016585420817136765,-0.001044795149937272
1761316551641457200,6.98345703125,-0.0005410201847553253,0.0001591825857758522,-0.000651978887617588
1761316551651440000,6.993440185546875,-0.00027342350222170353,-0.0003104512579739094,0.00037365476600825787
1761316551661422300,7.00342236328125,-0.00029712554533034563,0.004357803612947464,-0.0023092138580977917
1761316551671405000,7.013405029296875,-0.001225536921992898,0.0006025633774697781,0.0007103354437276721
1761316551681387300,7.02338720703125,-0.0018601682968437672,0.0012385263107717037,-0.001155208796262741
1761316551691370200,7.033370361328125,0.0007849531248211861,0.0018562735058367252,-0.00120024592615664
1761316551701352200,7.043352294921875,0.00014126708265393972,-0.0019342037849128246,0.0007403994677588344
1761316551711335200,7.053335205078125,-0.0005707922973670065,0.0019405419006943703,0.00003619980998337269
1761316551721317000,7.063317138671875,-0.0011063539423048496,0.0010928576812148094,-0.0022373409010469913
1761316551731300000,7.073300048828125,0.0016534569440409541,0.003055575303733349,0.0003492028918117285
1761316551741282300,7.0832822265625,-0.0009569734102115035,0.0010563405230641365,-0.0012883746530860662
1761316551751264000,7.093263916015625,0.0012536688009276986,-0.0016020252369344234,0.0004100718069821596
1761316551761247200,7.103247314453125,-0.0007884431397542357,-0.000028896145522594452,-0.0007678442634642124
1761316551771229200,7.113229248046875,0.002757399808615446,-0.0002358667552471161,0.00033062580041587353
1761316551781212200,7.123212158203125,-0.0016770298825576901,-0.0026316463481634855,0.00043688598088920116
1761316551791194000,7.133194091796875,-0.0009259628714062274,0.0004327520728111267,0.0003748796880245209
1761316551801177300,7.14317724609375,0.000979262520559132,-0.00040880683809518814,-0.00039157806895673275
1761316551811159000,7.153158935546875,0.0004336269339546561,0.0020378180779516697,-0.0009467750787734985
1761316551821142300,7.163142333984375,-0.0013419025344774127,-0.0014716959558427334,-0.0006514305714517832
1761316551831124000,7.1731240234375,0.0006985570071265101,-0.0010579363442957401,0.0010754353133961558
1761316551841107200,7.183107177734375,0.0011848501162603498,-0.0009428877383470535,-0.001593851251527667
1761316551851089200,7.193089111328125,0.00040039292071014643,-0.0015102801844477654,0.0012142618652433157
1761316551861072100,7.203072021484375,-0.0006901714950799942,-0.0040064612403512,-0.00019534933380782604
1761316551871054000,7.21305419921875,0.00223445612937212,-0.0012018391862511635,0.000020273495465517044
1761316551881037300,7.223037353515625,0.00030819186940789223,-0.0016393964178860188,0.00015662750229239464
1761316551891019000,7.23301904296875,0.00015970878303050995,-0.0009303404949605465,-0.0005635523702949286
1761316551901001200,7.243001220703125,0.0018327066209167242,-0.0011476543731987476,-0.0012863341253250837
1761316551910984000,7.25298388671875,-0.0018463518936187029,-0.0005789897404611111,-0.00016136886551976204
1761316551920966100,7.262966064453125,0.0006218658527359366,0.0007501938380300999,-0.0020839048083871603
1761316551930949000,7.27294921875,0.001022800337523222,0.0012256507761776447,-0.0007925566751509905
1761316551940931000,7.28293115234375,-0.0016933577135205269,-0.0006492147222161293,-0.002697782125324011
1761316551950914000,7.2929140625,0.0038872617296874523,0.0005488544702529907,-0.00030720513314008713
1761316551960896000,7.30289599609375,0.0004469900159165263,0.00019092578440904617,0.000211312435567379
1761316551970879000,7.31287890625,0.0008248307276517153,-0.0006543779745697975,-0.00033882795833051205
1761316551980861200,7.322861083984375,0.000645333668217063,0.0012524453923106194,-0.0012530912645161152
1761316551990844000,7.332843994140625,0.00023809203412383795,0.0013045375235378742,0.0016374996630474925
1761316552000826000,7.342826171875,-0.00015552318654954433,-0.00005074497312307358,-0.003636891022324562
1761316552010809000,7.35280908203125,-0.00085575005505234,0.0005942592397332191,-0.0007786641363054514
1761316552020791000,7.362791015625,-0.0026738899759948254,-0.00019723223522305489,-0.001261495053768158
1761316552030773200,7.372773193359375,0.00010751944500952959,0.001050037331879139,0.000026484951376914978
1761316552040756200,7.382756103515625,-0.00041366112418472767,0.0001128707081079483,0.000027550384402275085
1761316552050738200,7.39273828125,-0.003445482812821865,-0.0008311690762639046,-0.0006220554932951927
1761316552060721200,7.40272119140625,-0.0005951014463789761,0.0009994879364967346,0.00038195610977709293
1761316552070703000,7.412703125,0.0004148778971284628,-0.002756665926426649,-0.00011837226338684559
1761316552080686000,7.42268603515625,0.001233533606864512,-0.0017819488421082497,0.0006978866877034307
1761316552090668300,7.432668212890625,0.000023081433027982712,-0.00020457105711102486,0.0006409232737496495
1761316552100651000,7.442651123046875,-0.0004134105984121561,-0.002864536363631487,0.00018046284094452858
1761316552110633200,7.45263330078125,0.0028416216373443604,-0.0010130302980542183,0.00031825783662497997
1761316552120616200,7.4626162109375,0.0010184217244386673,-0.0003086240030825138,-0.0006162454374134541
1761316552130598100,7.47259814453125,-0.0017193807289004326,-0.0019722904544323683,0.000954116228967905
1761316552140581000,7.4825810546875,0.0011251417454332113,-0.0006433730013668537,-0.00207656086422503
1761316552150563000,7.49256298828125,0.0006584583315998316,0.0007583517581224442,0.0012347439769655466
1761316552160546000,7.502546142578125,0.0016848405357450247,-0.0005023889243602753,-0.0006241423543542624
1761316552170528300,7.5125283203125,-0.000010664574801921844,0.0013008038513362408,0.0018021997530013323
1761316552180510000,7.522510009765625,-0.00040960608748719096,0.0006547211669385433,-0.0005991726648062468
1761316552190493200,7.5324931640625,-0.0009518623119220138,0.002807315904647112,-0.002246216405183077
1761316552200475100,7.54247509765625,-0.0015223114751279354,0.0015327269211411476,0.00136662763543427
1761316552210458000,7.5524580078125,-0.0005586532060988247,0.0010013389401137829,-0.00037866621278226376
1761316552220440000,7.562440185546875,0.0026065136771649122,0.0016247848980128765,0.0009063089964911342
1761316552230423300,7.57242333984375,0.00107671320438385,-0.0003018379211425781,0.00045487587340176105
1761316552240405000,7.582405029296875,0.0006628581322729588,0.002549075987190008,-0.001936642685905099
1761316552250388200,7.59238818359375,-0.0015947537031024694,0.0014277985319495201,-0.000623280880972743
1761316552260370000,7.602369873046875,0.0000010123476386070251,0.003103193361312151,-0.0002070288173854351
1761316552270353200,7.612353271484375,0.0004146111896261573,0.0013534361496567726,-0.00005573011003434658
1761316552280335000,7.622335205078125,0.0014748155372217298,0.0015398571267724037,0.0019941050559282303
1761316552290318000,7.632318115234375,0.0010228176834061742,0.0022994852624833584,-0.0006289056036621332
1761316552300300000,7.642300048828125,-0.0010089077986776829,-0.000802298542112112,0.0007764443289488554
1761316552310282200,7.6522822265625,0.0003068100195378065,0.000161842443048954,0.0010869659017771482
1761316552320265000,7.662264892578125,0.00040880904998630285,-0.00041792774572968483,-0.00045314012095332146
1761316552330247200,7.6722470703125,0.00023856887128204107,-0.0004990086890757084,-0.0007909093983471394
1761316552340230100,7.682230224609375,-0.0006895427941344678,-0.001095556654036045,0.00025837612338364124
1761316552350212000,7.692212158203125,-0.0016510899877175689,-0.0013017812743782997,-0.0002638909500092268
1761316552360195000,7.702195068359375,-0.0002545283641666174,-0.000668481457978487,0.0005297309253364801
1761316552370177000,7.712177001953125,-0.001391367637552321,-0.0008508432656526566,-0.000306151807308197
1761316552380160000,7.722159912109375,0.0010755183175206184,0.000630407128483057,0.0012813584180548787
1761316552390142200,7.73214208984375,0.00010645447764545679,-0.0013643661513924599,0.0013609692687168717
1761316552400125000,7.742125,0.0011850346345454454,-0.0030032754875719547,0.0017673675902187824
1761316552410107100,7.752107177734375,-0.0006942924810573459,0.0004972256720066071,0.0009227144764736295
1761316552420090000,7.762090087890625,-0.0007134672487154603,0.00001039961352944374,0.0009011428337544203
1761316552430072000,7.772072021484375,-0.0014864691765978932,-0.0013017989695072174,0.002613531658425927
1761316552440054300,7.78205419921875,0.00176045682746917,-0.0013063261285424232,0.002003135159611702
1761316552450037000,7.792037109375,0.00020191411022096872,-0.00035454751923680305,-0.001753656193614006
1761316552460019200,7.802019287109375,-0.0025033247657120228,-0.001220874022692442,0.001634683576412499
1761316552470002200,7.812002197265625,-0.0026468075811862946,-0.0028644083067774773,-0.00042893877252936363
1761316552479984000,7.821984130859375,-0.0002494299551472068,-0.000540001317858696,-0.0010939300991594791
1761316552489967000,7.831967041015625,0.0012128864182159305,-0.000946688000112772,0.0015450315549969673
1761316552499949300,7.84194921875,0.0017455186462029815,-0.0008529447950422764,0.00039028492756187916
1761316552509932000,7.85193212890625,0.0019167647697031498,0.00294451043009758,-0.000025239773094654083
1761316552519914200,7.861914306640625,0.0008373856544494629,-0.0005535511299967766,0.00016863830387592316
1761316552529897200,7.871897216796875,0.001953816507011652,0.0008019376546144485,-0.0004635155200958252
1761316552539879200,7.881879150390625,0.0012928199721500278,-0.0012130099348723888,0.00002064695581793785
1761316552549862100,7.891862060546875,0.00019420776516199112,0.0020183841697871685,-0.001254382310435176
1761316552559844000,7.901843994140625,0.0013111374573782086,-0.0005110860802233219,0.00021914485841989517
1761316552569827000,7.9118271484375,0.0003642193041741848,0.002085368614643812,0.00027513341046869755
1761316552579809300,7.921809326171875,0.00026195391546934843,-0.0012113582342863083,0.0004639516118913889
1761316552589791000,7.931791015625,-0.000656831543892622,0.0010357839055359364,-0.0016210614703595638
1761316552599774200,7.941774169921875,0.0022899562027305365,0.0007670712657272816,-0.00018535158596932888
1761316552609756200,7.951756103515625,-0.0019757747650146484,0.0002572275698184967,0.0016475188313052058
1761316552619739100,7.9617392578125,-0.0018609926337376237,0.0003232741728425026,0.0009617548203095794
1761316552629721000,7.97172119140625,0.000377012649551034,-0.0003199423663318157,-0.0002421252429485321
1761316552639704300,7.981704345703125,-0.0013617652002722025,0.00015649711713194847,-0.00019232393242418766
1761316552649686000,7.99168603515625,-0.0013280739076435566,-0.0004952177405357361,0.0009161048801615834
1761316552659669200,8.001669189453125,0.0032317903824150562,0.00042277388274669647,-0.0006474368274211884
1761316552669651000,8.01165087890625,0.0005454471101984382,0.00006462354212999344,-0.0004498022608458996
1761316552679634200,8.02163427734375,-0.0002574959071353078,-0.001947128213942051,0.0007262496510520577
1761316552689616100,8.0316162109375,-0.0005919112008996308,-0.0005565425381064415,-0.0009589055553078651
1761316552699599000,8.04159912109375,-0.0002728644758462906,-0.0011421716772019863,-0.0001983067486435175
1761316552709581000,8.0515810546875,-0.0007387947989627719,-0.0012556789442896843,0.0011828939896076918
1761316552719563000,8.06156298828125,0.0008503133431077003,-0.0010628663003444672,-0.00003257277421653271
1761316552729546000,8.0715458984375,0.0021632276475429535,-0.0006721843965351582,0.001092812162823975
1761316552739528200,8.081528076171875,0.0008990253554657102,-0.0017678090371191502,-0.0008313218131661415
1761316552749511000,8.091510986328124,-0.0009122690535150468,-0.0012707901187241077,0.0017033377662301064
1761316552759493000,8.1014931640625,0.0009223825763911009,-0.00034747179597616196,0.001422374160028994
1761316552769476000,8.11147607421875,0.000994672765955329,0.0008578072302043438,0.00020415708422660828
1761316552779458000,8.1214580078125,-0.0007265281747095287,-0.0005382215604186058,-0.0009188980329781771
1761316552789441000,8.13144091796875,0.0005913401255384088,0.0007761907763779163,0.0018589796964079142
1761316552799423200,8.14142333984375,-0.0002683283528313041,0.0010757963173091412,0.0009551027324050665
1761316552809406000,8.151406005859375,0.0018806415610015392,0.0018368856981396675,0.00015245983377099037
1761316552819388200,8.16138818359375,-0.00010634283535182476,-0.0008246777579188347,-0.0020246743224561214
1761316552829371100,8.17137109375,-0.0011772930156439543,-0.00015423400327563286,0.0012915737461298704
1761316552839353000,8.18135302734375,0.00039157504215836525,0.003161401953548193,0.0017642849124968052
1761316552849335300,8.191335205078126,0.000880592386238277,0.00006196368485689163,0.0011300930054858327
1761316552859318000,8.201318115234375,0.0010859220055863261,-0.0006051580421626568,-0.0016635630745440722
1761316552869300200,8.21130029296875,0.0005239949095994234,0.0003968593664467335,0.0018500583246350288
1761316552879283200,8.221283203125,0.0013509064447134733,0.0009675747714936733,0.001591998036019504
1761316552889265200,8.23126513671875,-0.0018745086854323745,0.0002855905331671238,-0.0012652480509132147
1761316552899248000,8.241248046875,-0.00080232007894665,0.0033010882325470448,0.0005073519423604012
1761316552909230300,8.251230224609374,-0.00046573439612984657,0.00016838312149047852,0.00042529799975454807
1761316552919213000,8.261213134765624,0.000032010371796786785,-0.0008974135853350163,0.00042929290793836117
1761316552929195300,8.2711953125,0.0018375128274783492,0.00022107316181063652,-0.001681306166574359
1761316552939178200,8.28117822265625,-0.0009031461668200791,-0.0004654894582927227,-0.00012175901792943478
1761316552949160200,8.29116015625,-0.0019334364915266633,-0.0004759044386446476,-0.0012109929230064154
1761316552959143700,8.301143798828125,-0.0015789697645232081,-0.0014825789257884026,0.0018050370272248983
1761316552969125600,8.311125732421875,0.0007451251149177551,0.0007601594552397728,0.0010795840062201023
1761316552979108600,8.321108642578125,-0.0013949911808595061,-0.0013200356625020504,0.00010406807996332645
1761316552989090600,8.331090576171874,0.00013700255658477545,-0.0003901589661836624,-0.0007825614884495735
1761316552999072500,8.341072509765626,0.0008632466197013855,-0.0003850990906357765,-0.00032289978116750717
1761316553009055500,8.351055419921876,0.0004426401574164629,-0.001229759305715561,0.0004547740099951625
1761316553019037700,8.36103759765625,0.0014879308873787522,0.00022965297102928162,-0.00010928348638117313
1761316553029020700,8.371020751953125,-0.0018876477843150496,0.001993609592318535,0.00033676810562610626
1761316553039002600,8.381002685546875,0.0021494380198419094,0.001411442644894123,-0.0007359532173722982
1761316553048985600,8.390985595703125,-0.0004769157385453582,0.0002319328486919403,-0.00013206852599978447
1761316553058967600,8.400967529296874,-0.0003605355741456151,0.0013930713757872581,-0.0032399774063378572
1761316553068950500,8.410950439453124,-0.0016282895812764764,0.00016741175204515457,0.0012159555917605758
1761316553078932500,8.420932373046876,-0.0001944436226040125,-0.00032873544842004776,0.0024830875918269157
1761316553088915700,8.430915771484376,0.004578821361064911,-0.0007477737963199615,-0.0021755362395197153
1761316553098897700,8.440897705078125,-0.0011794656747952104,0.0006269500590860844,0.0012479571159929037
1761316553108880600,8.450880615234375,0.00038084143307060003,0.0020345812663435936,0.000395515700802207
1761316553118862600,8.460862548828125,0.0008721946505829692,0.0003456044942140579,-0.0005075621884316206
1761316553128844500,8.470844482421874,0.00014247046783566475,0.000007838476449251175,-0.0017621852457523346
1761316553138827500,8.48082763671875,-0.0014213377144187689,0.0012123859487473965,-0.0013043875806033611
1761316553148809700,8.490809814453126,-0.0010781587334349751,0.002108749933540821,0.0005058349343016744
1761316553158792400,8.50079248046875,-0.0005607064813375473,-0.0005863690748810768,-0.0009117657318711281
1761316553168774700,8.510774658203125,-0.0020025987178087234,-0.00028609344735741615,-0.0018345792777836323
1761316553178757600,8.520757568359375,-0.0019027302041649818,-0.000327372457832098,-0.0018761246465146542
1761316553188739600,8.530739501953125,0.0006514841224998236,0.001995495520532131,0.0006649091374129057
1761316553198722600,8.54072265625,-0.0016300459392368793,-0.0015321276150643826,-0.00009888550266623497
1761316553208704800,8.550704833984375,0.0009571750415489078,0.0013132593594491482,0.0016181927639991045
1761316553218687500,8.5606875,-0.0006140899495221674,-0.0021957214921712875,-0.0012548253871500492
1761316553228669700,8.570669677734376,0.0005024303682148457,-0.000875511672347784,-0.0018194925505667925
1761316553238652700,8.580652587890626,0.0005652809049934149,-0.0001806933432817459,0.001501202816143632
1761316553248634600,8.590634521484375,-0.000012180185876786709,-0.000996310729533434,-0.004435785114765167
1761316553258616600,8.600616455078125,0.004092549905180931,0.0012748329900205135,0.0005866705905646086
1761316553268599600,8.610599609375,-0.0005710385157726705,0.0000309869647026062,-0.0006493462715297937
1761316553278581500,8.62058154296875,0.00012298126239329576,0.000610757153481245,-0.0009276466444134712
1761316553288564700,8.630564697265624,0.0019254081416875124,0.0004425719380378723,0.0004076987970620394
1761316553298546400,8.64054638671875,-0.000044265761971473694,-0.0009366790764033794,-0.0019518618937581778
1761316553308529700,8.65052978515625,-0.0006852538790553808,0.0007304581813514233,-0.0011960163246840239
1761316553318511600,8.66051171875,0.0011968021281063557,0.000010339543223381042,0.0021814045030623674
1761316553328494600,8.67049462890625,0.0005755411693826318,-0.00031555863097310066,-0.0012306482531130314
1761316553338476500,8.6804765625,0.0007366623030975461,-0.00043247174471616745,-0.001719338120892644
1761316553348459800,8.690459716796875,0.00007058377377688885,0.0010156403295695782,0.0009430082282051444
1761316553358441500,8.70044140625,-0.0007123856339603662,0.0021405592560768127,0.00032568746246397495
1761316553368424700,8.7104248046875,-0.0017580986022949219,0.0006191772408783436,0.0003534469287842512
1761316553378406400,8.720406494140626,0.0027000331319868565,-0.0012964345514774323,-0.0021390055771917105
1761316553388388600,8.730388671875,0.0003434394020587206,-0.00037950417026877403,0.0009741076501086354
1761316553398371600,8.74037158203125,0.000003353692591190338,0.000947549007833004,0.0014441555831581354
1761316553408353500,8.750353515625,-0.0025692484341561794,0.0019197347573935986,-0.000024842331185936928
1761316553418336500,8.76033642578125,0.001985289389267564,0.0026571638882160187,0.0006281647365540266
1761316553428318500,8.770318359375,-0.000025543966330587864,0.002558850683271885,-0.0009537902660667896
1761316553438301400,8.780301513671875,0.000678862095810473,0.0007428410463035107,0.0011969787301495671
1761316553448283600,8.79028369140625,-0.0012796142837032676,0.0012193010188639164,0.0022302065044641495
1761316553458266600,8.8002666015625,0.00005889043677598238,0.0001612273044884205,-0.0009325635619461536
1761316553468248600,8.81024853515625,0.00015871238429099321,0.0023142430000007153,0.0006165060913190246
1761316553478231600,8.8202314453125,-0.003486356232315302,-0.0006999229080975056,0.000633017742075026
1761316553488213500,8.830213623046875,0.0013946144608780742,-0.0006973366253077984,-0.0002471432089805603
1761316553498196500,8.840196533203125,0.0016430873656645417,0.002125347964465618,0.0001978711225092411
1761316553508178700,8.8501787109375,-0.00014897785149514675,0.0005446714349091053,-0.0008029402233660221
1761316553518161400,8.860161376953124,0.0008598275016993284,0.0006618504412472248,0.0008554101223126054
1761316553528143600,8.8701435546875,0.0014634220860898495,0.0015541561879217625,-0.00005420716479420662
1761316553538125600,8.88012548828125,-0.0008237005677074194,-0.0006453488022089005,-0.003418311942368746
1761316553548108500,8.890108642578125,-0.000037014950066804886,-0.0007373546250164509,0.0015338212251663208
1761316553558090800,8.9000908203125,-0.0010977520141750574,0.0005241846665740013,0.0011516575468704104
1761316553568073500,8.910073486328125,-0.000763623567763716,-0.00018315669149160385,0.0015892729861661792
1761316553578055700,8.9200556640625,0.002446817234158516,-0.0010188566520810127,-0.0029881680384278297
1761316553588038700,8.93003857421875,0.0018316985806450248,-0.0006212424486875534,0.0008359741186723113
1761316553598020600,8.9400205078125,-0.0025228362064808607,-0.0023395142052322626,0.0005403632530942559
1761316553608003600,8.950003662109374,0.0012218724004924297,-0.0008291206322610378,-0.002327683614566922
1761316553617985800,8.95998583984375,-0.002945974702015519,-0.0009095482528209686,0.0006619810592383146
1761316553627968500,8.969968505859375,0.00041020556818693876,-0.001681220717728138,-0.001081366091966629
1761316553637950700,8.97995068359375,-0.0002561173168942332,-0.0009283451363444328,-0.000007046852260828018
1761316553647932400,8.989932373046875,-0.001011051470413804,-0.0017070728354156017,0.00042271451093256474
1761316553657915600,8.99991552734375,0.0002182637108489871,0.0007571503520011902,0.002036590129137039
1761316553667897600,9.009897705078124,-0.0005691204569302499,0.00017023924738168716,0.00044223759323358536
1761316553677880600,9.019880615234374,-0.0014154730597510934,-0.0003448161296546459,-0.0015050657093524933
1761316553687862500,9.029862548828126,-0.0005895111826248467,0.000654878094792366,-0.0019836670253425837
1761316553697845800,9.039845703125,0.0008334157755598426,-0.00015845149755477905,-0.0015684801619499922
1761316553707827500,9.049827392578125,-0.0009420270216651261,-0.00048422254621982574,0.00044332118704915047
1761316553717810700,9.059810791015625,0.0021725399419665337,-0.0008330969139933586,0.001486215041950345
1761316553727792400,9.06979248046875,0.0010790610685944557,0.001665447372943163,-0.002100994111970067
1761316553737775600,9.079775634765625,-0.0006341504049487412,0.0021682525984942913,0.0006159625481814146
1761316553747757600,9.089757568359374,0.0014211616944521666,0.0009823944419622421,0.002794790081679821
1761316553757740500,9.099740478515624,0.0001657474786043167,0.0009379195980727673,0.0009183268994092941
1761316553767722500,9.109722412109376,-0.0007776956190355122,-0.001427921000868082,0.000599520979449153
1761316553777705700,9.119705810546876,-0.0008373503806069493,-0.0015051527880132198,-0.00016214302740991116
1761316553787687400,9.1296875,-0.0007267696782946587,-0.0007984405383467674,0.0006508135702461004
1761316553797669600,9.139669677734375,0.0008884374983608723,0.0010668374598026276,0.0003717143554240465
1761316553807652600,9.149652587890625,0.00024901609867811203,0.0005432954058051109,-0.001282963901758194
1761316553817634600,9.159634521484374,-0.001672987244091928,0.002123348880559206,0.001953575760126114
1761316553827617500,9.169617431640624,0.0016463256906718016,-0.0008992180228233337,-0.00005087675526738167
1761316553837599500,9.179599609375,-0.00002960150595754385,-0.0005404897965490818,-0.0006144016515463591
1761316553847582500,9.18958251953125,0.0015886456239968538,0.0027009020559489727,0.0011088919127359986
1761316553857564700,9.199564697265625,-0.00015386065933853388,0.00046544522047042847,-0.005268313456326723
1761316553867547400,9.20954736328125,0.001753638032823801,-0.001604745164513588,-0.00045649358071386814
1761316553877529600,9.219529541015625,-0.00027009821496903896,-0.00009286869317293167,-0.0010626290459185839
1761316553887512600,9.2295126953125,-0.00037551496643573046,0.0009220428764820099,0.0004711535293608904
1761316553897494500,9.23949462890625,0.0008452781476080418,-0.001547240186482668,-0.0016151668969541788
1761316553907477500,9.2494775390625,-0.0009763668640516698,-0.0006060563027858734,0.0006759772077202797
1761316553917459700,9.259459716796876,0.002274820115417242,-0.0005780933424830437,-0.0012295146007090807
1761316553927441700,9.269441650390625,-0.002591715892776847,0.00028758682310581207,0.0009138135937973857
1761316553937424600,9.279424560546875,0.0018752041505649686,0.0012647006660699844,0.0014733436983078718
1761316553947406600,9.289406494140625,-0.0006413322989828885,0.0008308547548949718,-0.000521024689078331
1761316553957389600,9.2993896484375,-0.0017308314563706517,0.0019355337135493755,-0.000002240994945168495
1761316553967371000,9.30937109375,0.0009742957772687078,-0.001509020570665598,0.00040951091796159744
1761316553977354000,9.31935400390625,-0.00018737500067800283,0.000142672099173069,-0.00007518450729548931
1761316553987336000,9.3293359375,0.00017088418826460838,0.00100016500800848,0.0026825692038983107
1761316553997319000,9.33931884765625,0.0027978261932730675,-0.000027282629162073135,-0.00045143882744014263
1761316554007301000,9.349301025390625,-0.0007501146174035966,0.0022181267850100994,0.00019264034926891327
1761316554017283800,9.359283935546875,-0.00201218668371439,0.001490817405283451,-0.0015464038588106632
1761316554027266000,9.36926611328125,-0.00008153833914548159,0.00033807288855314255,0.0012751012109220028
1761316554037249000,9.3792490234375,0.0015278098871931434,0.00324198417365551,-0.00015634787268936634
1761316554047231000,9.38923095703125,0.0003434527898207307,0.0024899598211050034,-0.00006394530646502972
1761316554057214000,9.3992138671875,-0.0011409932048991323,-0.0018398072570562363,-0.0005579618737101555
1761316554067196000,9.40919580078125,-0.00009379349648952484,-0.0028326634783297777,-0.0023324082139879465
1761316554077178000,9.41917822265625,-0.002506617456674576,0.0015594218857586384,-0.0008106781169772148
1761316554087161000,9.4291611328125,0.00046229769941419363,0.001784303691238165,-0.00024134316481649876
1761316554097143000,9.43914306640625,-0.0014005835400894284,0.0003555174916982651,0.002143783960491419
1761316554107126000,9.4491259765625,0.0006529112579301,0.00016913283616304398,0.0002782745286822319
1761316554117108200,9.459108154296874,0.000013752607628703117,-0.00046043843030929565,-0.00011800392530858517
1761316554127091000,9.469091064453124,-0.0000013968674466013908,0.0032784705981612206,-0.0006344683934003115
1761316554137073200,9.4790732421875,-0.002168144565075636,-0.00011812523007392883,-0.0028310439083725214
1761316554147056000,9.48905615234375,-0.002467559650540352,0.0010730386711657047,-0.0004200735129415989
1761316554157038000,9.4990380859375,0.0008424833649769425,0.00025678006932139397,-0.0008823983371257782
1761316554167021000,9.50902099609375,-0.000966240419074893,-0.000892985612154007,0.0003063734620809555
1761316554177003000,9.5190029296875,-0.0009111129329539835,-0.000400301069021225,0.0018411532510071993
1761316554186986000,9.528986083984375,0.0001726273912936449,-0.0015613785944879055,-0.0033159537706524134
1761316554196968200,9.53896826171875,0.0018072755774483085,-0.00031661707907915115,-0.0006301561370491982
1761316554206950000,9.548949951171876,0.0003527409862726927,-0.00015297019854187965,0.00008733896538615227
1761316554216933000,9.55893310546875,-0.0015966929495334625,-0.004501113668084145,-0.0016615591011941433
1761316554226914800,9.568914794921875,-0.0009109714301303029,-0.0002984474413096905,-0.0014815630856901407
1761316554236898000,9.57889794921875,0.0001771962270140648,-0.0018508040811866522,-0.0002530468627810478
1761316554246880000,9.5888798828125,-0.002969197928905487,-0.0006070295348763466,0.0006570332916453481
1761316554256863000,9.598863037109375,-0.0018836935050785542,-0.00011008372530341148,0.0014855426270514727
1761316554266845000,9.608844970703124,-0.002159767784178257,-0.0007242271676659584,0.00028810370713472366
1761316554276828200,9.618828125,-0.0006393692456185818,0.0006907102651894093,-0.0016927553806453943
1761316554286809900,9.628809814453126,-0.0010475381277501583,-0.0008644070476293564,-0.002039356855675578
1761316554296793000,9.63879296875,-0.0005817512865178287,0.0023012920282781124,-0.0021080661099404097
1761316554306775000,9.648775146484375,0.0003604136873036623,0.0012446497566998005,-0.000394703121855855
1761316554316758000,9.658758056640625,0.0010461776982992887,-0.000015558209270238876,-0.0010192145127803087
1761316554326740000,9.668739990234375,-0.0004748711362481117,0.0005697468295693398,-0.00007128319703042507
1761316554336722000,9.678721923828125,-0.0005012364126741886,0.002096004318445921,-0.0034255345817655325
1761316554346705000,9.688704833984374,-0.0008956269011832774,0.0000867452472448349,-0.0007084119133651257
1761316554356687000,9.69868701171875,-0.0020032355096191168,0.0009940844029188156,0.001004533376544714
1761316554366669800,9.708669921875,0.0006795634981244802,-0.0003542499616742134,-0.0007524678949266672
1761316554376652000,9.718652099609375,0.001529111759737134,-0.0004887394607067108,-0.001474450808018446
1761316554386635000,9.728635009765625,0.0010062615619972348,0.000024897977709770203,0.0006197993643581867
1761316554396617000,9.738616943359375,0.0010262354044243693,0.00030319811776280403,0.0012975737918168306
1761316554406600000,9.748599853515625,-0.00008712569251656532,-0.0015810434706509113,-0.003309022169560194
1761316554416582000,9.758581787109375,0.00034377386327832937,0.019886163994669914,0.009365227073431015
1761316554426564900,9.76856494140625,0.0014254878042265773,0.02444295771420002,0.00995425321161747
1761316554436547000,9.778547119140624,-0.0007143621915020049,0.09173065423965454,0.04153774678707123
1761316554446529000,9.788529052734376,-0.0010288371704518795,0.08758185058832169,0.03798477351665497
1761316554456512000,9.798511962890625,-0.00043947971425950527,-0.04049862176179886,-0.01790565624833107
1761316554466494200,9.808494140625,0.0013657684903591871,-0.14893513917922974,-0.06683818995952606
1761316554476477000,9.818476806640625,-0.0008984510786831379,0.033392325043678284,0.012012947350740433
1761316554486459100,9.828459228515625,-0.0010195940267294645,-0.016351569443941116,-0.005362349562346935
1761316554496442000,9.838442138671875,-0.002665693871676922,-0.008091773837804794,-0.003771377494558692
1761316554506424000,9.848424072265624,0.0005147701594978571,-0.0031677803490310907,-0.0002520540729165077
1761316554516407000,9.858406982421876,0.0009715021587908268,-0.0011179451830685139,-0.0008635157719254494
