time,seconds_elapsed,z,y,x
1761315729773268000,0.07626806640625,-0.9453308855772018,1.0263619861006736,-0.38224049097597596
1761315729783250200,0.086250244140625,-0.5081564428865909,0.8117597427383064,-0.3163376937404275
1761315729793232000,0.09623193359375,-0.1203501344770193,0.6166200324758887,-0.27484248479157686
1761315729803215000,0.106215087890625,0.21387129873931407,0.4477256473213434,-0.2890811457633972
1761315729813197000,0.116197021484375,0.5146253466397523,0.3119178314715624,-0.39485535013824696
1761315729823179000,0.126178955078125,0.748635762566328,0.2271978133022785,-0.5160904507562518
1761315729833162000,0.136161865234375,0.8863286615103483,0.16213175915181635,-0.6554058363355696
1761315729843144200,0.146144287109375,0.9124071056187152,0.044241585047543046,-0.8148850351519882
1761315729853126100,0.156126220703125,0.8819120141118765,-0.08358633796423673,-0.9745118257455527
1761315729863108000,0.166108154296875,0.8755196827262639,-0.14581424607932567,-1.0743718376405536
1761315729873091000,0.176091064453125,0.8748843074321746,-0.1778852086007595,-1.1249474480152128
1761315729883073000,0.186072998046875,0.8217536057472229,-0.22223025402277707,-1.1725848129808902
1761315729893055000,0.196054931640625,0.7468558934122324,-0.27352117305994034,-1.2136748021297157
1761315729903037200,0.206037109375,0.6101233639329672,-0.31433716757297514,-1.219600246655941
1761315729913020200,0.216020263671875,0.38058804759383197,-0.36230946358144284,-1.2167366739183663
1761315729923002000,0.226002197265625,0.1474327871918678,-0.43428690455555913,-1.27013420984596
1761315729932984000,0.235984130859375,0.020958616876602172,-0.43160891751796004,-1.2672729751959442
1761315729942967300,0.24596728515625,0.0196153855741024,-0.4231237055063247,-1.2787490395866334
1761315729952949000,0.255948974609375,0.05423778614401817,-0.4305918494299054,-1.2862291662089527
1761315729962931200,0.26593115234375,0.13218085752427577,-0.49200171916037794,-1.2632974956937133
1761315729972914000,0.275913818359375,0.23067805663347243,-0.5560062815591693,-1.2254307063750922
1761315729982896000,0.285896240234375,0.3605237492084503,-0.5985688274785876,-1.1857751339435576
1761315729992878000,0.295878173828125,0.44892976241409777,-0.6244277836173773,-1.147949407287687
1761315730002860000,0.305860107421875,0.49030397533178327,-0.6959440368205309,-1.1263033196035772
1761315730012843000,0.315843017578125,0.4876859017878771,-0.7999374952584505,-1.162198662718758
1761315730022825000,0.325824951171875,0.5280331097453832,-0.8801376979157328,-1.1442232994366437
1761315730032807200,0.33580712890625,0.5997720657885074,-0.9770555188789963,-1.0811351942956446
1761315730042790100,0.3457900390625,0.5948118130326271,-1.0908294898360966,-0.9789883135724812
1761315730052772000,0.355772216796875,0.5246458053946494,-1.1964376899942755,-0.8949375729668885
1761315730062754000,0.365754150390625,0.4435691121637821,-1.2848220758900046,-0.8149815543290228
1761315730072736000,0.375736083984375,0.3958510831773281,-1.3265746206007898,-0.7551915408853441
1761315730082719000,0.385718994140625,0.38423663322925566,-1.364332981108874,-0.7035241166859865
1761315730092701000,0.395700927734375,0.3459364209294319,-1.4371927578754722,-0.6167609022513032
1761315730102683100,0.40568310546875,0.2826858917683363,-1.5309383785434065,-0.5320504556279629
1761315730112666000,0.415666015625,0.17755612277686594,-1.6289245593905448,-0.4596588808950037
1761315730122648000,0.42564794921875,0.06408931807279586,-1.684838754314184,-0.4098012095313519
1761315730132630000,0.435630126953125,-0.021949381479620934,-1.6962049285896121,-0.37368287131525574
1761315730142613200,0.44561328125,-0.11770692649185657,-1.7309392651014028,-0.33831089448705315
1761315730152595000,0.455594970703125,-0.21269290260970591,-1.765779838466644,-0.3108124275129288
1761315730162577200,0.4655771484375,-0.341801513081789,-1.786839869891107,-0.2797022728476673
1761315730172558600,0.47555859375,-0.5432996524602175,-1.7743853158570826,-0.2308155654080212
1761315730182541600,0.48554150390625,-0.7833347355037927,-1.717809442154318,-0.1955934819119051
1761315730192523500,0.4955234375,-1.049243095472455,-1.6226836191743612,-0.20506671858020126
1761315730202505500,0.50550537109375,-1.3674638264805077,-1.5279877120442689,-0.2031840831713751
1761315730212488700,0.51548876953125,-1.6560732630789279,-1.4847202327258884,-0.15348445191364735
1761315730222470400,0.525470458984375,-1.870207596668601,-1.5190264069534838,0.03112524263653904
1761315730232452600,0.53545263671875,-1.9032862749278545,-1.6893100545093416,0.32943354135267433
1761315730242434600,0.5454345703125,-1.7360569003760813,-1.8382061922520399,0.473225195563212
1761315730252417500,0.55541748046875,-1.4633137259513138,-1.8886364028066396,0.4297917850933969
1761315730262399700,0.565399658203125,-1.2679805389434098,-1.9481258258685468,0.3574753579558804
1761315730272381400,0.57538134765625,-1.241120589068532,-2.031719616486877,0.26811418118355795
1761315730282364700,0.58536474609375,-1.4826526326715945,-2.0226060434438287,0.14488818074297158
1761315730292346400,0.595346435546875,-1.94439920656085,-1.7828117834188042,-0.012422195267537609
1761315730302328600,0.60532861328125,-2.5054741696864364,-1.268968673197925,-0.1985963535223156
1761315730312310500,0.615310546875,-3.0480022532522675,-0.5676828369580209,-0.4025629288408905
1761315730322293500,0.62529345703125,-3.515364328935742,0.08417378246337175,-0.5989764584314078
1761315730332275700,0.635275634765625,-3.8855075548827647,0.5970373801276088,-0.639378099989891
1761315730342257400,0.64525732421875,-4.1260061637848615,0.9455252391055226,-0.5488516970967874
1761315730352240600,0.65524072265625,-4.1279099515795705,1.207892419335991,-0.3317205563113093
1761315730362222600,0.66522265625,-3.7113387364566326,1.4819547135353088,-0.12135481800753622
1761315730372204500,0.67520458984375,-2.842746222645044,1.7772037342786788,-0.0941688145160675
1761315730382187500,0.6851875,-1.7751549850553272,1.9551490025036036,-0.23582378549147395
1761315730392169500,0.69516943359375,-0.7521832259148359,1.9389666601181028,-0.36105201086625455
1761315730402151700,0.705151611328125,0.14850713842511176,1.7746351989649236,-0.36045137809198347
1761315730412133400,0.71513330078125,0.8787070805907249,1.5471443940654397,-0.29745860481793057
1761315730422116600,0.72511669921875,1.4870266099721192,1.3214981941193342,-0.3343011473890394
1761315730432098600,0.7350986328125,1.9419886382877825,1.1746227485492824,-0.506628064275533
1761315730442080500,0.74508056640625,2.1691221541821957,1.144382508586347,-0.7392198455758392
1761315730452063500,0.7550634765625,2.1751193487703797,1.1994967853039502,-1.0453236570063977
1761315730462045700,0.765045654296875,1.9485715238094328,1.3004922309696674,-1.395886203366518
1761315730472027600,0.775027587890625,1.6512585562735795,1.352828567406535,-1.7435590926997362
1761315730482009600,0.785009521484375,1.3996335732012986,1.3738552810832858,-2.0387819560885427
1761315730491992600,0.79499267578125,1.193105622962117,1.3981287215963005,-2.2322028797343374
1761315730501974500,0.804974609375,1.0579764370262623,1.402609666402638,-2.2689755902059376
1761315730511956500,0.81495654296875,1.015833577823639,1.4810934205308555,-2.126721374695748
1761315730521939500,0.824939453125,1.0274982966542243,1.6450073869243262,-1.871212682057917
1761315730531921700,0.834921630859375,1.0391519095689057,1.8301409592181443,-1.580706471927464
1761315730541903600,0.844903564453125,1.0792039339721202,2.000240628509223,-1.3274880821838975
1761315730551885600,0.854885498046875,1.1273884114265442,2.0864000318318605,-1.0735049916781485
1761315730561868500,0.86486865234375,1.184842237007618,2.0617013516440985,-0.8424524757090955
1761315730571850500,0.8748505859375,1.3041396475613116,1.9294927293300628,-0.6436376571305096
1761315730581832700,0.884832763671875,1.518696590477228,1.7724220529600976,-0.5019244896944612
1761315730591815400,0.8948154296875,1.7767665119051932,1.6068392765715718,-0.4431561474487185
1761315730601797600,0.904797607421875,2.0528391230136154,1.4163745723828673,-0.31704182342179116
1761315730611779300,0.914779296875,2.324827095156908,1.1669953224107623,-0.17700104617737233
1761315730621762600,0.924762451171875,2.5413690744101998,0.8727528483614325,-0.0877504171074368
1761315730631744500,0.93474462890625,2.6666759545117613,0.6213152045547962,0.0038834355709142982
1761315730641726500,0.9447265625,2.6864690347403286,0.37852556210607285,0.06836023685764521
1761315730651708700,0.954708740234375,2.6154689143657683,0.17209551928341388,0.11052673266418278
1761315730661691600,0.964691650390625,2.470655369761586,0.01648410181105137,0.1712531136425212
1761315730671673600,0.974673583984375,2.2810873221516608,-0.10094722260981798,0.17663177447356282
1761315730681655600,0.984655517578125,2.0629940218031404,-0.20054449191540477,0.07738558362796902
1761315730691638500,0.994638427734375,1.8036749770969152,-0.2921919712603092,-0.09507851323951035
1761315730701620500,1.004620361328125,1.5668179395675659,-0.3846048820197582,-0.2524355322701856
1761315730711602700,1.014602783203125,1.263051265847683,-0.4782417816162109,-0.3013442323459312
1761315730721584600,1.024584716796875,0.9161550599753856,-0.5725342225119471,-0.35358021368086334
1761315730731567600,1.034567626953125,0.6460159305691718,-0.6166705936193466,-0.3687863679779693
1761315730741549600,1.044549560546875,0.4373591516077518,-0.6291185717821121,-0.3837819482643157
1761315730751531500,1.054531494140625,0.303533449485898,-0.6740794110149144,-0.3396931791583076
1761315730761514800,1.0645146484375,0.2714209859102964,-0.7254509940728545,-0.21683953742776066
1761315730771496400,1.074496337890625,0.3248217367082834,-0.776219350540638,-0.0523659643901512
1761315730781478700,1.084478759765625,0.4388660490393638,-0.8299310669839381,0.1351338621109724
1761315730791460600,1.094460693359375,0.5681020852833986,-0.9066901892766356,0.2915571439554915
1761315730801443600,1.104443603515625,0.6657295158207416,-1.0126252833016216,0.44647754695639014
1761315730811425800,1.11442578125,0.7184142273038625,-1.1331330925583838,0.585206584015116
1761315730821407500,1.124407470703125,0.7373094819098711,-1.2940790029264986,0.6867632437601685
1761315730831390700,1.134390625,0.726841279387474,-1.5051901893027126,0.7803119536165147
1761315730841372400,1.144372314453125,0.6385024861991405,-1.6648396301195025,0.8488666536003351
1761315730851354600,1.154354736328125,0.41464521549642086,-1.7568429371647536,0.8917615002140402
1761315730861336600,1.164336669921875,0.09901859263479709,-1.823508827727288,0.927789968189597
1761315730871319600,1.174319580078125,-0.25871874072551726,-1.865779843354225,0.9623333852391689
1761315730881301800,1.1843017578125,-0.6310404797554016,-1.8863880393579602,0.9718370535783469
1761315730891283500,1.194283447265625,-0.9937503408312797,-1.8860604148387907,0.9864799114368855
1761315730901266700,1.2042666015625,-1.3309294548094273,-1.8854080884099005,0.9646649699918926
1761315730911248600,1.21424853515625,-1.6518828256517648,-1.8377932275369762,0.9043797934424131
1761315730921230600,1.224230712890625,-1.979810127159953,-1.7955061375580728,0.8983804068971425
1761315730931212500,1.234212646484375,-2.2601234445780514,-1.8628867522612214,1.0127082123447209
1761315730941195500,1.244195556640625,-2.3913304886341096,-2.002453482253104,1.2002944384876637
1761315730951177500,1.254177490234375,-2.3785528401255607,-2.149727133360505,1.2928618822216986
1761315730961159400,1.264159423828125,-2.281788163897395,-2.3384343263573943,1.2098868080236016
1761315730971142700,1.274142578125,-2.274216267338395,-2.518290981161594,0.9952440865203738
1761315730981124600,1.28412451171875,-2.687516497966647,-2.589091195049882,0.7096130081456155
1761315730991106600,1.2941064453125,-3.477960188692808,-2.3647752207942307,0.31140191783867777
1761315731001088500,1.304088623046875,-4.3093934769332405,-1.7222979857452212,-0.2046099877886474
1761315731011071700,1.31407177734375,-5.145639133891463,-0.9004162235736847,-0.5278930436875671
1761315731021053400,1.324053466796875,-5.764279566279053,-0.19676731146425008,-0.590596789153479
1761315731031035600,1.33403564453125,-5.796038394111394,0.33459391979053615,-0.49002092060670255
1761315731041018400,1.344018310546875,-5.332559881862998,0.7544394804090261,-0.37786249508745967
1761315731051000600,1.35400048828125,-4.546697089186311,1.0138529254004358,-0.2219489528633654
1761315731060982500,1.363982421875,-3.508255373713374,1.0727722934894264,-0.05360467587225139
1761315731070964500,1.373964599609375,-2.4543635756522417,0.9786562320739031,0.10052172720674425
1761315731080947700,1.38394775390625,-1.5733774442136286,0.8226090535327791,0.1810332243029028
1761315731090929400,1.393929443359375,-0.9374170437127352,0.6884833455510437,0.1434664408441633
1761315731100911600,1.40391162109375,-0.43638124648630616,0.6985330304004251,0.0067198828395456075
1761315731110894600,1.41389453125,-0.008021978414058686,0.7996569247514009,-0.011126739496365189
1761315731120876500,1.42387646484375,0.43859541540443897,0.9335629986330867,0.07931399440728128
1761315731130858800,1.433858642578125,0.9239373844146728,1.0232415159925818,0.16065248037949204
1761315731140841500,1.443841552734375,1.356678228572011,1.0478653773784636,0.22181758156865833
1761315731150823700,1.45382373046875,1.6582313178956507,0.9873594707503914,0.2996327157203108
1761315731160805400,1.463805419921875,1.8564631489545105,0.8761381068855524,0.36976460189297794
1761315731170788400,1.473788330078125,2.006408795750141,0.8451227908968925,0.4322412971373647
1761315731180771000,1.48377099609375,2.088215556821227,0.8596013981044291,0.47024376859962935
1761315731190753300,1.493753173828125,2.072079245534539,0.8566495625615119,0.5467454089999199
1761315731200735000,1.50373486328125,1.9451064780473708,0.8836047895044088,0.613215046337992
1761315731210718200,1.51371826171875,1.6795377252966164,0.9301835853278636,0.647214784964919
1761315731220700200,1.5237001953125,1.4175702119082212,1.0190952099680899,0.7023402406636625
1761315731230682000,1.53368212890625,1.108617075461149,1.1787979884073136,0.7625958988577127
1761315731240664300,1.543664306640625,0.6846586726963519,1.322339613379538,0.8337389348343014
1761315731250647300,1.553647216796875,0.2730792745113373,1.424760123412311,0.9155452575139701
1761315731260629200,1.563629150390625,-0.11176467696130275,1.5559189444124697,0.9730890994660556
1761315731270611200,1.573611083984375,-0.402479561406374,1.7290733250990509,1.0175839286223054
1761315731280594200,1.58359423828125,-0.6510995174437761,1.8613140961170196,1.0262676588807254
1761315731290576100,1.593576171875,-0.801810887914896,1.978252960845828,1.0217354953438043
1761315731300558000,1.60355810546875,-0.8607569978803395,2.0787316891610623,0.9947560107424854
1761315731310540300,1.613540283203125,-0.8144821534395218,2.1188176158338785,0.9196747585341334
1761315731320523300,1.623523193359375,-0.6375619904786348,2.0745348219931126,0.8488360392663628
1761315731330505200,1.633505126953125,-0.2661947756946087,1.9896625358715652,0.8069374371483922
1761315731340487200,1.643487060546875,0.21619301968514917,1.8879957668155432,0.7713964604288339
1761315731350470400,1.653470458984375,0.696527389666438,1.7603946382969617,0.6944505103271454
1761315731360452000,1.6634521484375,1.1291378854423761,1.6064695664763449,0.658754562241584
1761315731370434300,1.673434326171875,1.5183090524643659,1.4532377376168966,0.6013237522099166
1761315731380416300,1.683416259765625,1.8771014478355645,1.3534355933889746,0.5607637782845646
1761315731390399200,1.693399169921875,2.1692443192571402,1.240379999834299,0.5316536383301019
1761315731400381200,1.703381103515625,2.336134671112895,1.11247608897686,0.5090230696532875
1761315731410363100,1.713363037109375,2.414272388282418,1.0201140316218138,0.4855079001616686
1761315731420346400,1.723346435546875,2.418562194430828,0.9446490407928824,0.48911717670001087
1761315731430328000,1.733328125,2.302692420238256,0.8729659065902232,0.45792471404615787
1761315731440310300,1.743310302734375,2.0570237152218818,0.8024798732176422,0.4408208729015663
1761315731450292200,1.753292236328125,1.8093764036089182,0.7272519060149788,0.4058337306724861
1761315731460275200,1.763275146484375,1.5500702183842658,0.6741589059919119,0.33431714867576956
1761315731470257400,1.77325732421875,1.2980436687737702,0.6128603876814246,0.2671305221747607
1761315731480239000,1.783239013671875,1.1290899546474218,0.5501271603927016,0.2465694897809997
1761315731490221300,1.79322119140625,0.9621095864206551,0.44942309888899323,0.21093608553763477
1761315731500204000,1.8032041015625,0.7594955947548151,0.3192877757176757,0.18415771299898623
1761315731510186200,1.813186279296875,0.5314794508069753,0.1884571637585759,0.1439943371757865
1761315731520168200,1.823168212890625,0.2654839970767498,0.031056524781882762,0.04222801673542708
1761315731530151200,1.833151123046875,0.014556348618865012,-0.11117664794027805,-0.1009433501522988
1761315731540133000,1.843133056640625,-0.20040566796660422,-0.25557050582766533,-0.2501657241746783
1761315731550115000,1.853114990234375,-0.3783697870224714,-0.37760260204225776,-0.3477369675453752
1761315731560097300,1.86309716796875,-0.5153226812541485,-0.5144248556315899,-0.4032657068153843
1761315731570080300,1.873080322265625,-0.608629910504818,-0.6306468042626977,-0.445199014920555
1761315731580062200,1.883062255859375,-0.6938754138529301,-0.7296922849044203,-0.4656041626328602
1761315731590044200,1.893044189453125,-0.7588304088443517,-0.8188695747435093,-0.4167834696341306
1761315731600027100,1.903027099609375,-0.8054664878129959,-0.932607305343449,-0.34288214792534705
1761315731610009000,1.913009033203125,-0.8167255484521388,-1.0490735841244458,-0.2939482220767997
1761315731619991300,1.9229912109375,-0.8439233519792556,-1.1788272145017982,-0.24442787464242427
1761315731629973200,1.93297314453125,-0.8386305062681436,-1.3058546347856521,-0.21206669700276104
1761315731639956200,1.942956298828125,-0.8280985908597708,-1.415239138612151,-0.21810941123310476
1761315731649938200,1.952938232421875,-0.8157996657788753,-1.525388489331305,-0.2298068998221308
1761315731659920100,1.962920166015625,-0.8352735970556735,-1.620147670955956,-0.24643174354443326
1761315731669903400,1.9729033203125,-0.9154273302227258,-1.673490261825919,-0.2640411961236037
1761315731679885000,1.982885009765625,-1.0652186632394791,-1.6856275666043161,-0.3026450858114287
1761315731689867300,1.9928671875,-1.2263912219703197,-1.622683911435306,-0.3670993282064795
1761315731699849200,2.00284912109375,-1.428779003664851,-1.5392890043899417,-0.39438780569173393
1761315731709832200,2.012832275390625,-1.6555103684991597,-1.560829220546782,-0.3129580247068777
1761315731719814400,2.022814453125,-1.7599135767817495,-1.6935270876824855,-0.09374039650354533
1761315731729796000,2.032796142578125,-1.6326760208785533,-1.766380726969242,0.08261201303936541
1761315731739779300,2.042779296875,-1.3358914611309767,-1.728876925744116,0.11864252684153616
1761315731749761000,2.052760986328125,-1.0868611707270144,-1.7397507864579558,0.08073107639728114
1761315731759743200,2.0627431640625,-0.9967898546576499,-1.8682541245132684,-0.00022167992666363714
1761315731769725200,2.07272509765625,-1.099838725721836,-1.919796095702052,-0.1551638563679531
1761315731779708200,2.082708251953125,-1.4936334608912467,-1.8448399311780928,-0.44940300594903526
1761315731789690400,2.0926904296875,-2.150232160273194,-1.6148123012773692,-0.7710754117809235
1761315731799672000,2.102672119140625,-2.8789503394484517,-1.2108930624566971,-0.9638730889618397
1761315731809655300,2.1126552734375,-3.4051287612378593,-0.7542061100445687,-0.9944352543555199
1761315731819637200,2.12263720703125,-3.6735832985579964,-0.30958193586990235,-0.795272133795917
1761315731829619200,2.132619140625,-3.6740666981607673,0.12500965072065592,-0.4569462244028225
1761315731839601200,2.14260107421875,-3.4390620104998346,0.5076948167242109,-0.14087764819366858
1761315731849584000,2.152584228515625,-3.0564924336999653,0.7750714956797659,0.042930064057558774
1761315731859566300,2.16256640625,-2.535194185167551,0.9768794316597282,0.05467532817791216
1761315731869548000,2.172548095703125,-1.9776620092153547,1.1068874751895665,-0.007186260525567922
1761315731879531300,2.18253125,-1.4524404497593641,1.1056468274787068,-0.11764725046018137
1761315731889513200,2.19251318359375,-0.9555758007377385,1.0689819612957536,-0.2760288267656229
1761315731899495200,2.2024951171875,-0.5053045605868101,1.0864110888719558,-0.4436006398132071
1761315731909477000,2.21247705078125,-0.05116437004804611,1.1205743474975227,-0.5915495963662862
1761315731919460400,2.22246044921875,0.34792204178869723,1.1438982322007416,-0.705033936727047
1761315731929442000,2.232442138671875,0.7294675362378359,1.1502899790644645,-0.8073443374488503
1761315731939424300,2.24242431640625,1.0530711293280124,1.178014436814189,-0.9713505852356552
1761315731949407000,2.252406982421875,1.2206301742255687,1.1762637937545775,-1.1453440470948815
1761315731959389200,2.26238916015625,1.1348737987458706,1.1793667282059788,-1.297741763217747
1761315731969371100,2.27237109375,0.8389829729676246,1.2774950940027832,-1.4421452657163143
1761315731979353000,2.28235302734375,0.5569459004968405,1.420625507825613,-1.6651495728515087
1761315731989336300,2.29233642578125,0.3197323046147823,1.5420777583256362,-1.8846236600339412
1761315731999318000,2.302318115234375,0.19768062691688537,1.6122639319688081,-2.011923905909806
1761315732009300200,2.31230029296875,0.2161655471563339,1.681892471729219,-1.9935886232741176
1761315732019282200,2.3222822265625,0.2936807485133409,1.7645444514527915,-1.8733046859011053
1761315732029265200,2.33226513671875,0.37097850772738455,1.8793308143228291,-1.707921815998852
1761315732039247400,2.342247314453125,0.46724283321797844,2.0225646885201334,-1.5387101815886794
1761315732049229000,2.35222900390625,0.6572235532820224,2.171771791908145,-1.3172419979795813
1761315732059212300,2.36221240234375,0.8911229100495577,2.257630458718538,-1.0411902835287152
1761315732069194000,2.372194091796875,1.1818144136190414,2.2586334982812404,-0.7753066196098923
1761315732079176200,2.38217626953125,1.4499106390208005,2.212809320217371,-0.5420609775107353
1761315732089158400,2.392158447265625,1.7271265749454496,2.1443571307599543,-0.3799544258654117
1761315732099141000,2.40214111328125,1.9580992306113243,2.00346455899179,-0.2902728397659957
1761315732109123300,2.412123291015625,2.1323837843716142,1.8064453185930847,-0.18908817340480163
1761315732119105000,2.42210498046875,2.2704776653319594,1.5959361897632478,-0.09871166384378448
1761315732129088300,2.432088134765625,2.4142075063526627,1.3720154984354973,-0.030749048001598566
1761315732139070200,2.4420703125,2.510001876243949,1.1626710294708609,-0.010160698342649266
1761315732149052200,2.45205224609375,2.5000153197586537,0.9748165077805518,0.01022239280147478
1761315732159034400,2.462034423828125,2.4127754277229307,0.7784253361523151,0.03697237949585542
1761315732169016600,2.4720166015625,2.2547090183138847,0.5951251167654991,0.0125303226839751
1761315732178998500,2.48199853515625,2.019624251154065,0.43609629206508393,0.01968479754850268
1761315732188980500,2.49198046875,1.733974248883128,0.33720717102885245,0.07562668419666588
1761315732198963700,2.501963623046875,1.3981424578607082,0.28381577258110047,0.10868263916745781
1761315732208945400,2.5119453125,1.1062462546765803,0.2133665640875697,0.1632282856842503
1761315732218927600,2.521927734375,0.8765478567302226,0.14060440247654915,0.22888302644286304
1761315732228909600,2.53190966796875,0.6468786848783493,0.029355566082894802,0.25440474998392165
1761315732238892500,2.541892578125,0.4732856205135584,-0.12518939120173453,0.26698862948603924
1761315732248874800,2.551874755859375,0.30635902830064293,-0.2811015451863408,0.30104389769248663
1761315732258856400,2.5618564453125,0.17113456529676913,-0.43121874915659425,0.39307562711462374
1761315732268839700,2.571839599609375,0.08128186041414737,-0.5185980496630073,0.5254383074792102
1761315732278821400,2.5818212890625,0.0355798474252224,-0.6105275608196854,0.6186547531738877
1761315732288803600,2.591803466796875,-0.0330003523260355,-0.7348898535475135,0.7260955755867063
1761315732298785800,2.601785888671875,-0.1775982083529234,-0.8979229454532265,0.8013331874005496
1761315732308768500,2.6117685546875,-0.34370588539838787,-1.0425886060193181,0.823284468576312
1761315732318750700,2.621750732421875,-0.39603111591935153,-1.158318094958365,0.8486787298128008
1761315732328732400,2.631732421875,-0.33228257410824297,-1.3097168631717562,0.8678479059893638
1761315732338714600,2.641714599609375,-0.1993921070098877,-1.5113967888578772,0.9098108055151999
1761315732348697600,2.651697509765625,-0.05209200628697872,-1.7193018726691602,0.9616275019921362
1761315732358679600,2.661679443359375,0.0779085845887661,-1.8796271669209001,0.9929858592648059
1761315732368661800,2.671661865234375,0.19162088848650455,-1.992087717191875,1.0222799774840474
1761315732378644500,2.68164453125,0.2504167763262987,-2.0783605177611113,1.0884314157184212
1761315732388626700,2.691626708984375,0.27231355083584785,-2.1104344028919932,1.1052280906099825
1761315732398608600,2.701608642578125,0.23965748190283773,-2.094566094891727,1.0856096362959593
1761315732408590600,2.711590576171875,0.1533335356682539,-2.0442887368112803,1.0875158352434635
1761315732418573600,2.721573486328125,0.06771043117940426,-1.968517456512153,1.1147195570547133
1761315732428555500,2.731555419921875,-0.03601823884248733,-1.8764000215679406,1.1460577483221888
1761315732438537500,2.741537353515625,-0.17791034304201603,-1.8047803079903124,1.1654659208863973
1761315732448520700,2.751520751953125,-0.31293022338449955,-1.6967457574680447,1.1385665157839655
1761315732458502700,2.761502685546875,-0.4467804754257202,-1.5813769185349345,1.1274664450988172
1761315732468484600,2.771484619140625,-0.5711293241500854,-1.4854127450346946,1.1148480788052082
1761315732478466600,2.781466552734375,-0.8069628638505936,-1.4058216141864657,1.148991536751762
1761315732488449500,2.791449462890625,-1.0505313817173243,-1.3169742869541048,1.1753783161569387
1761315732498431700,2.801431640625,-1.3274614864379166,-1.244628597189486,1.2935612626627087
1761315732508413400,2.811413330078125,-1.58424779779613,-1.3286983347564936,1.5469038633078336
1761315732518396700,2.821396728515625,-1.6422715322196482,-1.4299670444056392,1.7426143591955303
1761315732528378400,2.83137841796875,-1.5150526810169218,-1.463570623321831,1.6982377495914696
1761315732538360600,2.841360595703125,-1.2769541189938782,-1.4698828752085566,1.5571145839378238
1761315732548342500,2.851342529296875,-1.1928583702027797,-1.5128715375855564,1.3832888798609375
1761315732558325500,2.861325439453125,-1.2803782482236623,-1.4789558239802718,1.114300820185989
1761315732568307700,2.8713076171875,-1.5629372987419365,-1.2601675271049142,0.7196153467219323
1761315732578289400,2.881289306640625,-1.9986060130447147,-0.896998816345632,0.2996491553984582
1761315732588272600,2.891272705078125,-2.4940467667430637,-0.582376109829545,-0.022085648145154117
1761315732598254600,2.901254638671875,-2.817069345074892,-0.26634908947348596,-0.27048662766963244
1761315732608236500,2.911236572265625,-2.9272692569375036,-0.00603840338140726,-0.38375031101703644
1761315732618218800,2.92121875,-2.8803000004917383,0.18552754004746674,-0.4288172409728169
1761315732628201500,2.931201416015625,-2.663215000402927,0.37000294069349765,-0.4214221622854471
1761315732638183700,2.94118359375,-2.2814146544098852,0.5426908729121088,-0.4043335187099874
1761315732648165400,2.951165283203125,-1.8011784841060636,0.7102925879076123,-0.33222631387636065
1761315732658148600,2.961148681640625,-1.303085170072317,0.912728300397098,-0.27394085977673527
1761315732668130600,2.971130615234375,-0.8490186292916536,1.0855874975293873,-0.2360601880632341
1761315732678112500,2.981112548828125,-0.4311462684422731,1.2316206470564006,-0.18099296535775064
1761315732688094700,2.9910947265625,-0.002963525980710983,1.363352884030342,-0.12049217329621315
1761315732698077700,3.00107763671875,0.44082536641359327,1.4501581840410829,-0.05538651778772473
1761315732708059600,3.0110595703125,0.8549304836839436,1.4545222244694829,0.023585750509798525
1761315732718041600,3.02104150390625,1.2554314384937286,1.3699562278181314,0.07851663348451256
1761315732728023600,3.0310234375,1.5878776787310838,1.2311989145129918,0.060032443897426124
1761315732738006500,3.041006591796875,1.8609990388184785,1.078443470993638,0.011474164694547652
1761315732747988500,3.050988525390625,2.071772371542454,0.9282987944945692,-0.04315525111556053
1761315732757970700,3.060970703125,2.127529914599657,0.8125742739915848,-0.09216083569452166
1761315732767953700,3.07095361328125,2.003863202920556,0.7251701313048601,-0.21509557983726263
1761315732777935600,3.080935546875,1.7416332392036913,0.7121420151665806,-0.3226394242331385
1761315732787917600,3.09091748046875,1.3589490961134434,0.8099871801078319,-0.3376007003910839
1761315732797899500,3.1008994140625,0.9453127653986215,0.9549582533612847,-0.3149726889975369
1761315732807882500,3.110882568359375,0.5515191992729902,1.119484506434202,-0.3165237178318202
1761315732817864700,3.12086474609375,0.2026110690563917,1.3148770224139095,-0.3145833974190056
1761315732827846400,3.130846435546875,-0.13400398129820823,1.4909385227188467,-0.22335458187758922
1761315732837829600,3.14082958984375,-0.44545361073613166,1.6691031327828765,-0.07071998825892806
1761315732847811600,3.1508115234375,-0.7264058105796575,1.8612138506129383,0.08748919062167405
1761315732857793500,3.16079345703125,-1.0230009852349757,2.0367139176428317,0.19941300366744397
1761315732867775700,3.170775634765625,-1.1948743862003088,2.180561539824307,0.2471102821268141
1761315732877758500,3.180758544921875,-1.216080840358138,2.275862865501642,0.27907588457763194
1761315732887740700,3.19074072265625,-1.1527595840483904,2.2704291500151155,0.2955684619560838
1761315732897722400,3.200722412109375,-1.0174830985963343,2.1665467507362366,0.28387393250912424
1761315732907705600,3.21070556640625,-0.7761439472168683,1.9952900203645227,0.2761732950039208
1761315732917687600,3.2206875,-0.49153673199713227,1.8220654970511794,0.25144524259120227
1761315732927669500,3.23066943359375,-0.21805530642569063,1.6775833763584493,0.20523557234108447
1761315732937651700,3.240651611328125,0.010387538501620292,1.5393918802425264,0.10429200299307703
1761315732947634400,3.250634521484375,0.16444588131308555,1.402771578966081,-0.028125585896521806
1761315732957616600,3.26061669921875,0.26334230887293814,1.2608826896369456,-0.16996289116889238
1761315732967598600,3.2705986328125,0.36357904512584205,1.1255489210397005,-0.25674539482593534
1761315732977580500,3.28058056640625,0.47797991580963134,1.0170525982245802,-0.3234672533594072
1761315732987563500,3.2905634765625,0.5838280622035265,0.9384434641510248,-0.3832581435859203
1761315732997545500,3.30054541015625,0.6424030007690191,0.8331251868501305,-0.4386085671469569
1761315733007527700,3.310527587890625,0.7114648465573787,0.7285153500795364,-0.4981149413436651
1761315733017510700,3.3205107421875,0.7516027956783771,0.6319765915617347,-0.5556174283720553
1761315733027492600,3.33049267578125,0.784027978464961,0.5062117385596037,-0.5949287174105644
1761315733037474600,3.340474609375,0.8207131567835807,0.4178139086604118,-0.631345600181818
1761315733047456500,3.35045654296875,0.8958680587500333,0.3421314756885171,-0.6070068393476307
1761315733057439500,3.360439453125,0.9767302324473858,0.27785189574062824,-0.5387279606305062
1761315733067421700,3.370421630859375,1.016747185537219,0.2178653368115425,-0.4281986706830561
1761315733077403600,3.380403564453125,1.0424369225889443,0.16194734249562023,-0.34180180534273386
1761315733087386600,3.39038671875,1.053198555099964,0.10403291366547346,-0.29749051605984567
1761315733097368600,3.40036865234375,1.0351309834897517,0.015034779785573481,-0.30187355344966055
1761315733107350500,3.4103505859375,0.994786698141694,-0.073401044036448,-0.24357670117318628
1761315733117332500,3.42033251953125,0.9817208803415298,-0.14194237308204175,-0.18275252237617967
1761315733127315500,3.4303154296875,0.9835738147318362,-0.1608379199489951,-0.10613237016275524
1761315733137297700,3.440297607421875,1.0062889198869467,-0.1875073156878352,-0.057080169963091607
1761315733147279600,3.450279541015625,1.039317329263687,-0.223353120572865,-0.025559096409380436
1761315733157261600,3.460261474609375,1.0394102682441473,-0.2970180762425065,0.011511135704070329
1761315733167245300,3.470245361328125,0.9952385335624218,-0.40411125426143407,0.03503010458797216
1761315733177227300,3.480227294921875,0.9133721512585878,-0.5442188131317496,0.023900953938812017
1761315733187209500,3.49020947265625,0.8292308097600937,-0.6537322040349245,0.04250891603603959
1761315733197192400,3.5001923828125,0.7050789449125527,-0.7084197797730565,0.10222118806838988
1761315733207174400,3.51017431640625,0.5122942733436823,-0.745853146110475,0.17992285190820692
1761315733217156400,3.52015625,0.2598877845048904,-0.7880307843655348,0.31049050208218393
1761315733227138300,3.53013818359375,-0.015709025785326958,-0.8423091947808862,0.42358686603866513
1761315733237121300,3.540121337890625,-0.29141397262513635,-0.9235615368396043,0.5150365577891469
1761315733247103500,3.550103515625,-0.5186158775806426,-1.0213245764553547,0.5901944554302841
1761315733257085400,3.56008544921875,-0.6976976024895906,-1.1546584034070373,0.6110113257486373
1761315733267068400,3.570068359375,-0.8775994116097688,-1.2847212458640336,0.5655811154384166
1761315733277050400,3.58005029296875,-1.0669313123762607,-1.3738608340412377,0.5177881215196103
1761315733287032300,3.5900322265625,-1.2505226236641407,-1.4259838199883699,0.45934565022736784
1761315733297014500,3.6000146484375,-1.4892606526345014,-1.455379718081653,0.435576798235625
1761315733306997200,3.609997314453125,-1.7732909447491167,-1.4850906734734772,0.4698649984151125
1761315733316979500,3.6199794921875,-2.0154548565149306,-1.5376000283896922,0.6149165895588695
1761315733326961200,3.629961181640625,-2.1199235312491655,-1.7455495358645916,0.908604790726304
1761315733336944400,3.6399443359375,-2.0380144788473844,-1.985323337623477,1.1260543132785708
1761315733346926300,3.64992626953125,-1.8224755391567944,-2.0499965930640696,1.1238565840385855
1761315733356908300,3.659908203125,-1.616094888433814,-1.9380390238791703,0.9388537985175848
1761315733366890500,3.669890380859375,-1.536143984362483,-1.7411095075905323,0.6632306116770953
1761315733376873200,3.679873291015625,-1.6290145757615566,-1.5674503922522067,0.5124642596157267
1761315733386855400,3.68985546875,-1.8314158014595507,-1.3759990151137114,0.4991343840518966
1761315733396837400,3.69983740234375,-2.0260113218426703,-1.1312991551294922,0.5609343490784987
1761315733406819300,3.7098193359375,-2.022875361904502,-0.8745508376941085,0.6036995414305478
1761315733416802300,3.71980224609375,-1.81289756347239,-0.6136003923937678,0.6541644579723477
1761315733426784300,3.7297841796875,-1.4904174214541912,-0.43851036746948957,0.7638203260861337
1761315733436766500,3.739766357421875,-1.1279302632182835,-0.37648938010334965,0.8837856259640305
1761315733446749400,3.74974951171875,-0.7850999916106463,-0.33275223744660615,0.9383084395945072
1761315733456731400,3.7597314453125,-0.5332084665566682,-0.28583558797091246,0.8853470300618559
1761315733466713300,3.76971337890625,-0.34055706597864627,-0.2729787367463112,0.7971791364610195
1761315733476695300,3.7796953125,-0.14646832607388496,-0.28038638265430926,0.6900035408556461
1761315733486678300,3.78967822265625,-0.03543488599658012,-0.23969401452094316,0.5693293255234136
1761315733496660500,3.799660400390625,0.01267243456840515,-0.152876439550519,0.40436979559976605
1761315733506642400,3.809642333984375,-0.06656301470994949,-0.033249358651041984,0.2864941249448806
1761315733516625400,3.81962548828125,-0.2889467057287693,0.16018822386860845,0.22776728375330565
1761315733526607400,3.829607421875,-0.543218403917551,0.45396103457957504,0.21318830317752435
1761315733536589300,3.83958935546875,-0.748341163533926,0.760528737194836,0.179578038792219
1761315733546571300,3.8495712890625,-0.8006710702300072,1.0182757102787494,0.1893523590326309
1761315733556554200,3.85955419921875,-0.7322445997357369,1.1935136192411184,0.16936708070021123
1761315733566536400,3.869536376953125,-0.5822685578018426,1.255230947485566,0.10678729954068548
1761315733576518400,3.879518310546875,-0.399046079826355,1.2244655146047472,-0.007861426690639927
1761315733586500400,3.889500244140625,-0.16404489929676055,1.1410378743335603,-0.21953714248128234
1761315733596483600,3.899483642578125,0.10105506689846515,1.0557017700925468,-0.4404067756753415
1761315733606465300,3.90946533203125,0.3080079645514488,0.9922834831491112,-0.6250683465432375
1761315733616447500,3.919447509765625,0.5025415256142616,0.9629133040189742,-0.7807368279650807
1761315733626430200,3.92943017578125,0.6470885282367468,1.0074982956767082,-0.8641694366723298
1761315733636412400,3.939412353515625,0.7928963445752859,1.0877324006035924,-0.9199925192464142
1761315733646394400,3.949394287109375,0.9115046038210391,1.1634867297679186,-0.9316983738049864
1761315733656376300,3.959376220703125,0.9905062443435192,1.2158218971610069,-0.910258622347936
1761315733666359600,3.969359619140625,1.040563529932499,1.2176537887632846,-0.890424698652327
1761315733676341200,3.97934130859375,1.0353419958919285,1.1552914406135677,-0.8955689296729862
1761315733686323500,3.989323486328125,0.9817448457390069,1.0928951901942492,-0.9518785536549985
1761315733696306400,3.999306396484375,0.864254776868224,1.0256938775807618,-0.9568390256065875
1761315733706288400,4.009288330078125,0.6821405523955821,1.003757355582714,-0.9300408889215439
1761315733716270300,4.019270263671875,0.46332127586007116,1.033828960980475,-0.8926467586159705
1761315733726252300,4.029252197265625,0.2865986812978983,1.0578364440336823,-0.8071566328570247
1761315733736235300,4.0392353515625,0.18943068496584892,1.0518868879795074,-0.6247935481898487
1761315733746217200,4.04921728515625,0.21715631175935268,1.0379024940297006,-0.4310413467630744
1761315733756199400,4.059199462890625,0.4058586824506521,0.9880936302438378,-0.2447130482593551
1761315733766181400,4.069181396484375,0.652573097127676,0.849500859850645,-0.006889028861373663
1761315733776164400,4.079164306640625,0.9262830707579851,0.6772492732226848,0.2247870623661205
1761315733786146300,4.089146240234375,1.1489303811490534,0.4909510410636663,0.378449355064705
1761315733796128300,4.099128173828125,1.333881874874234,0.2968874356001615,0.4568711133399978
1761315733806111200,4.109111328125,1.5509639523535965,0.11751958722621202,0.5338567743975668
1761315733816093400,4.119093505859375,1.6744722586005925,-0.0863148861452937,0.5928007654711603
1761315733826075400,4.129075439453125,1.764552927020192,-0.26656448578983544,0.6445911584630608
1761315733836057300,4.139057373046875,1.7741805870652199,-0.40035365529358385,0.6408601552411913
1761315733846040300,4.149040283203125,1.6719821953505276,-0.48869303300380706,0.612205175175704
1761315733856022300,4.159022216796875,1.5031138214200734,-0.5600888746976852,0.5805932450007647
1761315733866004500,4.16900439453125,1.2970827147871256,-0.6049971069604158,0.5675485430538654
1761315733875987200,4.1789873046875,0.9963689988970756,-0.6365338164746761,0.5304762651138007
1761315733885969400,4.188969482421875,0.6432762764722109,-0.6570777150705457,0.5053210733301937
1761315733895951400,4.198951416015625,0.3219581639707088,-0.6575201981410383,0.49482287752833215
1761315733905933300,4.208933349609375,0.10787702187299728,-0.6339692266836762,0.4804476941626519
1761315733915916500,4.21891650390625,-0.06594926672577858,-0.59827510522902,0.45415838378258044
1761315733925898200,4.228898193359375,-0.19988661252856255,-0.5852306224778294,0.426260615292564
1761315733935880400,4.23888037109375,-0.2804401586681604,-0.6031333589151501,0.4501056743256747
1761315733945862400,4.2488623046875,-0.31964345728754995,-0.6116615332856774,0.5158744699180126
1761315733955845400,4.258845458984375,-0.3238941004693508,-0.6184799811288714,0.5755244903691112
1761315733965827600,4.26882763671875,-0.3250041075378656,-0.6360460329577327,0.5916773143991828
1761315733975809300,4.278809326171875,-0.31063012974858284,-0.6859682939901948,0.596118365586549
1761315733985792500,4.28879248046875,-0.2923661587834358,-0.7122296934500336,0.561105285198614
1761315733995774200,4.298774169921875,-0.23650164822041986,-0.7640931516781448,0.46647528291158374
1761315734005756400,4.30875634765625,-0.14408581485152244,-0.825977653183043,0.40610367018766697
1761315734015738400,4.31873828125,-0.04924304659664631,-0.9445873737335204,0.4057373210933059
1761315734025721300,4.328721435546875,0.052010173222422594,-1.0620970240876078,0.40289259918667375
1761315734035703300,4.338703369140625,0.14484744687378406,-1.1628323575124144,0.41284006577059623
1761315734045685200,4.348685302734375,0.24076281279623507,-1.2481556022718547,0.43535657961368557
1761315734055668500,4.35866845703125,0.2600894445568323,-1.3395040986701845,0.4645138466455042
1761315734065650400,4.368650390625,0.2076782893180847,-1.4143655706480145,0.48030835875719785
1761315734075632400,4.37863232421875,0.1529191096484661,-1.4482465052008628,0.5515910954654216
1761315734085614300,4.3886142578125,0.11955167757570744,-1.4687094475150106,0.5911389697387814
1761315734095597300,4.398597412109375,0.05919219368100166,-1.5092030782058834,0.6082469025366007
1761315734105579300,4.408579345703125,-0.010056699112057685,-1.5861518778517842,0.6240966519668698
1761315734115561200,4.418561279296875,-0.11247136392593383,-1.6616057627648113,0.5924865118902176
1761315734125543400,4.42854345703125,-0.20860124938189983,-1.6992749836847185,0.5210952733062207
1761315734135526400,4.4385263671875,-0.341234526848793,-1.6646201421499252,0.45255701300054785
1761315734145508400,4.44850830078125,-0.4795967033565044,-1.6000018317669629,0.45705235165841873
1761315734155490300,4.458490234375,-0.6306558643519878,-1.4830980383515358,0.5052472043763846
1761315734165473500,4.4684736328125,-0.7936977240860462,-1.345512106913328,0.5784975878957659
1761315734175455000,4.478455078125,-0.9414116663068532,-1.2245596226289868,0.6401960653092712
1761315734185437000,4.48843701171875,-1.0918629245370626,-1.126083174046874,0.6944248644292355
1761315734195419000,4.4984189453125,-1.2063356914132832,-1.0725076512038707,0.7234281830083579
1761315734205401900,4.50840185546875,-1.2703273943305016,-1.0337845373168586,0.7360723413303494
1761315734215384000,4.518384033203125,-1.3256991529405115,-1.059127360627055,0.8102307796053588
1761315734225365800,4.52836572265625,-1.3081401153743266,-1.2388891767546535,1.0342458712182938
1761315734235349000,4.538348876953125,-1.1580687963724137,-1.4792916318058966,1.2997875898316502
1761315734245331000,4.5483310546875,-0.9313789325922727,-1.6622037286579607,1.4540942083157598
1761315734255313000,4.55831298828125,-0.8340028464674949,-1.7845348078191279,1.3818304977461695
1761315734265295000,4.568295166015625,-0.9345493793219327,-1.7814421025007963,1.0201586014159023
1761315734275277800,4.57827783203125,-1.1940396889418363,-1.666979564757645,0.5321837996840477
1761315734285260000,4.588260009765625,-1.506965820673108,-1.3976315857291222,0.027078853322565554
1761315734295241700,4.59824169921875,-1.9008634316951036,-0.9766901926979422,-0.3132743606470525
1761315734305224000,4.608223876953125,-2.3441613257020713,-0.45070115600079297,-0.4705776767291128
1761315734315207000,4.61820703125,-2.7362627009570595,0.12122867087721824,-0.5078612593322992
1761315734325188900,4.62818896484375,-2.899900773018598,0.6569181405946612,-0.4519777518078685
1761315734335171000,4.638171142578125,-2.901359739655256,1.0812778176367281,-0.29023996040970085
1761315734345154000,4.648154052734375,-2.772269249361753,1.4080755305930972,-0.08029927911758422
1761315734355136000,4.658135986328125,-2.472799980574846,1.6605457323178647,0.10164294978901743
1761315734365118000,4.668117919921875,-1.9891133775562047,1.8219795723333954,0.192211255595088
1761315734375100000,4.678099853515625,-1.3797849633932113,1.8592793754190204,0.21158070358410477
1761315734385083000,4.688082763671875,-0.6831874311000108,1.766141949777305,0.13005626658573746
1761315734395064800,4.69806494140625,0.015468787288665771,1.6385443283900618,-0.0856464853644371
1761315734405047000,4.708047119140625,0.6348229209035635,1.584514632038772,-0.31587182979434725
1761315734415029000,4.718029052734375,1.187805762988329,1.5708371120810507,-0.49280266027972097
1761315734425012000,4.728011962890625,1.7036989376068115,1.5368389808893204,-0.5655598534546792
1761315734434994000,4.737993896484375,2.156008405587077,1.464290754289925,-0.5040152514286339
1761315734444975900,4.747975830078125,2.4853601869404316,1.4117504197135566,-0.3158599932260811
1761315734454958800,4.757958740234375,2.794372360098362,1.3564391591191292,-0.17621216082200408
1761315734464941000,4.767941162109375,3.0094863523751494,1.3165586918905376,-0.098438746920228
1761315734474923000,4.777923095703125,3.196855428636074,1.3053925702318547,0.006208060859888792
1761315734484905000,4.787905029296875,3.265595787385106,1.3294222651168703,0.1328492583051324
1761315734494888000,4.797887939453125,3.209248461741209,1.370033092446625,0.17013503286540507
1761315734504870000,4.807869873046875,2.956821514636278,1.3946692287921905,0.25582082732692357
1761315734514852000,4.81785205078125,2.581683549141884,1.4322215453341602,0.4036040353916585
1761315734524833800,4.827833740234375,2.1783745511740444,1.5345783424809574,0.517638995372504
1761315734534817000,4.837817138671875,1.7168600324749945,1.679279366621375,0.4945467274680733
1761315734544799000,4.847799072265625,1.2099404379069805,1.7852382799133657,0.4388612267337739
1761315734554781000,4.857781005859375,0.8503250357151031,1.89003399464488,0.4382040779992938
1761315734564764000,4.867763916015625,0.5398100567787886,2.031487415166199,0.4526557971999049
1761315734574745900,4.877745849609375,0.2089028626769781,2.1623297175630927,0.4439281547345221
1761315734584728000,4.88772802734375,-0.23132103071212767,2.2405893075466157,0.4077516565904021
1761315734594709800,4.897709716796875,-0.7133890926182269,2.2876395202741024,0.24659414929822085
1761315734604693000,4.90769287109375,-1.2252619256794453,2.2331366534531116,-0.008703677067905664
1761315734614675000,4.917675048828125,-1.6712258240252733,2.0903212969288227,-0.20825492016226052
1761315734624657000,4.927656982421875,-1.9054618654012678,1.8911565689340233,-0.34332901491001244
1761315734634640000,4.937639892578125,-1.9729642067879438,1.5804869839578866,-0.435615961202234
1761315734644621800,4.947621826171875,-1.7490590052902697,1.2593833909898995,-0.54391047783494
1761315734654604000,4.95760400390625,-1.220793840354681,1.0350061880663037,-0.632119507163763
1761315734664585700,4.967585693359375,-0.4740729714989662,0.8496595575436949,-0.6278655029810964
1761315734674569000,4.97756884765625,0.2511784083485603,0.6759130561828612,-0.528114504418522
1761315734684551000,4.987551025390625,0.854431886512041,0.4515966435357928,-0.46789486738592384
1761315734694532900,4.997532958984375,1.211599311029911,0.2206076212570071,-0.4079245289392769
1761315734704515000,5.00751513671875,1.460176596969366,0.030287001714110372,-0.3241566969282925
1761315734714498000,5.017498046875,1.552664326530695,-0.11478928547948598,-0.25114143733903765
1761315734724480000,5.02747998046875,1.5057488460987805,-0.2104980229139328,-0.18251140709668398
1761315734734462000,5.0374619140625,1.2904945685684681,-0.28175854779034853,-0.1054293364599347
1761315734744445000,5.04744482421875,0.9434253442168236,-0.33108138162493705,-0.03846709329932928
1761315734754427000,5.057427001953125,0.5336895280718803,-0.309264686614275,0.002210369525849819
1761315734764408800,5.067408935546875,0.13338088096380232,-0.24305618443042037,0.014475976859033107
1761315734774391000,5.07739111328125,-0.16975334007143975,-0.15776538063585757,0.040287440594285726
1761315734784374000,5.0873740234375,-0.40225452047884463,-0.08660305543690919,0.06747589177116751
1761315734794356000,5.09735595703125,-0.6026835693210363,-0.07017769807577133,0.1016542018353939
1761315734804338000,5.107337890625,-0.7696124996215105,-0.11166384693533181,0.11797558736540377
1761315734814319900,5.11731982421875,-0.8945715891987085,-0.16447306158095598,0.09515336857400834
1761315734824302800,5.127302734375,-0.99893446547091,-0.2215039855748415,0.019220760233327746
1761315734834285000,5.13728515625,-1.087561427950859,-0.2863262940973043,-0.04744359595924615
1761315734844267000,5.14726708984375,-1.1223884111821651,-0.4069891477853059,-0.10632497012540697
1761315734854250000,5.15725,-1.074993038278818,-0.5113482246652246,-0.1422500507917255
1761315734864232000,5.16723193359375,-1.0020967288941145,-0.6239364929690957,-0.18999847491644323
1761315734874214000,5.1772138671875,-0.8699532807707786,-0.7355901107713579,-0.2262580482341349
1761315734884196000,5.187196044921875,-0.6694599345207214,-0.8501113929644226,-0.21507292961403726
1761315734894178800,5.1971787109375,-0.4218962095379829,-0.9813003168419003,-0.16328085612170398
1761315734904161000,5.2071611328125,-0.16589198846817016,-1.1168854298517108,-0.07511091669425368
1761315734914142700,5.217142822265625,0.04221767800450325,-1.2334595529213548,0.012039543492347001
1761315734924125000,5.227125,0.1613987687021494,-1.3283213181376456,0.0767583185750991
1761315734934108000,5.23710791015625,0.18587386926710606,-1.380501587229967,0.12888291195742785
1761315734944089900,5.24708984375,0.08437047407925129,-1.404934894479811,0.12351751246675849
1761315734954072000,5.257072021484375,-0.0784095198482275,-1.415918060787022,0.1444899386730045
1761315734964055000,5.267054931640625,-0.280241421225667,-1.4320666470333934,0.18754684398062527
1761315734974037000,5.277037109375,-0.45910511946976185,-1.4057152312025427,0.2547696377735585
1761315734984019000,5.28701904296875,-0.6371434728056192,-1.377308636407554,0.3328966143533587
1761315734994001000,5.2970009765625,-0.8687859905570745,-1.3504343657463789,0.37293767897114155
1761315735003984000,5.30698388671875,-1.110683944863081,-1.2814613672852515,0.4484241144469008
1761315735013965800,5.3169658203125,-1.3035709077626465,-1.2267521642372012,0.6848708541423082
1761315735023948000,5.326947998046875,-1.3192355098843573,-1.3161910276219249,1.0224747694037855
1761315735033930000,5.336929931640625,-1.1437930182605982,-1.4893240732595323,1.3228639295145868
1761315735043913000,5.346912841796875,-0.8535761464655399,-1.6566721057549119,1.4308308216281234
1761315735053895000,5.35689501953125,-0.605462970906496,-1.7549983322113751,1.4147152608685194
1761315735063876900,5.366876953125,-0.5298451276034116,-1.8065709907993672,1.3576314376436174
1761315735073859800,5.37685986328125,-0.6826192758232354,-1.8112535956576465,1.2817305396154521
1761315735083842000,5.386842041015625,-1.078941483643651,-1.6790271454259753,1.1129385919220744
1761315735093824000,5.396823974609375,-1.6672136657744645,-1.4414952773749827,0.9108525696530938
1761315735103806000,5.406805908203125,-2.3020669818162918,-1.1102093130886554,0.7505090090923011
1761315735113789000,5.416788818359375,-2.76384570440948,-0.7053942944720387,0.7145392855666577
1761315735123771000,5.42677099609375,-3.03572612452507,-0.34961920109540223,0.7691443706531077
1761315735133753000,5.436753173828125,-3.097927436894178,-0.07476502586603165,0.8386392740964889
1761315735143735000,5.446735107421875,-2.9282255347490307,0.17162760951071976,0.9955461382068693
1761315735153718000,5.456718017578125,-2.5032822126001117,0.3826072784617543,1.1478924894686788
1761315735163700000,5.466699951171875,-1.958897687512636,0.554844836564362,1.2472567537359893
1761315735173682000,5.476681884765625,-1.4844377625226974,0.6461597229540348,1.2800351338744163
1761315735183665200,5.4866650390625,-1.140404544866085,0.7005623442709445,1.3194322015002369
1761315735193646800,5.496646728515625,-0.8814519953846931,0.7934078012287616,1.3302226217143236
1761315735203629000,5.506629150390625,-0.6763748284757137,0.8996177666723728,1.3181807401344179
1761315735213611000,5.516611083984375,-0.4868324998289346,1.030723688441515,1.266666387604922
1761315735223594000,5.526593994140625,-0.32790508967638016,1.1499921651616691,1.152123916493356
1761315735233576000,5.536575927734375,-0.1896054570108652,1.2768696555808186,1.0037870200686156
1761315735243558000,5.546557861328125,-0.027075053930282592,1.4005588713526724,0.812436765217036
1761315735253540000,5.5565400390625,0.13547288480699063,1.4738380425751207,0.6070346406700089
1761315735263523000,5.566523193359375,0.33557050973773,1.4947048895150423,0.4273049367137253
1761315735273505000,5.576505126953125,0.543501897034049,1.4641156899839638,0.2547889087296091
1761315735283487000,5.586487060546875,0.7342875037401915,1.4243360527813433,0.06372797394711524
1761315735293469000,5.596468994140625,0.8507195879906415,1.3828320760041475,-0.12918393159746192
1761315735303452000,5.606451904296875,0.9283002557992934,1.3517051163345575,-0.3206256001926958
1761315735313433900,5.616433837890625,0.9934428823173046,1.3730848812326788,-0.463956139697507
1761315735323416000,5.626416015625,1.0420604904919861,1.4274711359366774,-0.5258148491740227
1761315735333399000,5.63639892578125,1.0424088655382395,1.4969570523560047,-0.5431142859559506
1761315735343381000,5.646381103515625,1.0190361732572317,1.5537731645554302,-0.4947061192808673
1761315735353363000,5.656363037109375,0.9587053309351206,1.6318115130037067,-0.3917806919332593
1761315735363345000,5.666344970703125,0.8857897323280572,1.7453963911294936,-0.27289832845386114
1761315735373328000,5.676327880859375,0.8324550325036049,1.8468261365592478,-0.148771999906376
1761315735383310000,5.68631005859375,0.7936071231931447,1.915193278081715,-0.027118372482201083
1761315735393292000,5.6962919921875,0.7997223912030458,1.954056092700362,0.09100388421174138
1761315735403274000,5.70627392578125,0.8290303187519311,1.9368147427812217,0.20192147935703395
1761315735413257000,5.716257080078125,0.8999532822370528,1.8778607417702673,0.28268273169687014
1761315735423239000,5.726239013671875,1.019966147583723,1.788917552947998,0.348883361101523
1761315735433221000,5.73622119140625,1.1437632076442241,1.6726926817074417,0.40141704674139617
1761315735443203000,5.746203125,1.2238181566119193,1.5190131090804933,0.4632985891042277
1761315735453186000,5.75618603515625,1.2926818494796752,1.404830849583447,0.4887209804566577
1761315735463168000,5.76616796875,1.3439502644240855,1.3195926527589559,0.4914032418105751
1761315735473150000,5.77614990234375,1.3658423627585172,1.2390756392374633,0.5237745755180716
1761315735483133200,5.78613330078125,1.3260995504349469,1.1307540884673595,0.5894270877869799
1761315735493115000,5.796114990234375,1.2773206142187117,1.0481316270992158,0.6412772846747189
1761315735503097000,5.80609716796875,1.1756038685411214,1.0029080452769994,0.6685134474508464
1761315735513079000,5.8160791015625,1.0492606311291455,0.9657245620474219,0.67440710859932
1761315735523062000,5.82606201171875,0.8782382940351963,0.9016419659763574,0.6847495658501982
1761315735533044200,5.836044189453125,0.664764470180869,0.8318935992285609,0.6865314808309078
1761315735543026000,5.84602587890625,0.4711036002993583,0.7492144392371177,0.692728947231546
1761315735553008000,5.856008056640625,0.34209026689529415,0.6575894639849662,0.7487821122344582
1761315735562990800,5.865990966796875,0.2702928586632013,0.5413523177847266,0.8099476518150418
1761315735572973000,5.87597314453125,0.2262216617465019,0.43435266326814886,0.8942421380486338
1761315735582955000,5.885955078125,0.16841887659728527,0.3293184636056423,1.0197818770579994
1761315735592938000,5.89593798828125,0.09946575188040732,0.2552563253119588,1.1190122127473354
1761315735602920000,5.905919921875,0.030360651472210884,0.1909738227546215,1.1719544791880994
1761315735612902000,5.91590185546875,-0.0599964958012104,0.10030950922816992,1.2276030819781123
1761315735622884000,5.925884033203125,-0.20849895805120466,-0.03056903352588415,1.2534224367588758
1761315735632867000,5.9358671875,-0.38835868159532544,-0.14798457585573196,1.2029229603603482
1761315735642849000,5.94584912109375,-0.5643073691755532,-0.24442834956645965,1.139813666300848
1761315735652831000,5.9558310546875,-0.6909896292835473,-0.29671938555687666,1.103698177628964
1761315735662813000,5.96581298828125,-0.7637532521992921,-0.33190964914262294,1.0913441613599657
1761315735672796000,5.9757958984375,-0.7647884404659271,-0.3756593590199947,1.066217465018481
1761315735682777900,5.98577783203125,-0.7198100655764341,-0.4203340747877955,1.0736331481024621
1761315735692760000,5.995760009765625,-0.6747416743159294,-0.4709522091299295,1.0857847736671566
1761315735702743000,6.005742919921875,-0.6299433321684599,-0.494204197640717,1.0760258884578942
1761315735712725000,6.01572509765625,-0.5739864671468734,-0.48628246473073955,1.0638583346717059
1761315735722707000,6.02570703125,-0.5390852496355771,-0.49910044524967667,1.056141915075481
1761315735732689000,6.03568896484375,-0.5531131904661655,-0.5165598218336701,1.0202722909234463
1761315735742672000,6.045671875,-0.5733510918527841,-0.4975736740738153,0.9602983722802251
1761315735752654000,6.055654052734375,-0.6041822834461927,-0.4443006413087249,0.9302431334953755
1761315735762636000,6.065635986328125,-0.6414356170415878,-0.3729182436183095,0.977006565170735
1761315735772618000,6.075617919921875,-0.707570177206397,-0.25517010833323,1.0170110971704125
1761315735782601000,6.08560107421875,-0.7495610607177019,-0.08906330807060003,1.0365237530224025
1761315735792583000,6.0955830078125,-0.7767465892851352,0.0346712081477046,1.092281003818661
1761315735802565000,6.105565185546875,-0.7967986127108335,0.120781511631608,1.1267818238355218
1761315735812547000,6.115547119140625,-0.7987526693880558,0.21107143888771532,1.115973721834272
1761315735822530000,6.125530029296875,-0.8103641967266798,0.3075090751186013,1.0805313831835985
1761315735832512000,6.135511962890625,-0.8861825310379267,0.3845473066136241,1.0657561311170458
1761315735842494000,6.145493896484375,-1.0262918434739112,0.46606472934931514,1.026684422988072
1761315735852477200,6.155477294921875,-1.2029238371431827,0.6171162915602326,0.967468921496719
1761315735862459000,6.165458984375,-1.3158575578838585,0.8104638577088713,0.9030337125957012
1761315735872441000,6.175441162109375,-1.3959540079057216,1.0416092395931482,0.9097131903596222
1761315735882423000,6.185423095703125,-1.4668898308724163,1.2788111450374127,0.9888201909527182
1761315735892406000,6.195406005859375,-1.4605992062956095,1.4929589226305484,1.092620026514679
1761315735902388000,6.205387939453125,-1.4066910904973744,1.7085677126869558,1.1701744639035314
1761315735912370000,6.215369873046875,-1.4080875132918358,1.865830404497683,1.20137163926512
1761315735922352000,6.22535205078125,-1.433354056495428,1.9366712426573036,1.245532414161414
1761315735932334800,6.2353349609375,-1.3926590580135583,1.8906708312436937,1.3761366700187325
1761315735942317000,6.245317138671875,-1.2639660426050423,1.6700000816226004,1.6171787381477654
1761315735952298800,6.255298828125,-1.0482646058291196,1.3625456593006848,1.7675111923038958
1761315735962282000,6.265281982421875,-0.7753595188409089,1.240473231075704,1.5702987674206494
1761315735972264000,6.275263916015625,-0.6835048264861107,1.43300538918823,0.9338795903015881
1761315735982246000,6.285245849609375,-1.1169880134433507,1.7738208138421176,0.13998517459966242
1761315735992228000,6.29522802734375,-2.014010502925515,2.235172250933945,-0.4156150103766471
1761315736002211000,6.305211181640625,-2.910929532033205,2.83834272698909,-0.5637345742562785
1761315736012193000,6.315193115234375,-3.6171950563818216,3.3499417115449903,-0.4354625607388094
1761315736022175000,6.325175048828125,-3.7711160365492105,3.8376626846462485,-0.12866875775009393
1761315736032157000,6.335156982421875,-3.2391543551832434,4.3121617726027965,0.31371147342268374
1761315736042140000,6.345139892578125,-2.2886054426968094,4.752449378877878,0.700226682575792
1761315736052121900,6.355121826171875,-1.076207090243697,5.015852478027344,0.9644611179828643
1761315736062104000,6.36510400390625,0.0918681363582611,5.03047955379486,1.1278789714224635
1761315736072086000,6.3750859375,1.1571008281230926,4.791098550745844,1.2027445350535213
1761315736082069000,6.385069091796875,2.0243349130630492,4.3266649297296995,1.179569484236464
1761315736092051000,6.395051025390625,2.6096809786140915,3.7655525572031734,1.128979480010271
1761315736102033000,6.405032958984375,2.9445278502523897,3.211094089607894,1.1081816797185688
1761315736112015000,6.41501513671875,2.9803736551374196,2.6952830403149126,1.1011845873728394
1761315736121998000,6.424998046875,2.6988527154952284,2.224889049589634,1.1475026133682578
1761315736131980000,6.43497998046875,2.2300199827373026,1.8329349738508462,1.2506819058790801
1761315736141962000,6.4449619140625,1.720246167781949,1.5238228474497795,1.5012329761095344
1761315736151945000,6.454945068359375,1.2208616448938845,1.3091706274658441,1.8165651460692285
1761315736161927000,6.464927001953125,0.7429431038826704,1.1605699655383825,2.092142228745669
1761315736171908600,6.47490869140625,0.3028869682759046,1.0819611237257718,2.3137971670985222
1761315736181890800,6.484890869140625,-0.07431611305475234,1.0409256412431598,2.451945408594608
1761315736191873800,6.494873779296875,-0.41448330293297764,0.985008523710072,2.5252494219973682
1761315736201855700,6.504855712890625,-0.7220107904911041,0.953756768617034,2.5578940927535294
1761315736211837700,6.514837646484375,-0.9497820197671651,1.002291666944325,2.5771558425843715
1761315736221819600,6.524819580078125,-1.128317801231146,1.065433475033939,2.582688342270255
1761315736231802600,6.534802734375,-1.2933552186965942,1.072824462068081,2.6157778341844677
1761315736241784800,6.544784912109375,-1.375135676282644,1.0364777219235897,2.726221199414134
1761315736251766800,6.554766845703125,-1.3772557371765375,1.003223979358375,2.8596178624689577
1761315736261748700,6.564748779296875,-1.311224052864313,0.8985100976914167,3.0007009883731603
1761315736271731700,6.574731689453125,-1.1347960573345421,0.7578533805057406,3.1581361141413447
1761315736281713700,6.584713623046875,-0.8871417314589023,0.624989509153366,3.283040843182802
1761315736291695600,6.594695556640625,-0.6605804624944925,0.5057341841757297,3.3731612590909004
1761315736301678600,6.6046787109375,-0.5244657726526261,0.35718379113078114,3.397011213494837
1761315736311660800,6.614660888671875,-0.4829968671888113,0.2020075502052903,3.3657176650866862
1761315736321642800,6.624642822265625,-0.4819698622286319,0.07320289111584424,3.310923121842742
1761315736331624700,6.634624755859375,-0.4819873978853225,-0.015132102680206297,3.2212735383167863
1761315736341608000,6.64460791015625,-0.5137222603201865,-0.10674743332117795,3.1293183081969618
1761315736351589600,6.654589599609375,-0.5797896004676818,-0.17577333101332188,3.022800007456541
1761315736361571800,6.66457177734375,-0.7906716542631387,-0.2153115606755018,2.9006805252194403
1761315736371553500,6.674553466796875,-1.079832879525423,-0.1947422353774309,2.765632003304362
1761315736381536800,6.684536865234375,-1.383923962894082,-0.04509060309231281,2.6181469014033674
1761315736391518700,6.694518798828125,-1.6288269442349672,0.18174509889930485,2.4123770760551095
1761315736401500700,6.704500732421875,-1.8826298558682202,0.310210150770843,2.2468948374316096
1761315736411483000,6.71448291015625,-2.164607891628146,0.40058775631040333,2.125276582714915
1761315736421465600,6.724465576171875,-2.3600994840681553,0.5734563057929277,1.942452164146304
1761315736431447800,6.73444775390625,-2.496647889152169,0.737389853669703,1.717873155040294
1761315736441429500,6.744429443359375,-2.553088738298416,0.9300108591094612,1.4975227234147488
1761315736451412700,6.754412841796875,-2.559763978278637,1.0962503458410502,1.3028376250520348
1761315736461394700,6.764394775390625,-2.5030618478477,1.2008990533173083,1.0479854966267943
1761315736471376600,6.774376708984375,-2.3628391381651164,1.2270721899718045,0.7786187398325651
1761315736481358800,6.78435888671875,-2.1203058085650204,1.2246034617707133,0.5678866159018129
1761315736491341600,6.794341552734375,-1.7656909911394119,1.2098045365676282,0.35995113695226605
1761315736501323800,6.80432373046875,-1.3452537482380866,1.201520400086045,0.12747457952946423
1761315736511305700,6.8143056640625,-0.9248094910740852,1.1991066169425844,-0.11271229654233902
1761315736521287700,6.82428759765625,-0.6002934593141078,1.1782552598327398,-0.31946926976442336
1761315736531270700,6.834270751953125,-0.34198680652081964,1.162264202235639,-0.4759226910188794
1761315736541252600,6.844252685546875,-0.10425649328827857,1.1574530025616288,-0.5812294970776886
1761315736551234800,6.85423486328125,0.11681786869764327,1.1382801000580192,-0.6898096257187426
1761315736561216500,6.864216552734375,0.35241292346715924,1.0570943934947252,-0.8076819719053805
1761315736571199700,6.87419970703125,0.6078624332636594,0.8928232842266559,-0.9478005636263638
1761315736581181700,6.884181640625,0.8370809387385845,0.7078104157030582,-1.1058673383615911
1761315736591163600,6.89416357421875,1.0394634597361088,0.5723197029784322,-1.1768706736065446
1761315736601145900,6.904145751953125,1.1948469136714934,0.4344873955637216,-1.2735048553228379
1761315736611128800,6.91412890625,1.2382388961523771,0.2711553207114339,-1.3361220550164579
1761315736621110800,6.92411083984375,1.1508283237248658,0.11647066269516944,-1.3640161702446638
1761315736631092700,6.9340927734375,0.921301775214076,-0.009007190059125423,-1.327942986344546
1761315736641075700,6.94407568359375,0.744196903336048,-0.08248948263823985,-1.2752920310005544
1761315736651057700,6.9540576171875,0.6493956361353397,-0.09394260454475879,-1.2814308260165155
1761315736661039600,6.96403955078125,0.6331967810064554,-0.14740385335832834,-1.2670277682632207
1761315736671021800,6.974021728515625,0.7247323244094849,-0.28290771782547236,-1.1985757980015128
1761315736681004800,6.9840048828125,0.9213146346956491,-0.5259513350352645,-1.0781452917646617
1761315736690986800,6.99398681640625,1.1500292823016642,-0.7534536842420697,-1.0026436221871524
1761315736700968700,7.00396875,1.3784785569697617,-0.9119520553275943,-1.1076238266400993
1761315736710950700,7.01395068359375,1.5044266575843095,-1.002054351057112,-1.2808293529920278
1761315736720933600,7.02393359375,1.5029267744153738,-1.0637100122421979,-1.4597395207263528
1761315736730915800,7.033915771484375,1.32501175519824,-1.1386220453634857,-1.5778750478938222
1761315736740897500,7.0438974609375,0.9794044200927019,-1.2253598330959676,-1.6531614672854542
1761315736750879700,7.053879638671875,0.6228676946938038,-1.2236696880519389,-1.7207621544800697
1761315736760862500,7.063862548828125,0.264237796407938,-1.0983663150817156,-1.7805235263511539
1761315736770844700,7.0738447265625,-0.13579963254332542,-0.9971627796232699,-1.7749072939045727
1761315736780827000,7.083826904296875,-0.5748024597048759,-0.9563362637162208,-1.6201783583551643
1761315736790809600,7.0938095703125,-0.9730530052393674,-0.8432014674454927,-1.4720580272905528
1761315736800791800,7.103791748046875,-1.272670742586255,-0.6652510846540332,-1.3050091238722203
1761315736810773500,7.1137734375,-1.5803694950580596,-0.5459793930634856,-1.1395238165087997
1761315736820755700,7.123755615234375,-1.827927959343791,-0.456758556343615,-1.014024190314114
1761315736830738700,7.13373876953125,-2.1268951238274574,-0.32504882346242664,-0.8146282839119434
1761315736840720600,7.143720703125,-2.451186699181795,-0.0859556974440813,-0.6048324909832328
1761315736850702800,7.153702880859375,-2.8760364978283643,0.2210281847566366,-0.4278338559586555
1761315736860684500,7.1636845703125,-3.240380682107806,0.52802989487499,-0.24354751161132007
1761315736870667800,7.173667724609375,-3.4644115558117625,0.7861541768386959,-0.07208093788120895
1761315736880649700,7.183649658203125,-3.4918104348689316,0.9328712169766425,0.013188348201289772
1761315736890631700,7.193631591796875,-3.254662889960408,0.9578265022739767,0.02018204301353544
1761315736900614000,7.20361376953125,-2.7702643392801285,0.9086442459538578,-0.08988397680372
1761315736910596600,7.2135966796875,-2.0726719507306814,0.7871069475188851,-0.34734617812950164
1761315736920578800,7.223578857421875,-1.286874624505639,0.6144125855594873,-0.610031447865814
1761315736930560500,7.233560546875,-0.6198883866220712,0.42992724804133176,-0.8126280500054359
1761315736940542700,7.243542724609375,-0.09137655344903468,0.28555501746386286,-1.0197281010441481
1761315736950525700,7.253525634765625,0.2190986779987812,0.2083762084543705,-1.1047593771196902
1761315736960507600,7.263507568359375,0.3142570880740881,0.2148214390709996,-1.1123425257250665
1761315736970489900,7.27348974609375,0.29886954932808873,0.367352133923769,-1.1276165941592304
1761315736980472800,7.283472900390625,0.3012052987992763,0.6279299465194345,-1.1097057474806904
1761315736990454800,7.293454833984375,0.417975821223855,0.8266884318009018,-1.0268427553549409
1761315737000436700,7.303436767578125,0.666834846714139,0.9334902256578207,-0.9130487645231187
1761315737010418700,7.313418701171875,0.9883727394461631,0.9688269119769334,-0.8166597897395491
1761315737020401700,7.323401611328125,1.2655302231818437,0.9611638300031423,-0.728244204987958
1761315737030383600,7.333383544921875,1.36300217089653,0.9116326141148805,-0.7567203578878193
1761315737040365600,7.343365478515625,1.2634686144769192,0.8303414013504982,-0.8922814324349164
1761315737050347800,7.35334765625,1.119080017286539,0.7785890022814274,-1.0048955658324061
1761315737060330800,7.363330810546875,1.0521271264761685,0.7831286915376782,-1.0577610407099127
1761315737070312700,7.373312744140625,1.0734890634566545,0.7948571232542395,-1.1091779972795397
1761315737080294700,7.383294677734375,1.14099198936522,0.7461474528819322,-1.1405176498517393
1761315737090276600,7.393276611328125,1.2681278384596109,0.6456281002953648,-1.1291424885522574
1761315737100259800,7.403259765625,1.4119243149757383,0.5671472687765956,-1.0585300523210317
1761315737110241500,7.413241455078125,1.4812725764900445,0.5252838110372424,-0.9359834307130426
1761315737120223700,7.4232236328125,1.5044471158504484,0.5198918888658285,-0.736377534822002
1761315737130206500,7.43320654296875,1.4676350962817668,0.5212652230456472,-0.48315476116426287
1761315737140188700,7.443188720703125,1.395513278400898,0.5415449177473783,-0.2638076613623649
1761315737150171000,7.4531708984375,1.3258937987297772,0.5652972569957375,-0.06750314510427415
1761315737160152600,7.463152587890625,1.2347463778614998,0.5798758174464106,0.07279131464026868
1761315737170136300,7.47313623046875,1.1581547210901975,0.5424155631020665,0.13049911498241126
1761315737180118000,7.483117919921875,1.0848059917628765,0.39942046609669923,0.19319201026074587
1761315737190100200,7.493100341796875,1.0439327141046524,0.24153847334384917,0.21835458163321017
1761315737200082200,7.503082275390625,1.046762384572625,0.12617723319530486,0.20035240340940652
1761315737210065200,7.513065185546875,1.0441583395540714,0.06652618983089924,0.18185257786177098
1761315737220047000,7.523047119140625,1.0401140325993299,0.047294250616431235,0.21400332762114702
1761315737230029000,7.533029052734375,1.0543547393977641,0.031441724707186224,0.25891484781950713
1761315737240011300,7.54301123046875,1.0583961237430572,-0.03923047888725996,0.30295053503140806
1761315737249994000,7.552993896484375,1.0360779089510441,-0.15142214908897875,0.3558656212043017
1761315737259976200,7.56297607421875,0.9481593870013951,-0.26927754414081573,0.4274870883475989
1761315737269958100,7.572958251953125,0.8196528340756892,-0.37310645966678857,0.4813676585517823
1761315737279940000,7.582940185546875,0.6571148322105407,-0.4503638868704438,0.5133323842197657
1761315737289923000,7.592923095703125,0.48594578012228007,-0.5389417495116591,0.5275215069614351
1761315737299905000,7.602905029296875,0.3576607609927654,-0.5942924653336406,0.49401620078794656
1761315737309887200,7.61288720703125,0.30292028602361676,-0.6299161519005895,0.41929859426021576
1761315737319869000,7.622868896484375,0.2879156091153621,-0.6714391256392002,0.3543224103502929
1761315737329852200,7.63285205078125,0.29822365263998507,-0.7174588262751698,0.3318359263192862
1761315737339834000,7.642834228515625,0.290249020498991,-0.7562772172302007,0.3683803079277277
1761315737349816000,7.652816162109375,0.22445465207397935,-0.7539055196627974,0.44605786023959515
1761315737359799000,7.662799072265625,0.09023673576414584,-0.6910486659944057,0.5373704816069453
1761315737369781000,7.672781005859375,-0.08940203850567341,-0.5990270926401019,0.6160176826685667
1761315737379763200,7.68276318359375,-0.2193909389436245,-0.525621956950426,0.6865439749862998
1761315737389745000,7.692744873046875,-0.3759463592678308,-0.4846501873537898,0.7458153713833541
1761315737399728000,7.70272802734375,-0.44621874988973137,-0.4463213334813714,0.7649831593204289
1761315737409710000,7.7127099609375,-0.41670974681079387,-0.4613146122127771,0.7985821351267397
1761315737419692000,7.722692138671875,-0.33391280565857884,-0.52898091198951,0.8359823298469186
1761315737429674200,7.73267431640625,-0.1680821919888258,-0.6001885376349091,0.8389046470344066
1761315737439657200,7.7426572265625,0.015596797582507132,-0.6612912411123514,0.8233470124185085
1761315737449639200,7.75263916015625,0.14985504590272902,-0.7554428122326732,0.818224189512059
1761315737459621000,7.76262109375,0.2074906577914953,-0.8529691204831004,0.8354630552131682
1761315737469603000,7.77260302734375,0.2010691003113985,-0.8904325896978378,0.8437468994338065
1761315737479586000,7.7825859375,0.19367782101631165,-0.9039873600587248,0.8034319132454693
1761315737489568000,7.792568115234375,0.20476912387311458,-0.9419403663560748,0.7088526912976056
1761315737499550200,7.80255029296875,0.1854015755802393,-1.006538218472898,0.6034645636308937
1761315737509532200,7.8125322265625,0.08106558731496334,-1.0953227096021174,0.4803743731981143
1761315737519515100,7.82251513671875,-0.06916939781606198,-1.1389359336182474,0.4106220243949443
1761315737529497000,7.8324970703125,-0.20129823289215565,-1.0991942903384566,0.37485640860665587
1761315737539479000,7.84247900390625,-0.27367607136070726,-0.9979168128609657,0.3210528126288205
1761315737549461200,7.852461181640625,-0.3000157967537641,-0.9213470756605266,0.2625130549745634
1761315737559444200,7.8624443359375,-0.3639478784382343,-0.8853039946377277,0.2367658521145582
1761315737569426200,7.87242626953125,-0.4577729940831661,-0.8597992587640881,0.23412816055472938
1761315737579408100,7.882408203125,-0.6325245808333159,-0.8360930967450141,0.24880873834146186
1761315737589391000,7.89239111328125,-0.8363140460193157,-0.9115785458400845,0.41407753514368084
1761315737599373000,7.902373046875,-1.025376482194662,-1.0348463213294743,0.527360690376535
1761315737609355300,7.912355224609375,-1.1201339102536438,-1.0617322824284434,0.45109863088577984
1761315737619337000,7.9223369140625,-1.2440385223418473,-1.0830994801059364,0.3217115322658792
1761315737629320200,7.9323203125,-1.373673787036538,-1.1679100991681217,0.19765982159087434
1761315737639302000,7.942302001953125,-1.5104133307784795,-1.3327610541507602,0.18102041962025686
1761315737649284000,7.9522841796875,-1.6325819128543138,-1.4130910206675529,0.14119734513470902
1761315737659266000,7.96226611328125,-1.6458663418412207,-1.3114178218707442,0.050136497438186774
1761315737669249000,7.9722490234375,-1.6190455549329519,-1.1159484412625431,-0.034238917677663266
1761315737679231200,7.982231201171875,-1.5171353325098753,-0.8618515151187777,-0.10672271900502964
1761315737689213000,7.992212890625,-1.4030629631280898,-0.594228167925775,-0.10192216858919709
1761315737699195100,8.002195068359375,-1.2689274644047022,-0.345063437487185,-0.08516403560973704
1761315737709178000,8.01217822265625,-1.1599228998064994,-0.09517477668821811,-0.11196882123127579
1761315737719160000,8.02216015625,-1.152271508270502,0.16533172423690556,-0.18391330978386103
1761315737729142300,8.032142333984375,-1.2308049467593432,0.44364831487983464,-0.2239221526324749
1761315737739124000,8.0421240234375,-1.2498381485313177,0.6493497511669993,-0.24315851229373364
1761315737749107200,8.052107177734374,-1.2806786924749611,0.8033981571063399,-0.24696853556856513
1761315737759089000,8.0620888671875,-1.2240735926777124,0.9704188573434949,-0.27695428931377825
1761315737769071000,8.072071044921875,-1.04833825558722,1.1537938955321907,-0.2449493047006428
1761315737779053300,8.08205322265625,-0.8470043668597936,1.206917875215411,-0.1834789369545877
1761315737789036000,8.0920361328125,-0.6465624585360288,1.1222475414067505,-0.06439100443311035
1761315737799018200,8.102018310546875,-0.3653858022868633,1.0426362445533275,0.024528511252626777
1761315737809000000,8.112,-0.09209317728579043,0.983982687793672,0.09081723906584084
1761315737818982100,8.121982177734376,0.18574352088570595,0.8938196017876266,0.18629874361567197
1761315737828965000,8.131965087890626,0.35551615017950533,0.7254886957347393,0.2894026328027248
1761315737838947000,8.141947021484375,0.4258160133302212,0.4742831071183085,0.2727043037191033
1761315737848929300,8.15192919921875,0.4247825786292553,0.2984843494027853,0.11642835792340338
1761315737858911000,8.161910888671875,0.4130255053400993,0.2666042332783341,-0.08654255742132663
1761315737868894200,8.171894287109374,0.25893442930281163,0.2470171970158815,-0.23411234193108973
1761315737878876200,8.181876220703124,0.03840191910862922,0.25139994214475153,-0.4510074454709887
1761315737888858000,8.191858154296876,-0.03032324207127094,0.37642858982682226,-0.6243264421347529
1761315737898841000,8.201841064453125,0.01625146209895611,0.5373261310085654,-0.673492477972433
1761315737908823000,8.211822998046875,0.1467939047664404,0.6656368691012263,-0.6194352360270917
1761315737918805200,8.22180517578125,0.2969400425702333,0.7361731713563203,-0.5650424054518342
1761315737928787000,8.231786865234374,0.4342606010705232,0.8628750129476189,-0.5622980751797556
1761315737938770200,8.241770263671874,0.48437516980469225,0.9785571556136011,-0.6131112206373364
1761315737948752100,8.251752197265626,0.4131488394588232,1.0554822821229695,-0.6628685734316706
1761315737958734000,8.261734130859375,0.280349557775259,1.1522349756523966,-0.6775816469822079
1761315737968716000,8.271716064453125,0.1862982321590185,1.2183809339940548,-0.6758483203835784
1761315737978699300,8.28169921875,0.14163900622129438,1.209758651599288,-0.5950426991790533
1761315737988681000,8.291680908203125,0.01062426986694336,1.2223986452028155,-0.5649985663101077
1761315737998663200,8.3016630859375,-0.04804419220089912,1.137892269784212,-0.6054270228102803
1761315738008645000,8.31164501953125,0.38135435579121113,0.9611062545970082,-0.32956118632033465
1761315738018628000,8.321628173828126,0.6377303327828645,0.7756748684003949,-0.5792866924468427
1761315738028610300,8.3316103515625,1.025620812344551,0.7216533553555607,-1.017206400546804
1761315738038592000,8.341592041015625,1.2722241678625343,0.5265957704186439,-1.0652076303888112
1761315738048574200,8.35157421875,1.379817112097144,0.2529083008810878,-1.0251174659322946
1761315738058557000,8.361556884765625,1.394929341033101,0.11706892084926367,-1.0120075897946954
1761315738068539100,8.3715390625,1.2784212689369916,0.04632511332333088,-1.1066977978363632
1761315738078521000,8.38152099609375,1.0072720857053994,-0.031197979079186915,-1.2303788303017615
