time,seconds_elapsed,z,y,x
1761316544733589800,0.07558984375,-0.07639408837258815,-0.020724844653345644,-0.006062930467887781
1761316544743573000,0.085572998046875,-0.07444821500182151,-0.022614010267658156,-0.01441371614462696
1761316544753555000,0.095554931640625,-0.08522153795063495,-0.0011171674616634844,-0.010845360705140045
1761316544763538000,0.105537841796875,-0.08282675176858902,0.00800811428548768,-0.009698451125761494
1761316544773520000,0.115519775390625,-0.0747445675998926,0.019269695675279943,0.009141182569181547
1761316544783503000,0.125503173828125,-0.08102876243591309,0.02670338020683266,0.00591870425818488
1761316544793484800,0.13548486328125,-0.07728782234191894,0.027314927100762724,0.008181187563762068
1761316544803468000,0.145468017578125,-0.07339607560038566,0.013787793665472418,0.008343301056604831
1761316544813450000,0.155449951171875,-0.07444412334859371,-0.005023417652584612,0.010552825765660964
1761316544823433000,0.165432861328125,-0.0754904175311327,-0.020356504531297833,0.004265420625824481
1761316544833415000,0.175414794921875,-0.07548924848735332,-0.01982626097896136,-0.0010993578103370965
1761316544843398100,0.185398193359375,-0.07533961088359356,-0.020092729895422233,0.001319133474281989
1761316544853379800,0.1953798828125,-0.07249474284648895,-0.011200644982792437,-0.0063166084014344955
1761316544863362000,0.205362060546875,-0.07458733121156692,-0.00037046814705245197,0.0024910176647128537
1761316544873345000,0.215344970703125,-0.07219254502952098,0.004059404059173539,-0.004194647811399772
1761316544883327000,0.225326904296875,-0.0748848528534174,0.00474027159595862,0.00539720113473013
1761316544893310000,0.23531005859375,-0.07907412123680115,0.013514566214662044,-0.0005694658844498917
1761316544903292000,0.2452919921875,-0.07683072622418403,0.005640069979894906,0.009867688479134813
1761316544913275000,0.25527490234375,-0.07638356697857379,0.006626441535586491,0.010333319529774598
1761316544923256800,0.2652568359375,-0.07219488311707974,-0.0009525606176350265,-0.001711781487101689
1761316544933240000,0.275239990234375,-0.07608604533672332,-0.0184165951104369,0.0038510722378501667
1761316544943222000,0.285221923828125,-0.07234568976461887,-0.019686715510953218,-0.0005788502007257193
1761316544953205500,0.29520556640625,-0.06396773751974105,-0.006412214263016357,-0.002817495972989127
1761316544963187700,0.305187744140625,-0.07055413017272949,-0.011638232682459056,-0.0012159653607523068
1761316544973170400,0.31517041015625,-0.07968319304585457,-0.0037979766440112144,-0.008772180293430574
1761316544983152600,0.325152587890625,-0.0793856714040041,0.004674248021887615,-0.005905675813253037
1761316544993135600,0.335135498046875,-0.07564823844134808,0.012809386220527812,-0.0035327544031431898
1761316545003117600,0.34511767578125,-0.0853758517295122,0.016485161256976424,0.001006615192699246
1761316545013100500,0.3551005859375,-0.07385258719623089,0.011779230322036892,0.010098748155497014
1761316545023082500,0.36508251953125,-0.08058803293108939,0.006489727345481515,0.01112011339275632
1761316545033065500,0.3750654296875,-0.0762479579001665,-0.006858551524719223,0.011761288239969872
1761316545043047700,0.385047607421875,-0.0729582687050104,-0.013740885783825069,0.006269727919250726
1761316545053030700,0.39503076171875,-0.07385960145890712,-0.008921585001749917,0.0037979903437430035
1761316545063012600,0.4050126953125,-0.07999591225683689,-0.0136771272320766,-0.000673209386714734
1761316545072994800,0.414994873046875,-0.08493336865901946,-0.0031271373108960688,-0.0010420655319932847
1761316545082977500,0.4249775390625,-0.08224047631323338,0.0026153609970118847,-0.006293254925310611
1761316545092959700,0.434959716796875,-0.07356149529516696,0.003962309493403882,-0.005240042378217913
1761316545102942700,0.444942626953125,-0.0696685795098543,0.010514425417454914,-0.0036561478873714803
1761316545112924700,0.454924560546875,-0.07460603591203689,0.014516144472640007,-0.0014219545279396696
1761316545122907600,0.46490771484375,-0.07909574854671955,0.005893268422828987,0.007339151815627701
1761316545132889600,0.4748896484375,-0.07655249380469321,0.001029443512437865,0.015953246337361632
1761316545142872600,0.48487255859375,-0.07221124972999096,-0.0014606197376269847,0.008200723381293937
1761316545152854800,0.494854736328125,-0.07310907535254955,-0.006526022501569241,0.0065233647536020725
1761316545162837500,0.50483740234375,-0.07565291461646556,-0.012339247958129271,-0.00010590349331032485
1761316545172819700,0.51481982421875,-0.07804653175473213,0.005471070088539272,-0.0053763364432146766
1761316545182802700,0.524802734375,-0.07445464474260807,0.0020163173916283995,-0.01260259333574213
1761316545192784600,0.53478466796875,-0.07879413525164126,0.0018592271337751298,-0.0028615543104242532
1761316545202767600,0.544767578125,-0.0731067372649908,0.004890502854762599,-0.012363720245682634
1761316545212749800,0.554749755859375,-0.07400339384377003,0.015108292546356096,-0.007355253567057661
1761316545222732500,0.564732666015625,-0.07520107919573783,0.010807681876141577,0.00170049747468438
1761316545232714800,0.57471484375,-0.07161094574928284,0.0034038901593536138,0.0006631309506949037
1761316545242697700,0.58469775390625,-0.07789397154152393,-0.0015981193790212272,-0.00750500990182627
1761316545252679700,0.5946796875,-0.06966273429095744,-0.008375796820409596,0.007795713643822819
1761316545262661600,0.60466162109375,-0.07938800949156284,-0.006228920984826982,0.0015889314255677163
1761316545272644600,0.61464453125,-0.08223170848488807,-0.005766034447122365,0.012805221502063795
1761316545282626600,0.62462646484375,-0.07594868269264697,-0.01016852545607835,0.006118930404866114
1761316545292609800,0.63460986328125,-0.08148468950986862,-0.007216452451143413,0.0027285390479024497
1761316545302591500,0.644591552734375,-0.0793897630572319,0.003999189171381295,0.005402169570792466
1761316545312574700,0.65457470703125,-0.08193535588681697,0.012666507151117548,-0.0055218732605921104
1761316545322556400,0.664556396484375,-0.06607435441017151,0.006770297852531075,0.0030938789286883545
1761316545332539600,0.67453955078125,-0.020287001225352284,0.011197420979244635,0.006889951309980824
1761316545342521600,0.684521484375,-0.12697802818417547,0.00002402019640430808,0.004066354389768094
1761316545352504800,0.6945048828125,-0.12039338909685611,-0.0024481238044798373,0.0037712073680944737
1761316545362486500,0.704486572265625,-0.0026315175473690033,-0.020817674035951493,0.004859591693268157
1761316545372469800,0.7144697265625,-0.1130652381658554,-0.013118169041909277,0.003532247513066977
1761316545382451500,0.724451416015625,-0.09032266048192977,-0.009704880866548046,-0.00004478898979723453
1761316545392434700,0.7344345703125,-0.03450724975764751,-0.0058047224896959956,0.011430590414302423
1761316545402416600,0.744416748046875,-0.13566168537735937,-0.003613998379232362,0.003110583468317054
1761316545412399600,0.754399658203125,-0.022834347620606422,0.008224323452590034,-0.00698021427616477
1761316545422381600,0.764381591796875,-0.08897592204809188,0.007420423191180452,-0.019092096918937748
1761316545432364800,0.77436474609375,-0.0922691183745861,0.00735060935798101,-0.00861098468261771
1761316545442346500,0.784346435546875,-0.04348725954890251,0.002005878196004778,-0.014701273514889179
1761316545452328700,0.79432861328125,-0.1069347725868225,0.004029465578636154,-0.006805939988070167
1761316545462311400,0.8043115234375,-0.05875321774184703,-0.005399192162416875,0.003893262845184654
1761316545472293600,0.814293701171875,-0.06877835267186165,-0.007059873649943619,0.009930780310602858
1761316545482276600,0.824276611328125,-0.09765841019749641,-0.006332865416491404,0.00851782650644891
1761316545492258600,0.834258544921875,-0.0593517681568861,-0.00026556473416276274,-0.0021365736372768876
1761316545502241500,0.844241455078125,-0.08643675895929336,0.00698572156834416,-0.005540125869913026
1761316545512223700,0.8542236328125,-0.07775836246311664,0.005564812786597758,-0.0008566076961811632
1761316545522206500,0.86420654296875,-0.06309563086032867,0.0003020516864955425,0.005166314988303929
1761316545532188700,0.874188720703125,-0.08943126460015774,0.0026365590486675497,0.0010180042363936081
1761316545542171600,0.884171630859375,-0.0595043283700943,0.000897469429532066,-0.005167127839056774
1761316545552153600,0.894153564453125,-0.08763561335504054,0.008811311293998732,-0.004981117447395809
1761316545562136600,0.904136474609375,-0.0843435860723257,-0.0022678809999022633,-0.0036992426770040762
1761316545572118500,0.914118408203125,-0.06414250956475734,-0.00045812816419638693,0.0033248975058551874
1761316545582101500,0.9241015625,-0.08404431086480617,0.0010632818499580025,0.005182709000678733
1761316545592083700,0.934083740234375,-0.0726712684571743,0.0019238898678217082,0.0022203931629424913
1761316545602066400,0.94406640625,-0.06863280672132968,-0.0035025190950836982,0.0029596763560781254
1761316545612048600,0.954048583984375,-0.08314823880791664,-0.000920868571428582,0.004002020449284464
1761316545622031600,0.964031494140625,-0.07042904248833656,0.0037016218637581913,0.0029296876431908455
1761316545632013600,0.974013671875,-0.08015665577650069,0.004064874818734824,0.003807479691295884
1761316545641995800,0.983995849609375,-0.07147767475843429,0.001739345347462222,0.0028649518439080564
1761316545651978800,0.993978759765625,-0.06878536693453788,0.003864255946408957,-0.005703696100902743
1761316545661960700,1.003960693359375,-0.08105623496472836,0.000861393469152972,0.005866955804638564
1761316545671943700,1.013943603515625,-0.07985854961276054,-0.0004206182985566556,-0.0010647066220641137
1761316545681925600,1.023925537109375,-0.07776128507256508,0.0013653700690716504,0.0001285171839175746
1761316545691908600,1.03390869140625,-0.08300035476982592,-0.005846104812854901,-0.001562107350723818
1761316545701890800,1.043890869140625,-0.07836275809705257,-0.01386083150221966,0.005727583866566419
1761316545711873500,1.05387353515625,-0.07372399238049984,-0.007588491500774398,0.008120369887771085
1761316545721855700,1.063855712890625,-0.0752203684180975,-0.0039390199493616815,0.000907123173866421
1761316545731838700,1.073838623046875,-0.08060790667533874,-0.0009968929497059433,-0.0030907416901085525
1761316545741820700,1.083820556640625,-0.07327507956922054,0.004058883469365537,0.0009905454073101281
1761316545751803600,1.0938037109375,-0.07911036159396172,0.007511946532689035,0.00002319821249693632
1761316545761785600,1.10378564453125,-0.07925707658827304,0.001653548493841663,0.006436567819560877
1761316545771768600,1.1137685546875,-0.08853402349948883,0.0031394579363521187,-0.00037703488515689965
1761316545781750800,1.123750732421875,-0.0847919143617153,-0.007123413005983456,-0.0029619413784006607
1761316545791733500,1.1337333984375,-0.07401859141290187,-0.004562421677866951,0.008548107480281033
1761316545801715700,1.1437158203125,-0.0807534526258707,0.0037600923190359023,0.007543848641449585
1761316545811698700,1.15369873046875,-0.08688742533624172,-0.0061487136217765505,0.005260117051866836
1761316545821680600,1.1636806640625,-0.08164952468276024,-0.0056615420261863615,0.002981404130696319
1761316545831662600,1.17366259765625,-0.08015373316705227,-0.0033415015807840972,-0.0036388633924303573
1761316545841645800,1.183645751953125,-0.07850771952569484,0.002185627810237929,-0.00021784400176256893
1761316545851627500,1.19362744140625,-0.08090075214207172,0.0015131810419261454,-0.007037433489272371
1761316545861610800,1.20361083984375,-0.07461655730605125,-0.00173717165668495,-0.01078268443220295
1761316545871592400,1.213592529296875,-0.07147475214898585,0.001115212966594845,-0.004556603858433664
1761316545881575700,1.22357568359375,-0.07327098791599274,-0.0046671058950480074,-0.0005367965907091274
1761316545891557600,1.2335576171875,-0.09017945261895656,-0.0005100136150605976,-0.0026522589412983507
1761316545901540600,1.24354052734375,-0.08045242385268211,-0.0014351565028075128,0.0033228836452821268
1761316545911522600,1.2535224609375,-0.07207154899835586,0.0002063179607503116,0.010716386863496154
1761316545921505800,1.263505859375,-0.07536416080296039,-0.0005055383693426847,0.0042321165778441356
1761316545931487500,1.273487548828125,-0.07880524116754531,-0.005201240171212703,0.0029062337023671716
1761316545941470700,1.283470703125,-0.06548574086725711,0.000798940958501771,0.01092482371609658
1761316545951452700,1.29345263671875,-0.08284136481583118,0.0055599082826171065,0.0018637571784202009
1761316545961435600,1.303435546875,-0.08044716315567493,0.0037873456521425393,-0.007812587146810256
1761316545971417600,1.31341748046875,-0.07266776132583617,0.004650273491255939,-0.011234478753735311
1761316545981399600,1.323399658203125,-0.0743137749671936,0.007951159933861345,-0.010032852445589378
1761316545991382500,1.333382568359375,-0.07775368628799915,0.005440227425703778,0.00670047945275437
1761316546001364700,1.34336474609375,-0.06623159079849719,-0.0008555299839470536,0.002529331247950904
1761316546011347500,1.353347412109375,-0.06892448314428329,-0.004353345504449681,0.0027991931313183158
1761316546021329700,1.36332958984375,-0.07790157032608985,-0.0018657938718795776,0.012417692622356116
1761316546031312600,1.373312744140625,-0.07775076367855072,-0.009571180617436765,0.008217067161318845
1761316546041294600,1.383294677734375,-0.07789923223853111,-0.0007691942742094397,0.003938956017279997
1761316546051277600,1.393277587890625,-0.07535363940894603,-0.0038383360538631678,0.006478575763804837
1761316546061259500,1.403259521484375,-0.07789514058530331,0.00040060755698941643,0.00804840976325795
1761316546071242500,1.413242431640625,-0.08373042261004447,-0.0011346939851995556,0.0012945104896789415
1761316546081224700,1.423224609375,-0.07355448103249072,0.005350740777654573,-0.0060118670009309426
1761316546091207400,1.43320751953125,-0.0754986008375883,0.004435196835314854,-0.005209350412432104
1761316546101189600,1.443189697265625,-0.08447802610695361,0.00797704329378903,-0.01065548242253717
1761316546111172600,1.453172607421875,-0.07849427552223205,0.005247033808007836,-0.000406393410381861
1761316546121154600,1.463154541015625,-0.0717605833530426,0.005250641404045745,0.008141070182505063
1761316546131136800,1.47313671875,-0.07116261745989322,-0.0036697380213066935,0.007500450174428987
1761316546141119700,1.48311962890625,-0.07939268566668033,0.0012383278896100818,0.008621643073949962
1761316546151101700,1.493101806640625,-0.06428104125261307,0.0022545557274483144,0.00332705749690067
1761316546161084700,1.503084716796875,-0.07849836717545985,-0.0028608693238347765,0.0007279306820593774
1761316546171066600,1.513066650390625,-0.07984627465307712,0.0043501397672109305,0.0034612052705837414
1761316546181049600,1.523049560546875,-0.0725146165907383,0.0033093346105422822,-0.007611844976898282
1761316546191031800,1.53303173828125,-0.07266483871638775,0.005120128625864162,-0.002653747645486146
1761316546201014500,1.5430146484375,-0.06712766285538672,0.012476108278706668,-0.0022487881403649226
1761316546210996700,1.552996826171875,-0.07625438764095306,0.006238656927552074,-0.003538412392372265
1761316546220979700,1.562979736328125,-0.07969546800553798,0.0037811899059917776,0.008919936467357911
1761316546230961700,1.572961669921875,-0.07595218982398509,0.006297483575856313,0.0058855143746361135
1761316546240944600,1.582944580078125,-0.07804711627662181,-0.008068840629933401,0.013144326396472752
1761316546250926600,1.592926513671875,-0.0624842209637165,-0.012936227470589801,0.021609125807741655
1761316546260909600,1.60290966796875,-0.07609948934018611,-0.0039252928181085734,0.021290533978398887
1761316546270891800,1.612891845703125,-0.07639701098203659,-0.00823342007449828,0.014697273193206637
1761316546280873500,1.62287353515625,-0.0722048199892044,-0.019568340695137156,0.00475374299888499
1761316546290856700,1.632856689453125,-0.08477379418313503,0.005660245118243619,-0.005165442772046663
1761316546300838700,1.642838623046875,-0.07444704595804214,-0.005077449394762516,-0.006874927270784974
1761316546310821600,1.652821533203125,-0.07729016042947769,-0.006578574672713875,-0.01666933131800033
1761316546320803600,1.662803466796875,-0.07893558954894542,0.0033936153605114666,-0.01920008277148008
1761316546330786800,1.672786865234375,-0.08192834162414074,0.005972736000362783,-0.009045476242899895
1761316546340768500,1.6827685546875,-0.07489478972554206,0.007177006356744095,-0.0024882731517776847
1761316546350751700,1.692751708984375,-0.06890987009704112,0.0016962185917887835,0.010318934811395593
1761316546360733400,1.7027333984375,-0.08222703230977058,0.001685724597238004,0.01745075945269782
1761316546370716700,1.712716552734375,-0.07609422864317894,-0.007726319935731589,0.016283560570538973
1761316546380698600,1.72269873046875,-0.07714286091327667,-0.006710274760983884,0.009670713735464959
1761316546390681600,1.732681640625,-0.07639408837258815,-0.009865697451448068,0.010999473554617724
1761316546400663600,1.74266357421875,-0.07549626275002956,-0.008663134994963184,-0.004231463557295501
1761316546410646800,1.752646728515625,-0.07010989353656769,0.0015957447588443754,-0.007652282018563709
1761316546420628500,1.76262841796875,-0.0766921945363283,0.0009259374721907079,-0.007730301991105079
1761316546430611700,1.77261181640625,-0.07594634460508823,0.008689557211007922,-0.010709719660691916
1761316546440593700,1.78259375,-0.07534779419004917,0.01006087296367623,-0.003099381654290482
1761316546450575600,1.79257568359375,-0.0766968707114458,0.01141993202297017,-0.006470109329558909
1761316546460558600,1.80255859375,-0.07355506555438042,0.012821067525167018,0.003105121841910295
1761316546470540500,1.81254052734375,-0.08088789266049862,0.0015746654381975532,0.009187291299807838
1761316546480523500,1.8225234375,-0.07639818002581596,-0.0036999504964798685,0.014745491682528518
1761316546490505700,1.832505615234375,-0.08777063791155815,0.0005849602811038493,0.014410994464578107
1761316546500488400,1.842488525390625,-0.07819324674904346,-0.001073985907062888,0.015634649941441602
1761316546510470700,1.852470703125,-0.07295651513934134,-0.0038949159461539235,0.01160771881318651
1761316546520453600,1.86245361328125,-0.08148410498797894,-0.0028236425859853626,0.0026488979404326526
1761316546530435600,1.872435546875,-0.06831482681334018,-0.0015455672078765928,0.00024228432327508926
1761316546540418600,1.88241845703125,-0.07280453944802284,0.00010784428864717483,0.00433162229640875
1761316546550400500,1.892400390625,-0.07699614591896534,0.002342023948347196,0.005240489902789704
1761316546560383500,1.902383544921875,-0.06726970167458057,0.003832910960074514,0.0013180237960070372
1761316546570365700,1.91236572265625,-0.08103636122047901,0.0011359086947515607,-0.003355475307209417
1761316546580348700,1.9223486328125,-0.0814852740317583,-0.0048675421042833475,-0.0034808826520107685
1761316546590330600,1.93233056640625,-0.07744505873024463,-0.005138331002835184,-0.0019597329327603803
1761316546600312800,1.942312744140625,-0.07445230665504932,-0.010346512371487915,0.0012993921607732772
1761316546610295600,1.952295654296875,-0.07056289800107479,0.007973070371570065,-0.00030582824589218944
1761316546620277800,1.96227783203125,-0.08118833691179751,0.00610574212973006,-0.004353610365930944
1761316546630260700,1.9722607421875,-0.07116320198178291,0.0021194307062309234,0.001197753850626759
1761316546640242700,1.98224267578125,-0.07340893508195877,-0.00018562223259359597,-0.004902837179950438
1761316546650225700,1.9922255859375,-0.07625146503150462,0.0038806864914018658,0.0033758559415349733
1761316546660207600,2.00220751953125,-0.08103986835181713,0.0019455171777401118,0.005348370724054984
1761316546670190600,2.012190673828125,-0.07191080547869205,-0.0025878336692694574,0.01879650237269234
1761316546680172800,2.0221728515625,-0.08403262042701244,-0.0053485214211046695,0.010471038366877473
1761316546690155500,2.032155517578125,-0.07400456288754939,-0.010420134730124845,0.001378679358505178
1761316546700137700,2.0421376953125,-0.07983984491229057,-0.011648955005872994,0.005695174867729656
1761316546710120700,2.05212060546875,-0.08103577669858932,-0.0018325309230946003,-0.00023479056998621672
1761316546720102700,2.0621025390625,-0.07011047805845737,0.008664632832305506,-0.0021975579933379776
1761316546730085600,2.072085693359375,-0.07415186240375042,0.0023207162988372145,-0.01086949049939867
1761316546740067800,2.08206787109375,-0.07415186240375042,0.012504886848619208,-0.008179020722850691
1761316546750049500,2.092049560546875,-0.07864099051654339,0.01549170237337239,0.005035338702530134
1761316546760032800,2.10203271484375,-0.07355272746682166,0.005003169448999688,-0.0004998575472272932
1761316546770014500,2.112014404296875,-0.07564765391945838,-0.0020548593037296083,0.013980889101757201
1761316546779997700,2.121997802734375,-0.08357786239683627,0.0004075852870475501,0.007004608931904658
1761316546789979600,2.131979736328125,-0.08013619751036166,-0.007389945854526013,0.010571982557279988
1761316546799962600,2.141962646484375,-0.08133388286232948,0.0014226714805699885,0.011786440947535446
1761316546809944600,2.151944580078125,-0.07684592379331588,-0.006000162863405421,0.012605433746799826
1761316546819927800,2.161927734375,-0.07579787604510783,-0.00659990058853291,0.0038907900435966435
1761316546829909500,2.171909423828125,-0.08073416340351104,-0.002532075760886073,0.004514609613921493
1761316546839892700,2.181892822265625,-0.08132920668721198,-0.0017561594849452376,0.00583818180130329
1761316546849874400,2.19187451171875,-0.07683832500874996,-0.0038352490476332604,0.002500036654807627
1761316546859857700,2.201857666015625,-0.07878361385762692,-0.0032742724303156134,-0.008415475810249335
1761316546869839600,2.211839599609375,-0.07833645461201667,-0.0006704466074705124,-0.006312685711565427
1761316546879822800,2.22182275390625,-0.08282266011536121,-0.002809814990032464,-0.010244988225772977
1761316546889804500,2.231804443359375,-0.08057692701518535,-0.004584989702701568,-0.00618985848291777
1761316546899786800,2.241786865234375,-0.07189677695333957,-0.00313389584524557,-0.0007704911821521818
1761316546909769500,2.25176953125,-0.06845628111064433,-0.0003827065741177648,0.00235761424312368
1761316546919751700,2.261751708984375,-0.07489128259420394,0.005205633218539878,0.004385398310259915
1761316546929734700,2.271734619140625,-0.08342237957417964,0.0009829100901260972,0.013329245376167817
1761316546939716600,2.281716552734375,-0.07130231819152831,0.0022554416434373706,0.010728967783856205
1761316546949699600,2.291699462890625,-0.07833411652445793,0.007734521508496254,0.005129955900134518
1761316546959681300,2.301681396484375,-0.06262099908590317,0.0009737678024452179,0.010715930205769835
1761316546969664000,2.3116640625,-0.07085165181457996,-0.0038870157674886284,0.009655817560432479
1761316546979646200,2.321646240234375,-0.07623626746237278,-0.00028110936316661536,-0.0013808598991483449
1761316546989629200,2.331629150390625,-0.08521627725362778,-0.001876233067503199,-0.007637778569175861
1761316546999611100,2.341611083984375,-0.08521627725362778,-0.008413471082830802,-0.007452512529608793
1761316547009594000,2.351593994140625,-0.07982932351827621,-0.005453899758029729,-0.0028068375816568732
1761316547019576000,2.361576171875,-0.08192308092713356,-0.006266878375038505,-0.003925580512476153
1761316547029559000,2.37155908203125,-0.07773147445619105,-0.008053113337839021,-0.006988274285034276
1761316547039541200,2.381541259765625,-0.0826665927708149,-0.007826656771358102,0.005305426631472073
1761316547049523200,2.391523193359375,-0.07683072622418403,-0.0009078812256921083,0.021730752026569097
1761316547059506200,2.401506103515625,-0.07099544419944286,0.010608204648131505,0.02427345421274658
1761316547069488000,2.411488037109375,-0.07309095517396927,0.00781669249976985,0.018896428216365165
1761316547079471000,2.42147119140625,-0.06635843204855918,0.007575403690338134,0.01735013948928099
1761316547089453300,2.431453369140625,-0.07892740624248981,0.00425528282430023,0.007719173242314718
1761316547099436000,2.44143603515625,-0.06456161175966263,-0.013146317424159497,-0.01010991343690548
1761316547109418200,2.451418212890625,-0.06815174520611762,-0.015800887053553016,-0.017410897799767552
1761316547119401200,2.461401123046875,-0.07578326299786567,-0.013295626234356313,-0.014215065467101521
1761316547129383200,2.471383056640625,-0.06231763222515583,-0.02159291445845738,-0.011670089125446974
1761316547139366100,2.4813662109375,-0.07653086649477481,-0.013265486824419349,-0.005170228545018471
1761316547149348400,2.491348388671875,-0.0798205556899309,-0.0034179734836332497,0.004041229081666097
1761316547159331000,2.5013310546875,-0.07443360195457935,0.007308934773877263,0.011503089394932612
1761316547169313300,2.511313232421875,-0.07099076802432537,0.022329759099334476,0.00972376366353128
1761316547179296300,2.521296142578125,-0.0832628050982952,0.026742132181487976,0.018607692669169045
1761316547189278200,2.5312783203125,-0.07952303404808043,0.016948540985025465,0.02195529976375401
1761316547199260200,2.54126025390625,-0.07413432674705982,0.0007496310572139919,0.010619936185120605
1761316547209243100,2.5512431640625,-0.07593114703595638,-0.0069897858221083875,0.00743554312849883
1761316547219225000,2.56122509765625,-0.08446049045026302,-0.016536653982196003,-0.00936675321967341
1761316547229208300,2.571208251953125,-0.07997077781558036,-0.021455149955581874,-0.007921066189697012
1761316547239190000,2.58118994140625,-0.08326397414207458,-0.02391257131136954,-0.015569142390601335
1761316547249173200,2.59117333984375,-0.07323942373394966,-0.009890795360086486,-0.014457422855612821
1761316547259155200,2.6011552734375,-0.07428571791648865,-0.0029136041580699384,-0.0007239166606450453
1761316547269138200,2.61113818359375,-0.0784744017779827,0.007668735396442934,-0.001371466449717991
1761316547279120100,2.6211201171875,-0.08999415917992591,0.014422684902371839,0.00826895717876032
1761316547289103400,2.631103271484375,-0.07547872709333896,0.027551064811041578,0.019909728878177702
1761316547299085000,2.6410849609375,-0.07338380064070224,0.021163793193036688,0.012571175284171477
1761316547309068300,2.651068359375,-0.07832184156477451,0.019419479409512132,-0.00013605888626771047
1761316547319050000,2.661050048828125,-0.08206395070254802,-0.0020435433252714574,-0.004038975475786719
1761316547329033200,2.671033203125,-0.0708411304205656,-0.005908402059879154,-0.01392777980818646
1761316547339015200,2.68101513671875,-0.07024082643985748,-0.02187037969296798,-0.0020206510734511536
1761316547348997000,2.6909970703125,-0.08011457020044327,-0.02562238917024806,-0.012239226216333918
1761316547358980000,2.70097998046875,-0.07412965057194232,-0.01682128874300979,-0.007632814699690789
1761316547368962000,2.710962158203125,-0.07712181812524795,-0.01401784869483672,0.010637492391408886
1761316547378945000,2.720945068359375,-0.08505144208073616,-0.003924470834201201,0.01406563792589586
1761316547388927200,2.73092724609375,-0.07113572945296764,0.0026723062154836953,0.02179391235669609
1761316547398910000,2.740909912109375,-0.06978957554101943,0.008086257555615156,0.02839089490235783
1761316547408892200,2.75089208984375,-0.07637421462833881,0.013334085948066786,0.01965282237450592
1761316547418875100,2.760875244140625,-0.07203355507552624,0.01805779913486913,0.0032738523052074013
1761316547428857000,2.770857177734375,-0.08056231396794318,0.0012812080501113086,-0.0007888899219455197
1761316547438840000,2.780840087890625,-0.07397592131495476,-0.00937211438138038,-0.01016704588504508
1761316547448822300,2.790822265625,-0.08445172262191772,-0.007371085890429094,-0.020114544435008427
1761316547458805000,2.800804931640625,-0.08250409568548202,-0.006055893372325226,-0.02115044965427369
1761316547468787200,2.810787109375,-0.08818915558457374,-0.007634577398514374,-0.012325872453325427
1761316547478770200,2.820770263671875,-0.08010814045965671,-0.010670830688718706,-0.015812577491346746
1761316547488752000,2.830752197265625,-0.08205459835231303,-0.0005750690747518092,0.0013919521153206004
1761316547498734300,2.840734375,-0.08235153547227382,0.00947510896497406,0.009212320709787308
1761316547508717000,2.850717041015625,-0.08519406542181968,0.009424913147697224,0.015804595114290713
1761316547518699300,2.86069921875,-0.07606734063625335,0.011469223657948896,0.008496833950770086
1761316547528682200,2.87068212890625,-0.08115326559841632,0.006855391453253105,0.012176435778965242
1761316547538664200,2.880664306640625,-0.07980652716457844,0.000771660225931555,0.00976860288567841
1761316547548647200,2.890647216796875,-0.07456804198920726,-0.00021072927438654004,-0.007280758992163464
1761316547558629000,2.900629150390625,-0.08085282134711742,-0.009074592739529907,-0.010677899750322102
1761316547568612000,2.910612060546875,-0.07471651054918765,-0.019296748078987,-0.006786783196451142
1761316547578594300,2.92059423828125,-0.07112520805895328,-0.015257829685416072,-0.00442525539661292
1761316547588577300,2.930577392578125,-0.0763613551467657,-0.006191529850196093,-0.006005852818675339
1761316547598559200,2.940559326171875,-0.08010054167509079,-0.0018170776256360112,-0.004620736869517713
1761316547608542200,2.950542236328125,-0.08249240524768829,0.0025104667172767222,0.006422858954616822
1761316547618524200,2.960524169921875,-0.08009645002186298,0.013671702138287946,0.007013036550243851
1761316547628507100,2.970507080078125,-0.0697697017967701,0.004886164606362581,0.009025794294895603
1761316547638489300,2.9804892578125,-0.0845832400470972,0.0071101881982292975,0.01743017103910679
1761316547648471000,2.990470947265625,-0.07366086401641368,-0.006384285076474771,0.006300821743835695
1761316547658454300,3.000454345703125,-0.07889993371367454,-0.010467937660915777,-0.0010655582887236959
1761316547668436000,3.01043603515625,-0.07546002239286899,-0.004234724093461409,0.0004982181459898128
1761316547678419200,3.020419189453125,-0.08024901023507118,-0.0036016229548491534,-0.008625903690536505
1761316547688401200,3.030401123046875,-0.07755670241117477,-0.00833539174478501,-0.009632210639270488
1761316547698384100,3.040384033203125,-0.07426350608468055,-0.014534456447465344,-0.004277713851816952
1761316547708366000,3.050365966796875,-0.078453358989954,-0.00590638363272883,0.005878255800076294
1761316547718349300,3.060349365234375,-0.08204583052396774,0.004303304950799793,0.0014215618022950366
1761316547728331000,3.0703310546875,-0.07651099275052547,-0.00141593121252954,0.01244164888667874
1761316547738314200,3.080314208984375,-0.08354512917101382,0.0007480875540990382,0.0023910781213082374
1761316547748296200,3.090296142578125,-0.07546294500231743,-0.005974069440923631,0.009565084236790426
1761316547758279200,3.100279052734375,-0.07905307844877242,0.0011155326270032673,0.0049801493330160155
1761316547768261000,3.11026123046875,-0.08189911552965641,-0.005459726710617542,-0.002351111437100917
1761316547778243000,3.1202431640625,-0.09072773415148258,-0.011166496118018404,-0.0016660837484290822
1761316547788226000,3.13022607421875,-0.07845686612129212,-0.005366988659556955,-0.005310641662706621
1761316547798208300,3.140208251953125,-0.06992927627265452,-0.016785989100765435,-0.002509667566255666
1761316547808191000,3.15019091796875,-0.07606500254869461,-0.01167626313790679,-0.009092658119183033
1761316547818173200,3.160173095703125,-0.07172492751777172,-0.001350090301549062,-0.0008225455963751301
1761316547828156200,3.17015625,-0.08549217158555984,0.0008947660157922655,0.0019530383304925635
1761316547838138000,3.18013818359375,-0.0751677614480257,0.002299426915636286,0.007375232342584058
1761316547848121000,3.19012109375,-0.07711421934068202,0.0036062260647304356,0.009957951445318757
1761316547858103000,3.20010302734375,-0.07651625344753266,0.007239312736922875,0.008405675935442558
1761316547868086000,3.2100859375,-0.07726502598822116,0.005397767390310764,-0.005033034864300861
1761316547878068200,3.220068115234375,-0.08295300849676132,-0.010364733014767988,0.002228562769666314
1761316547888051200,3.23005126953125,-0.0831020615786314,-0.006323421734711155,-0.0025883496925001963
1761316547898033200,3.240033203125,-0.08445113810002804,-0.010800786344474182,-0.0020909535304177553
1761316547908016000,3.25001611328125,-0.08220715856552123,-0.011077274331450462,0.000007927578128874301
1761316547917998000,3.259998046875,-0.07098433828353881,-0.011526780797773972,-0.00687338376767002
1761316547927980300,3.269980224609375,-0.0774205088108778,-0.005835053695878014,0.0021981128324754535
1761316547937963300,3.27996337890625,-0.075773326125741,0.0072910246578510845,0.005350975956383627
1761316547947945200,3.2899453125,-0.0699345369696617,0.004127117266831919,0.0016725180557928979
1761316547957928000,3.299927978515625,-0.06903554230332375,0.007812719577550888,0.004707216426439118
1761316547967910000,3.309909912109375,-0.07607201681137085,0.0044180265048053115,0.004305645321647171
1761316547977892900,3.319892822265625,-0.07158405774235725,0.0013593695865478366,-0.0013650298590655438
1761316547987874800,3.329874755859375,-0.06994155123233795,-0.004573691990552469,0.005802206305623985
1761316547997857800,3.33985791015625,-0.07188859364688396,-0.012700993942609056,-0.0000820887928828597
1761316548007840000,3.349840087890625,-0.06994388931989669,-0.014493293320015073,0.0015853694953024387
1761316548017823000,3.359822998046875,-0.07398352009952068,-0.004793198226438835,-0.0012887611689046024
1761316548027805000,3.369804931640625,-0.07623042224347591,-0.004659735439345241,-0.0012003522330895065
1761316548037788000,3.379787841796875,-0.06740238814353942,0.00240331654837355,-0.007030318761896342
1761316548047769900,3.389769775390625,-0.0792243433624506,0.0021619729400146753,0.007479418802843429
1761316548057752800,3.3997529296875,-0.08326572770774364,-0.0006324983504135161,0.015052516371663658
1761316548067735000,3.409735107421875,-0.08012450707256794,0.006916912382142618,0.008403525077551603
1761316548077716700,3.419716796875,-0.07533902636170386,0.0010823792760726065,0.007826282312022521
1761316548087700000,3.429699951171875,-0.08626257143616675,-0.004737029326101765,-0.0001264393912628293
1761316548097681700,3.439681640625,-0.08416589141786097,-0.006112016606889665,0.006332038866006769
1761316548107665000,3.449664794921875,-0.07698153287172317,-0.00021558811259455977,-0.003059077043365687
1761316548117646800,3.459646728515625,-0.07563304087221621,-0.005422271643904969,-0.003215349883888848
1761316548127629800,3.4696298828125,-0.07668167314231396,-0.0029523287332616746,-0.005892071979586034
1761316548137611800,3.47961181640625,-0.08132043885886668,-0.0020601382670458403,-0.0006464903431478888
1761316548147595000,3.489594970703125,-0.07278934187889098,-0.0015733502639457583,-0.013103163269022479
1761316548157576700,3.49957666015625,-0.07593173155784606,0.008703594869514927,0.008470251904521137
1761316548167560000,3.509559814453125,-0.07338847681581974,0.004394654762372374,0.008606829097308219
1761316548177542000,3.5195419921875,-0.0856593448460102,0.0018917502970434725,0.009157069691480137
1761316548187524900,3.52952490234375,-0.08386661621034144,-0.0016531466350425035,0.016190361295174805
1761316548197506800,3.5395068359375,-0.07473872238099574,-0.003874448546860367,0.012205734938685781
1761316548207490000,3.549489990234375,-0.0718956079095602,0.0018107757490128278,0.005419193770829588
1761316548217471700,3.5594716796875,-0.07653320458233356,-0.0067442409626673906,-0.00347753535087686
1761316548227454000,3.569453857421875,-0.0727928490102291,-0.007333767821034416,-0.0022859829121734945
1761316548237436700,3.579436767578125,-0.07533668827414512,-0.008175159681774676,-0.010719277506903744
1761316548247419000,3.5894189453125,-0.07967442521750927,-0.0015699253309983759,-0.0023304431084077803
1761316548257401900,3.59940185546875,-0.07997545399069786,0.002563320282520726,-0.0038886734350351616
1761316548267383800,3.6093837890625,-0.07952887926697731,0.0018271514950785786,0.012126742285187356
1761316548277366800,3.61936669921875,-0.07698679356873035,0.0049264144183602185,0.012743677740287966
1761316548287348700,3.6293486328125,-0.07429331670105457,0.0008777326826006174,0.00866613523622509
1761316548297331700,3.639331787109375,-0.07444178526103497,-0.0010435268367175012,0.014158280078833923
1761316548307314000,3.64931396484375,-0.07429331670105457,-0.00018964995373971759,0.007861412990908138
1761316548317297000,3.659296875,-0.07070376777648925,-0.0032372374887112525,0.010169361139717512
1761316548327278800,3.66927880859375,-0.07863631434142589,-0.01109886510875076,0.000057063949480652805
1761316548337261800,3.67926171875,-0.08103051600158213,0.002073609669972211,-0.004182847775751725
1761316548347243800,3.689243896484375,-0.07310030752420425,0.0038754531938582654,-0.011372658815141767
1761316548357226800,3.699226806640625,-0.07040916874408722,-0.00036659568953327834,-0.0024679838489973915
1761316548367209000,3.709208984375,-0.07489712781310082,0.001159134306712076,-0.006604521964723244
1761316548377191000,3.71919091796875,-0.07669102549254894,0.002971544890385121,0.0033768194893375038
1761316548387174000,3.729173828125,-0.08821253646016121,0.006222208116250112,0.002838593559945002
1761316548397155800,3.73915576171875,-0.07594225295186043,0.0049918808700051154,0.002220516460528597
1761316548407138800,3.749138916015625,-0.07040449256896972,0.002051635300181806,0.0036237480216892433
1761316548417121000,3.75912109375,-0.07609189055562018,-0.003237968141073361,0.003318974655144848
1761316548427103700,3.769103759765625,-0.08357318622171879,-0.001815360592585057,0.0037820255896309387
1761316548437086000,3.7790859375,-0.06726444097757339,-0.0019472981428727506,-0.0022601497845957056
1761316548447069000,3.78906884765625,-0.08342530218362808,-0.003908935338351876,0.003677601667353883
1761316548457051000,3.79905078125,-0.07354980485737324,-0.002840191861987114,0.002774296152079478
1761316548467033900,3.809033935546875,-0.07668927192687988,-0.0014836992191150783,-0.0009867094824090599
1761316548477016000,3.81901611328125,-0.08222410970032215,-0.0020116138170473276,0.0024656503280159085
1761316548486998800,3.828998779296875,-0.08073065627217292,0.0013554057974833995,-0.00134481133823283
1761316548496981000,3.83898095703125,-0.0789367585927248,-0.0012083254769910126,0.003073347597313113
1761316548506962700,3.848962646484375,-0.07863923695087432,-0.001695195678481832,0.009813236611848696
1761316548516946000,3.85894580078125,-0.08657061447203158,0.000571854204358533,0.004957142916764133
1761316548526928000,3.868927978515625,-0.06966156524717808,0.00029637999753467735,0.0010698759875260293
1761316548536910800,3.878910888671875,-0.07624561981260776,-0.004481437996681779,-0.0017628129880176856
1761316548546892800,3.888892822265625,-0.07550035440325736,-0.008047277252096682,-0.0019035274998052045
1761316548556876000,3.8988759765625,-0.07834288435280323,-0.003568323473446071,0.004936771415593102
1761316548566857700,3.908857666015625,-0.07968670017719268,-0.007476537292590364,0.0007949680362828076
1761316548576841000,3.918841064453125,-0.07295242348611354,0.0009022278030402957,-0.0010394945489941164
1761316548586822700,3.92882275390625,-0.0801344439446926,0.0012920582376886158,-0.0034129365489119663
1761316548596806000,3.938805908203125,-0.07594517556130885,-0.0015292827933561055,0.0041222355957375835
1761316548606787800,3.948787841796875,-0.08013385942280292,0.0021343451475724575,0.004075405345903709
1761316548616770800,3.958770751953125,-0.07190554478168487,-0.0006024502720218152,-0.0006943480728659778
1761316548626752800,3.968752685546875,-0.0739998867124319,0.001436818736931309,0.007011477064108476
1761316548636736000,3.978736083984375,-0.07115677224099635,0.0037906701203901318,-0.003981680914154276
1761316548646717700,3.9887177734375,-0.07804068653583526,-0.0060486873134039335,-0.0010324802863178775
1761316548656700000,3.998699951171875,-0.08537526720762252,-0.007989373052399605,-0.005157149867736734
1761316548666683000,4.008682861328125,-0.08043488819599151,-0.004746427342109382,0.0034679501052014526
1761316548676664800,4.018664794921875,-0.08432488137185573,0.0028313144357874987,-0.0003760256715817377
1761316548686647800,4.028647705078125,-0.07594342199563979,-0.000729136258456856,-0.002972193344356492
1761316548696629800,4.038629638671875,-0.0789367585927248,-0.0031316856218501924,-0.007561534995189867
1761316548706612700,4.04861279296875,-0.06711538789570332,0.00012408303739503025,0.0034120460663456466
1761316548716595000,4.058594970703125,-0.07654255693256855,-0.0010418554694391787,0.01019591121992562
1761316548726577700,4.06857763671875,-0.0735515584230423,0.0035386498543899503,0.006551937827537767
1761316548736559900,4.078559814453125,-0.07893968120217323,-0.0022213293112814426,0.002610397127526812
1761316548746542800,4.08854296875,-0.0825309836924076,-0.005666967119975015,0.0014374352248618378
1761316548756524800,4.09852490234375,-0.06547288138568401,-0.004889416009373962,0.0022747171660652383
1761316548766507800,4.1085078125,-0.08043897984921931,-0.00009843713948503136,-0.0021109277393668887
1761316548776490000,4.118489990234375,-0.08358078500628471,0.00003976575480774045,0.00005631959738675505
1761316548786472700,4.12847265625,-0.06951426573097705,-0.0009032507163472473,-0.0017176312725758179
1761316548796455000,4.138454833984375,-0.07444996856749057,0.003896687778132036,-0.002981568527477793
1761316548806436900,4.148436767578125,-0.07324994512796401,0.00040419688671827314,-0.003983850038354285
1761316548816419800,4.158419921875,-0.07504442732930183,-0.005202929804800078,0.002328744341665879
1761316548826402000,4.168402099609375,-0.07354805129170418,-0.0038002599326428022,0.004212763423402793
1761316548836384800,4.178384765625,-0.07220365094542502,-0.0021228556391783057,0.005110602745693177
1761316548846367000,4.188366943359375,-0.0780389329701662,-0.0007653218166902661,0.004912404159316793
1761316548856350000,4.198349853515625,-0.07714052282571793,-0.005029372469335794,0.005584791562124155
1761316548866332000,4.208331787109375,-0.07968436208963393,0.0002165105612017214,0.0012412733319448305
1761316548876315000,4.21831494140625,-0.07788871084451675,-0.0005206994058564305,0.0007384475094964727
1761316548886296800,4.228296875,-0.08043255010843277,-0.0045207836263813075,-0.003003661628277041
1761316548896279800,4.23827978515625,-0.07340075177550315,-0.007005723176756873,0.002816591790691018
1761316548906262000,4.248261962890625,-0.07384908006489277,-0.009281869681505486,-0.0016042522922856733
1761316548916244700,4.25824462890625,-0.07115560319721698,0.0011426398296374826,-0.0064735068630427115
1761316548926227000,4.26822705078125,-0.0710065501153469,0.0076150507141370324,-0.004964248510985635
1761316548936209000,4.278208984375,-0.07459960617125033,0.010084162507718429,0.0037335102727869525
1761316548946192000,4.28819189453125,-0.0775906046807766,0.0009556932896375655,-0.0007927167136920616
1761316548956174300,4.29817431640625,-0.07953413996398448,0.0096470223326236,0.0021506478284019975
1761316548966157300,4.3081572265625,-0.06861234845519065,-0.0007509370983112603,0.005298882726253941
1761316548976139300,4.31813916015625,-0.07804127105772495,-0.006325202699843793,0.010860229480708949
1761316548986122500,4.32812255859375,-0.07534954775571823,-0.0037052751255687326,0.0011871959239942952
1761316548996104200,4.338104248046875,-0.07580138317644596,0.0005436053574085235,-0.0008797054439783096
1761316549006087400,4.34808740234375,-0.07206161212623119,0.0013948244924191385,-0.0029040600115898996
1761316549016069000,4.358069091796875,-0.06487900714576245,0.0009442403138615191,-0.006213129760650918
1761316549026052400,4.36805224609375,-0.07714812161028385,0.00699638909283094,-0.007662269123038277
1761316549036034300,4.378034423828125,-0.07011398518979549,0.002293627362512052,0.0013525197206530719
1761316549046017300,4.388017333984375,-0.0729541770517826,0.007203255042852834,0.003960071870544925
1761316549055999200,4.397999267578125,-0.07909107237160205,0.004318584718322381,0.004208799634338356
1761316549065982500,4.407982421875,-0.07250935589373111,-0.0010797671938780696,0.010022563947015442
1761316549075964200,4.417964111328125,-0.07999123608171939,-0.003279971518740058,0.0017898836580337956
1761316549085946400,4.4279462890625,-0.07879413525164126,-0.003967981182364746,-0.00075928936812561
1761316549095929300,4.437929443359375,-0.07131108601987361,-0.007027076492039487,-0.008880965296993963
1761316549105911300,4.447911376953125,-0.07744330516457557,0.0038845132831484075,-0.009048896609270014
1761316549115894300,4.457894287109375,-0.08103519217669963,-0.003554961668374017,-0.003568971927417442
1761316549125876200,4.467876220703125,-0.06936345908343791,-0.0037486028106417505,0.0012651747973402962
1761316549135859200,4.477859130859375,-0.07504793446063995,-0.001133378810947761,0.00958146454943344
1761316549145841400,4.48784130859375,-0.06936053647398949,-0.0022790143152698872,-0.011204974098037928
1761316549155824000,4.49782421875,-0.0747451521217823,-0.0048459787264466285,-0.007777972491155378
1761316549165806300,4.507806396484375,-0.07594108390808105,0.00004709967789240181,0.0017325457139173522
1761316549175789300,4.517789306640625,-0.07549217109680176,-0.002924828804982826,0.006005935017066076
1761316549185771300,4.527771240234375,-0.07324643799662589,0.004058892602520063,0.0024482379689114166
1761316549195754200,4.537754150390625,-0.07130231819152831,0.008123575625009835,0.0003981416052673012
1761316549205736400,4.547736328125,-0.06875789440572261,0.0023974621963221577,-0.0017863034614594652
1761316549215719200,4.55771923828125,-0.06800970638692379,-0.005169164532516151,0.00023920188362244515
1761316549225701400,4.567701416015625,-0.07190028408467769,-0.011896993216499686,0.0025420308993197977
1761316549235683300,4.577683349609375,-0.0710024584621191,-0.001746441808529198,0.005649997718865051
1761316549245666300,4.587666259765625,-0.07669044097065925,0.001968605792382732,-0.0006956997797358781
1761316549255648300,4.597648193359375,-0.06546762068867683,0.0040755697426851836,0.0034369887113571166
1761316549265631200,4.60763134765625,-0.08731587988138198,0.0017565704768989234,0.005360933378105983
1761316549275613200,4.61761328125,-0.07609305959939956,0.003522858630213886,-0.00040309634159784764
1761316549285596400,4.627596435546875,-0.07594225295186043,0.0058282586289104075,0.002410385609976947
1761316549295578400,4.637578369140625,-0.07908522715270519,-0.00011153408307582139,0.001662014928087592
1761316549305561300,4.647561279296875,-0.07459668356180191,0.0014190090856049209,0.005223406337248161
1761316549315543300,4.657543212890625,-0.06187690272033214,-0.0002854202121030539,-0.002421797486557625
1761316549325526300,4.6675263671875,-0.07549275561869144,0.0008408712709322571,-0.0027521345526212823
1761316549335508200,4.67750830078125,-0.07908172002136707,-0.007992149531375616,-0.0007474299669731407
1761316549345491200,4.6874912109375,-0.06980360406637191,-0.006961664839321747,-0.010380551638407632
1761316549355473200,4.69747314453125,-0.07788286562561988,0.002113548954715952,0.004791988083464093
1761316549365455400,4.707455322265625,-0.0739911188840866,0.005604916468122974,0.005668711552489549
1761316549375438300,4.717438232421875,-0.06740647979676723,-0.00398562643690966,0.006158983854041435
1761316549385420300,4.727420166015625,-0.07818097178936004,0.0009924085708335041,-0.0032283783288206904
1761316549395403300,4.7374033203125,-0.08177168975770473,-0.005333871841244399,-0.002873431977885775
1761316549405385200,4.74738525390625,-0.08042495132386684,0.00003829531692899763,-0.0024648740098811685
1761316549415368200,4.7573681640625,-0.08251870873272418,-0.0030843941477127373,-0.00598370035237167
1761316549425350100,4.76735009765625,-0.08146949194073677,0.004153868276439607,-0.00025207049835007634
1761316549435333400,4.77733349609375,-0.0777250447154045,-0.01189247230500914,-0.002507082883524708
1761316549445315300,4.7873154296875,-0.07877250794172287,-0.011311284016724675,-0.006844650863530114
1761316549455298300,4.79729833984375,-0.07039338665306567,0.0035901334464550016,0.0016143946603871882
1761316549465280300,4.8072802734375,-0.08356266482770443,-0.002466417512996122,-0.0024647872449131683
1761316549475263200,4.81726318359375,-0.07353636085391044,0.0023059662542771545,0.004026191342738457
1761316549485245200,4.8272451171875,-0.07518237449526786,-0.0009951393840368836,0.006195087213884108
1761316549495228400,4.837228515625,-0.07727788546979426,-0.006656453081360087,0.004299268096499145
1761316549505210000,4.847210205078125,-0.07249123571515083,-0.0048780269656796,0.007351203013025224
1761316549515192300,4.8571923828125,-0.07682897265851497,-0.005140669090393931,0.0027625965811312195
1761316549525175300,4.86717529296875,-0.07727963903546332,-0.0051723337371367955,-0.0006456044271588325
1761316549535157200,4.8771572265625,-0.0792243433624506,-0.002508539621671662,-0.005856553141633049
1761316549545140200,4.88714013671875,-0.08371405599713325,-0.004559188541164621,-0.010327698073163628
1761316549555122400,4.897122314453125,-0.08072364200949668,0.001390203116228804,0.0005994728636462241
1761316549565105200,4.907105224609375,-0.07219371407330036,-0.003406118649058044,-0.011786436380958184
1761316549575087400,4.91708740234375,-0.07608429177105426,-0.0015331917834933847,0.0005800466439686715
1761316549585070300,4.9270703125,-0.07593348512351512,0.004484890329092741,-0.00008809384198393673
1761316549595052300,4.93705224609375,-0.07787877397239208,-0.004974326947005466,-0.00634122681946028
1761316549605035300,4.94703515625,-0.0759346541672945,-0.0033985015981830655,-0.005770409228140488
1761316549615017200,4.957017333984375,-0.07473872238099574,0.008194677232997492,-0.004132259232830256
1761316549625000200,4.967000244140625,-0.07773322802186011,0.004746162480628118,0.00498350576730445
1761316549634982400,4.976982421875,-0.07578793917298317,-0.0017171061161905525,0.0073471570255700495
1761316549644964000,4.986964111328125,-0.07099953585267066,0.003232926639774814,-0.00025772848757915195
1761316549654947300,4.996947265625,-0.07040215448141098,0.0010487875337246806,0.0025365510066039858
1761316549664929300,5.00692919921875,-0.08716156610250472,-0.01165014231596142,0.005177320439508184
1761316549674912300,5.016912353515625,-0.07713760021626949,-0.0017213895656634122,-0.007498333565867506
1761316549684894200,5.026894287109375,-0.08252396942973136,-0.005745256520574912,0.0016313914609607308
1761316549694877400,5.03687744140625,-0.07578910821676253,-0.008471996337035671,0.0076601776306517416
1761316549704859100,5.046859130859375,-0.08057517344951629,-0.0005134476811625063,0.01140988555299118
1761316549714842400,5.05684228515625,-0.07713117047548293,0.0036844697995577005,0.003558592097298242
1761316549724824000,5.066823974609375,-0.07338906133770942,-0.000739228394208476,-0.0040006185100646685
1761316549734807300,5.076807373046875,-0.07997428494691848,-0.0003326842867769301,0.003611833821609616
1761316549744789200,5.086789306640625,-0.0727928490102291,0.0014438512659166007,0.0035904120076680553
1761316549754772200,5.096772216796875,-0.07189502338767051,0.00536790197500959,0.002071486211544834
1761316549764754200,5.106754150390625,-0.07638005984723567,0.0013713522852864116,-0.00030998839777894317
1761316549774736100,5.116736083984375,-0.08176292192935943,0.0008441957391798495,-0.0029279203777899964
1761316549784719000,5.126718994140625,-0.07532792044579982,0.0011962879793252796,0.0005814211837248877
1761316549794701300,5.136701416015625,-0.08221183474063873,-0.0015660072077065706,0.003141124737053178
1761316549804684300,5.146684326171875,-0.08056465205550194,0.004483246361277997,0.005603710891725495
1761316549814666200,5.156666259765625,-0.07921732909977436,0.002350362518429756,-0.004933501746272668
1761316549824649200,5.166649169921875,-0.07607669298648834,-0.004025501789571717,0.003188589741126634
1761316549834631200,5.176631103515625,-0.06904314108788967,0.0038740284217521547,0.0034743935457197945
1761316549844614100,5.1866142578125,-0.0813110865086317,-0.001526807708479464,0.0022918783634202555
1761316549854596400,5.196596435546875,-0.07891630032658577,-0.0003459547603037208,0.009631185442674904
1761316549864579300,5.206579345703125,-0.0765226831883192,-0.006044623059639707,0.0007681348282843828
1761316549874561300,5.216561279296875,-0.07832008799910545,0.00301639781226404,-0.008180429511936382
1761316549884544300,5.226544189453125,-0.07562661113142967,-0.004346897497354075,-0.0022900015001650897
1761316549894526200,5.236526123046875,-0.0679956778615713,0.0039080494223628194,0.00019520291169174015
1761316549904509200,5.24650927734375,-0.08400865502953529,-0.007031780066620558,-0.008829691767483017
1761316549914491100,5.2564912109375,-0.07383212893009185,0.0068065838754642755,0.003157308686873875
1761316549924473300,5.266473388671875,-0.07742226237654685,0.007627161277038976,0.0036692767970031123
1761316549934456300,5.276456298828125,-0.07353226920068263,0.001514487083023414,-0.004248661287268624
1761316549944438300,5.286438232421875,-0.07143734274804592,-0.0006969327555969358,0.0014504956358345224
1761316549954421200,5.296421142578125,-0.07951660430729389,-0.0010386040664277971,-0.007219881950668059
1761316549964403200,5.3064033203125,-0.07263269001245498,0.0022557156380731613,0.010121891569066793
1761316549974386200,5.31638623046875,-0.0730804337799549,-0.0006099211924243718,0.00837879249509424
1761316549984368000,5.3263681640625,-0.07921440649032592,-0.0030663105017505582,-0.0008429262307006866
1761316549994351000,5.33635107421875,-0.07726736407577992,-0.006135132620995864,-0.005255755970580503
1761316550004333000,5.3463330078125,-0.073973583227396,0.0003503386744763702,-0.005796324554109014
1761316550014316000,5.35631591796875,-0.08385024959743022,-0.0010063640309497714,-0.008373093406669795
1761316550024298200,5.36629833984375,-0.08310147705674172,0.008837733510043471,-0.00679537749486044
1761316550034281000,5.376281005859375,-0.0726280138373375,0.0006795432293787598,0.00011468045481014996
1761316550044263200,5.38626318359375,-0.0768190357863903,-0.004605667164549231,-0.007379218964534811
1761316550054246100,5.39624609375,-0.08250643377304076,-0.005831984955957159,-0.002303952393704094
1761316550064228000,5.40622802734375,-0.0696387688934803,-0.001135041045071557,0.001731509100878611
1761316550074210000,5.4162099609375,-0.08235913425683974,-0.0013079407934099435,0.00839662041272968
1761316550084193300,5.426193359375,-0.07981587951481342,-0.010077111712424085,0.0013460899798665195
1761316550094175000,5.436175048828125,-0.06709726771712303,-0.00672513440339826,-0.0009059632632415741
1761316550104158200,5.446158203125,-0.07368249132633209,-0.0011204279978293925,0.00017882031576009467
1761316550114140200,5.45614013671875,-0.0711374830186367,-0.0066092712050769475,0.008955176744097843
1761316550124123100,5.466123046875,-0.07832008799910545,-0.003919785525929182,0.007889958665380253
1761316550134105000,5.47610498046875,-0.07951718882918357,-0.0028704774023965,0.0010317085347604006
1761316550144088000,5.486088134765625,-0.08595102126896381,-0.002339156137825921,-0.0005788867333438247
1761316550154070000,5.496070068359375,-0.09088672410547732,0.004990300834272056,0.0038437931136926632
1761316550164053200,5.50605322265625,-0.07427811913192271,-0.0023012718128506094,0.007109421013249084
1761316550174035200,5.51603515625,-0.0687415277928114,0.0013934727855492383,-0.0006996772685321048
1761316550184018200,5.52601806640625,-0.07412789700627327,-0.003151139240991324,0.007574476675153709
1761316550194000100,5.536000244140625,-0.08400514789819717,0.0003385203725192696,0.004103065104386769
1761316550203982000,5.545982177734375,-0.08041267636418342,-0.002756669163843617,-0.0004061239823233336
1761316550213965000,5.555965087890625,-0.07966507286727428,-0.004522308863187208,-0.0021891669076168907
1761316550223947000,5.565947021484375,-0.08041267636418342,-0.004208630670979619,-0.0023623041179729625
1761316550233930000,5.575929931640625,-0.0661971040070057,-0.001070752770360559,-0.0010244157108711077
1761316550243912200,5.585912109375,-0.06874269683659076,-0.00440788870328106,0.004594807843817397
1761316550253895200,5.595895263671875,-0.068593059232831,-0.0038268465454690155,-0.0012867016425589098
1761316550263877000,5.605877197265625,-0.06530220099389553,-0.005693224939238279,0.0016082982797408476
1761316550273860000,5.615860107421875,-0.0753290894895792,-0.008417973728012293,0.0020656501258024943
1761316550283842000,5.625842041015625,-0.07009352692365646,0.0005288553128484637,0.00697797208672855
1761316550293825000,5.635824951171875,-0.06859773540794849,-0.00258504805713892,0.0010774199731647968
1761316550303807000,5.645806884765625,-0.06575345189273357,-0.005759148048609494,-0.00012304185777902603
1761316550313790200,5.655790283203125,-0.07787409779727458,-0.0033627544313669204,-0.0024971277450909837
1761316550323772200,5.665772216796875,-0.0852063403815031,-0.007837762687262146,-0.0041755823513260105
1761316550333755100,5.675755126953125,-0.08026596136987209,-0.0011122720908373594,0.0013192430721363053
1761316550343737000,5.685737060546875,-0.08385434125065803,-0.006628733957372605,0.001511509674647823
1761316550353719000,5.695718994140625,-0.08235971877872944,-0.005925736787170171,0.004999196526780724
1761316550363702000,5.705701904296875,-0.07517536023259162,-0.006780106860492378,-0.0024669335362268612
1761316550373684200,5.715684326171875,-0.07427695008814335,-0.0016915789492893962,-0.0002838241933495737
1761316550383667200,5.725667236328125,-0.08400514789819717,-0.0020672803938854485,0.0008141704936744645
1761316550393649200,5.735649169921875,-0.07577391064763069,-0.005881303990399465,0.007940556341456248
1761316550403632000,5.745632080078125,-0.07816752778589725,-0.005153364175185561,0.004394599963445216
1761316550413614000,5.755614013671875,-0.07921499101221562,0.001404907495016232,-0.0018306494932621717
1761316550423597000,5.76559716796875,-0.08235738069117068,-0.00010534180430695413,-0.001406798058003187
1761316550433579300,5.775579345703125,-0.08041092279851436,-0.009020807592524214,0.000928088330081664
1761316550443562000,5.78556201171875,-0.08310323062241078,0.0022383626444730906,0.001790080020856112
1761316550453544200,5.795544189453125,-0.0669417848944664,0.00038209465276449917,0.003916232728818431
1761316550463527200,5.805527099609375,-0.07218143911361694,-0.006688209059648216,-0.0015681717653293161
1761316550473509000,5.815509033203125,-0.08415303193628787,-0.007092716473620385,0.009137022417294792
1761316550483491000,5.825490966796875,-0.07787059066593646,0.002888515382586047,-0.0028482884034747255
1761316550493474000,5.83547412109375,-0.07607669298648834,-0.000913854308752343,0.0025622836694819853
1761316550503456000,5.8454560546875,-0.0681482380747795,-0.0034931119459215548,0.00891077591336798
1761316550513439200,5.855439208984375,-0.07473521524965762,-0.0051221653193235395,-0.0011746561028296127
1761316550523421000,5.8654208984375,-0.07937515000998974,0.00440370571850799,-0.004531601847917772
1761316550533404200,5.875404052734375,-0.08251870873272418,0.002420057620620355,0.002324844484683126
1761316550543386000,5.88538623046875,-0.07384089675843715,-0.0039296036670450115,-0.0013705805337289347
1761316550553369000,5.895369140625,-0.07578618560731411,-0.000801142048742622,-0.008313138813781552
1761316550563351000,5.90535107421875,-0.06964987480938434,0.0036162816678639497,-0.00951197037664242
1761316550573334300,5.915334228515625,-0.0804220287144184,0.002489195600384846,-0.0004368890133453533
1761316550583316000,5.92531591796875,-0.08954992254376411,-0.006186744077224284,-0.0018808361773844807
1761316550593299200,5.93529931640625,-0.07668167314231396,0.0028597550789825617,0.007504612609604373
1761316550603281000,5.945281005859375,-0.07219254502952098,0.00031772417966276407,0.006358940572664141
1761316550613264100,5.95526416015625,-0.07219079146385192,-0.005146267714118585,0.011853724896931088
1761316550623246000,5.96524609375,-0.07009528048932552,0.0011322280334774403,0.00786010694981087
1761316550633228000,5.97522802734375,-0.07922258979678154,-0.002359395208256319,0.004208123780903406
1761316550643211000,5.9852109375,-0.07907002958357334,-0.0026440573685336858,0.008375207731942646
1761316550653193000,5.99519287109375,-0.08011924637556075,-0.005520060329418629,0.005498204690637066
1761316550663176000,6.005176025390625,-0.0751806209295988,-0.0005894081273581833,-0.0007450325139099731
1761316550673158100,6.015158203125,-0.07862345485985278,-0.0004722480210941285,-0.00342810900186887
1761316550683141000,6.02514111328125,-0.0822130037844181,-0.001149352698214352,-0.0004760953624383546
1761316550693123000,6.035123046875,-0.08430676119327545,-0.009134159173350781,0.0027504928680951706
1761316550703106000,6.04510595703125,-0.07143909631371498,-0.010589344684034585,-0.004408923033031169
1761316550713088000,6.055087890625,-0.07652794388532638,-0.0024299944927450266,-0.0042089046656154094
1761316550723071000,6.065071044921875,-0.06650163991153239,0.0014132186656352131,0.0056482076205778865
1761316550733053200,6.07505322265625,-0.08520575585961342,-0.0008405607436783612,0.010299771169910673
1761316550743036000,6.085035888671875,-0.07503039880394935,-0.0013535791665781288,0.009952037727762944
1761316550753018000,6.09501806640625,-0.0663490796983242,0.004575646485621109,0.005765344893955625
1761316550763001000,6.1050009765625,-0.07069090829491614,0.0033763719647657126,0.007344608875457197
1761316550772983000,6.114983154296875,-0.08086801891624927,0.0003097052699886262,0.0006486366344615816
1761316550782965200,6.12496533203125,-0.08311550558209418,-0.002391690042661503,0.0010320236285915598
1761316550792948000,6.134947998046875,-0.07653203553855419,-0.00522508683768101,-0.007971819129399954
1761316550802930200,6.14493017578125,-0.08775602486431598,-0.012620485185459255,0.005194874362507835
1761316550812913200,6.1549130859375,-0.07982640090882778,-0.009629550608014688,0.0004984510414302349
1761316550822895000,6.16489501953125,-0.0781833098769188,-0.004350331563455984,0.004785403079050593
1761316550832878000,6.174878173828125,-0.07923018858134746,-0.0010981157013215124,0.004855226045404561
1761316550842860300,6.1848603515625,-0.0840174228578806,-0.0017599040783010422,0.005983723185257986
1761316550852843000,6.194843017578125,-0.0729454092234373,0.0004409030347596854,0.006567322626337409
1761316550862825200,6.2048251953125,-0.06890402487814426,-0.0004856280924752354,-0.010039410050539299
1761316550872808200,6.21480810546875,-0.0823696556508541,0.00346279900604859,-0.0023339639394776893
1761316550882790100,6.2247900390625,-0.08805705363750457,0.0068199274142272765,-0.0014580396214732899
1761316550892773000,6.234773193359375,-0.07832944034934043,0.009110668699909001,-0.0038432268581120297
1761316550902755000,6.244755126953125,-0.08221943352520465,-0.00020569690624251962,-0.0007199528715806082
1761316550912737000,6.254737060546875,-0.09104805214703082,0.001475588977895677,-0.0008087180004222318
1761316550922720300,6.26472021484375,-0.08057283536195754,-0.0006586831044405699,0.01163361130626872
1761316550932702000,6.274701904296875,-0.06725508862733841,-0.002306861303420737,0.008358462093118578
1761316550942685200,6.284685302734375,-0.06770575500428676,-0.0011081256386823951,0.01611506300268229
1761316550952667000,6.2946669921875,-0.0789279907643795,-0.0015630571987945586,0.00483778628683649
1761316550962650000,6.304650146484375,-0.07578677012920379,0.0004707319174427539,0.009357053809566423
1761316550972632000,6.314632080078125,-0.08027765180766581,0.008046007743617519,0.015321314242528751
1761316550982615300,6.324615234375,-0.07040156995952129,-0.0001619308297522366,0.011474799448787234
1761316550992597000,6.334596923828125,-0.07354395963847636,-0.0004703483249526471,-0.0035068390771746632
1761316551002580200,6.344580322265625,-0.07937982618510722,0.0015294380569830536,-0.007522513592476025
1761316551012562000,6.35456201171875,-0.07728256164491176,-0.0008255641039460897,-0.004835927689890377
1761316551022545200,6.364545166015625,-0.08102233269512653,-0.00030346732544712723,-0.002737370808329433
1761316551032527000,6.374527099609375,-0.06860124253928661,0.0033769930192735042,-0.004431831267871894
1761316551042510300,6.38451025390625,-0.07264204236268997,-0.009315735418489202,0.0007716739256633445
1761316551052492000,6.394491943359375,-0.08087211056947707,-0.007515526729263365,-0.0019829311452573164
1761316551062474200,6.40447412109375,-0.07922492788434028,-0.001646123239211738,0.005263847945490852
1761316551072457000,6.41445703125,-0.07338789229393004,0.005448008873360231,0.0036688110061222686
1761316551082439200,6.424439208984375,-0.07997077781558036,0.006391746863722801,-0.0021196316356305034
1761316551092422100,6.434422119140625,-0.08041852158308029,-0.0039024507986381647,-0.006754575127013959
1761316551102404000,6.444404052734375,-0.07487959215641021,-0.0004870711308903992,0.004651177673554048
1761316551112387000,6.454386962890625,-0.06634966422021389,-0.0035447599347680804,0.0006317996640922501
1761316551122369000,6.464369140625,-0.0757774177789688,-0.0032256292493082583,-0.0007479870893992483
1761316551132352000,6.47435205078125,-0.08041852158308029,0.0024337847518734633,-0.002176718417997472
1761316551142334200,6.484334228515625,-0.06739946553409099,-0.006541603663191199,0.00042646808403078466
1761316551152317000,6.49431689453125,-0.076526774841547,-0.004821529271779581,0.014791668911813757
1761316551162299100,6.504299072265625,-0.08026713041365147,0.0002813924909569323,-0.0011258348253089935
1761316551172282000,6.5142822265625,-0.07891922293603419,-0.002503945644944906,-0.0006231870993738994
1761316551182264000,6.52426416015625,-0.07203413959741592,-0.0027104097361676394,0.004010509716416709
1761316551192246300,6.534246337890625,-0.07368015323877335,-0.000610624445322901,-0.001647337948763743
1761316551202229200,6.544229248046875,-0.08146013959050179,-0.002017057177145034,-0.0019863789110910147
1761316551212211200,6.554211181640625,-0.08056114492416382,-0.0016159655629657207,0.0016295237308600918
1761316551222194200,6.564194091796875,-0.0751724376231432,-0.0030102511992678043,-0.0018989906052942387
1761316551232176000,6.574176025390625,-0.06873743613958358,-0.0058717963765375315,0.0018991755516733974
1761316551242159000,6.5841591796875,-0.07143032848536968,-0.0015395027932710945,0.005155286704213358
1761316551252141300,6.594141357421875,-0.08699147023260594,-0.005475079543376341,-0.0035746253500692545
1761316551262124000,6.6041240234375,-0.08010697141587733,-0.009132615670235827,0.006521556389005854
1761316551272106200,6.614106201171875,-0.07606850968003273,0.005474549820413813,0.009053365005122032
1761316551282089200,6.624089111328125,-0.06873568257391452,0.004106786864856258,0.0037613458444946445
1761316551292071200,6.6340712890625,-0.07172668108344078,0.002695577493216842,0.007461821497359778
1761316551302054100,6.64405419921875,-0.07756079406440257,0.0003054492199793458,0.007427745697821956
1761316551312036000,6.6540361328125,-0.08070201469957829,0.006691186468023806,-0.010941548805322963
1761316551322019000,6.66401904296875,-0.06768412769436837,0.0023297215892001985,-0.006912809312471654
1761316551332001300,6.674001220703125,-0.0730716659516096,-0.0016633118360303342,-0.003303589856345206
1761316551341983000,6.68398291015625,-0.07576338925361632,-0.002999474076926708,-0.005930253132083453
1761316551351966200,6.69396630859375,-0.07097498593330383,-0.0025681882538832724,0.007076126098423265
1761316551361948200,6.7039482421875,-0.06483984417915344,-0.0019950462747365233,0.004281020053755491
1761316551371931100,6.71393115234375,-0.07321779642403126,-0.002883894006395712,-0.0018926362130325287
1761316551381913000,6.7239130859375,-0.06184475401639938,0.006945225161174312,0.006210946936719119
1761316551391896300,6.733896240234375,-0.07950199126005172,0.0021169556213542816,0.006452486907900311
1761316551401878000,6.7438779296875,-0.08294248710274696,0.007734229247551411,0.0009059449969325215
1761316551411861200,6.753861328125,-0.07456453485786914,-0.0061903242737986145,0.005536625588440802
1761316551421843000,6.763843017578125,-0.0696253248900175,0.003765024222480133,0.0069278105187811885
1761316551431826200,6.773826171875,-0.07785363953113555,0.002323629775131121,-0.004886854159529321
1761316551441808100,6.78380810546875,-0.07201952655017375,0.0024614582100883123,-0.005902620773063972
1761316551451791000,6.793791015625,-0.06079612174630165,-0.0031222602063789963,-0.002408351199806202
1761316551461773000,6.80377294921875,-0.07246785483956336,-0.001936411422677338,0.0011804899052833206
1761316551471756300,6.81375634765625,-0.0765057320535183,-0.007476866086153313,0.013971164575475268
1761316551481738000,6.823738037109375,-0.08279109593331814,-0.008507935300096869,0.0013978749660309403
1761316551491720200,6.83372021484375,-0.07665595417916775,-0.004283157211914659,0.000645940070587676
1761316551501703200,6.843703125,-0.07949789960682392,-0.00955965457642451,0.00039177351327380165
1761316551511685000,6.85368505859375,-0.06857493905425072,0.0012371862452942876,0.005006012143346015
1761316551521668000,6.863668212890625,-0.08652969793975353,-0.001438965028245002,-0.0005163269081269391
1761316551531650000,6.873650146484375,-0.07844926733672618,-0.00039601358026266096,-0.0019991333613870663
1761316551541633000,6.883633056640625,-0.0750064334064722,0.0048028428376186635,0.0017209214914939365
1761316551551615200,6.893615234375,-0.07650222492218017,-0.010015389854134991,-0.008371803348592948
1761316551561598000,6.903597900390625,-0.08443243339955807,0.0019215974460355936,-0.0024400089966831726
1761316551571580200,6.913580078125,-0.08248714455068111,-0.0015674959118943661,-0.006833825792127754
1761316551581563100,6.923563232421875,-0.07844576020538807,-0.004653214367013424,0.003991156561975367
1761316551591545000,6.933545166015625,-0.07515431744456291,-0.0027987912725191562,0.0015423797369468956
1761316551601528000,6.943528076171875,-0.07171206803619862,-0.0035688075306359677,0.006075504538381938
1761316551611510000,6.953510009765625,-0.08218553125560284,-0.0004995470199733972,0.002968268371198792
1761316551621492200,6.9634921875,-0.07231003392934798,-0.0002066467543132603,0.0032994959198287687
1761316551631475200,6.97347509765625,-0.0826356131106615,-0.0013887235451955347,0.002124339776788838
1761316551641457200,6.98345703125,-0.09026654638051985,0.006371562592219561,0.002876171924243681
1761316551651440000,6.993440185546875,-0.07620178067088126,0.004012660574307665,-0.0025381127760279922
1761316551661422300,7.00342236328125,-0.08443126435577869,-0.005501739221438765,-0.003769841961492784
1761316551671405000,7.013405029296875,-0.08428221127390861,-0.002193591920984909,0.0013184964367537759
1761316551681387300,7.02338720703125,-0.07575403690338134,-0.007826684170821682,0.000823721490020398
1761316551691370200,7.033370361328125,-0.07111468666493892,-0.011465241602575406,-0.0025796686291228977
1761316551701352200,7.043352294921875,-0.08158931892812252,-0.004399851527297869,-0.0015865408223704434
1761316551711335200,7.053335205078125,-0.07874620445668697,-0.004700460175378248,0.0024707831608597186
1761316551721317000,7.063317138671875,-0.07096504906117916,-0.005616963098943233,0.005750393919995986
1761316551731300000,7.073300048828125,-0.07919570178985595,-0.0007848759005311876,0.011202005822816863
1761316551741282300,7.0832822265625,-0.0769499686896801,-0.0017860066339373587,0.005889359432691708
1761316551751264000,7.093263916015625,-0.08009294289052486,-0.007146821281034499,0.006770964572811499
1761316551761247200,7.103247314453125,-0.08188917865753173,-0.0024482060028705745,-0.005605103697790764
1761316551771229200,7.113229248046875,-0.06438157901763916,0.0040045503330882635,0.001357271244295407
1761316551781212200,7.123212158203125,-0.07335925072133541,0.0019066647383850068,0.0009090822355123236
1761316551791194000,7.133194091796875,-0.07680091560781002,-0.0028423472864553333,0.0001439042660058476
1761316551801177300,7.14317724609375,-0.07216273441314697,-0.007138500977260992,0.00940455077968072
1761316551811159000,7.153158935546875,-0.07351064189076423,-0.011578501851856708,0.011209070317842997
1761316551821142300,7.163142333984375,-0.07006722343862057,-0.009439261333458125,0.00356612238320522
1761316551831124000,7.1731240234375,-0.08278641975820064,-0.009281065963907167,0.0013300590103841386
1761316551841107200,7.183107177734375,-0.07350947284698486,-0.0018553364099469034,-0.0017942424560314974
1761316551851089200,7.193089111328125,-0.07545476169586181,0.005171895345719531,-0.00032635272740153595
1761316551861072100,7.203072021484375,-0.083833882984519,-0.001256420668726787,0.002602186421607621
1761316551871054000,7.21305419921875,-0.08562953422963619,0.003849067510431632,-0.0002899639564799145
1761316551881037300,7.223037353515625,-0.07620294971466064,-0.0038952447397168724,-0.001974754688667599
1761316551891019000,7.23301904296875,-0.07724982841908931,-0.0027364757591858504,0.0029819932191632688
1761316551901001200,7.243001220703125,-0.08113982159495353,-0.004532620194647461,0.004362976415897719
1761316551910984000,7.25298388671875,-0.07171148351430892,-0.009234788269922137,0.00831931967610726
1761316551920966100,7.262966064453125,-0.07006605439484119,-0.005849173552775755,0.006032478247408289
1761316551930949000,7.27294921875,-0.0697650256216526,0.002247413600608706,0.01127017568820156
1761316551940931000,7.28293115234375,-0.06692074210643768,-0.001149325298750773,0.00984657947573578
1761316551950914000,7.2929140625,-0.08113456089794635,-0.0036757933027576654,0.00965687015649164
1761316551960896000,7.30289599609375,-0.07844225307404995,0.00028708244622685015,0.002399585654749535
1761316551970879000,7.31287890625,-0.06856558670401573,-0.0006775613348465413,0.004603080198529642
1761316551980861200,7.322861083984375,-0.07814180882275104,-0.00657610872099176,0.00017500722374534232
1761316551990844000,7.332843994140625,-0.07769231148958206,-0.005635083277523517,-0.004074622177903074
1761316552000826000,7.342826171875,-0.0670680416226387,-0.002502721802238375,0.008036392815189902
1761316552010809000,7.35280908203125,-0.08173018870353699,-0.004917436527460814,-0.004778706193494145
1761316552020791000,7.362791015625,-0.08951134409904479,-0.006572336728172376,0.00226859566924395
1761316552030773200,7.372773193359375,-0.07454699920117855,-0.007939259433513507,0.002848685695696622
1761316552040756200,7.382756103515625,-0.08113163828849793,-0.007305208446830511,0.008246480485470964
1761316552050738200,7.39273828125,-0.07424772399365902,0.002261432992806658,0.0006896810309030115
1761316552060721200,7.40272119140625,-0.07604454428255558,0.0029088640508707613,0.0028495738949743097
1761316552070703000,7.412703125,-0.07918576491773129,-0.0007378310215659439,-0.00502404784024693
1761316552080686000,7.42268603515625,-0.0790367118358612,0.0014443901220336556,0.007717595489870291
1761316552090668300,7.432668212890625,-0.07619476640820502,0.0010802877836860716,-0.002610326345579233
1761316552100651000,7.442651123046875,-0.07544482482373714,-0.0015181494779884814,0.0024427923255250787
1761316552110633200,7.45263330078125,-0.07709083846509455,-0.0019208211279008536,0.00446996675459668
1761316552120616200,7.4626162109375,-0.07843640785515307,-0.009801893233926965,0.007462794178316835
1761316552130598100,7.47259814453125,-0.08172551252841949,-0.014145676325587555,0.00752083994190907
1761316552140581000,7.4825810546875,-0.07588964598178863,-0.004863897975627332,0.009502371431235224
1761316552150563000,7.49256298828125,-0.07469196062982082,-0.007783913608174771,0.00527504519294016
1761316552160546000,7.502546142578125,-0.07798398791253566,0.001049938311195001,0.003050094585889019
1761316552170528300,7.5125283203125,-0.0773854374974966,-0.0034209874246269464,0.005249358195834793
1761316552180510000,7.522510009765625,-0.06930792950391769,-0.0005761833196040242,0.006534500352258328
1761316552190493200,7.5324931640625,-0.0723012661010027,-0.0036562392189167436,0.0038082263266784135
1761316552200475100,7.54247509765625,-0.07439794611930847,0.001017433414235711,-0.004837199481658171
1761316552210458000,7.5524580078125,-0.07754092032015324,0.0001558024830650538,0.006322095144016202
1761316552220440000,7.562440185546875,-0.0702092622578144,0.00031406178469769655,0.0005620794457267039
1761316552230423300,7.57242333984375,-0.07275485508739948,-0.011224382051406427,0.003964553966128733
1761316552240405000,7.582405029296875,-0.07903788087964057,-0.006150028796028346,0.0005564534225384704
1761316552250388200,7.59238818359375,-0.07649462613761425,-0.007043808431131765,0.004286888105538673
1761316552260370000,7.602369873046875,-0.06721826374828815,-0.0063158320832997555,0.005225111953855958
1761316552270353200,7.612353271484375,-0.07619651997387408,-0.006763119193073362,-0.0025097451980691404
1761316552280335000,7.622335205078125,-0.07560030764639378,-0.00374745203317143,-0.003093908611440565
1761316552290318000,7.632318115234375,-0.0765010558784008,-0.004325105790654197,0.006392788043338805
1761316552300300000,7.642300048828125,-0.07590250546336173,0.004900604123668745,0.009388033469719812
1761316552310282200,7.6522822265625,-0.0803922180980444,-0.0009289057474117726,0.0069148756886832415
1761316552320265000,7.662264892578125,-0.08054010213613509,-0.00240098759396933,0.005102629501791671
1761316552330247200,7.6722470703125,-0.07530395504832267,-0.005001178421312943,0.002410714403539896
1761316552340230100,7.682230224609375,-0.07515373292267322,0.0017038995747454464,0.002693221139349043
1761316552350212000,7.692212158203125,-0.08024141145050526,-0.011585461315605788,-0.0033443876576144246
1761316552360195000,7.702195068359375,-0.0817383720099926,-0.008900624412111938,0.00479099256962072
1761316552370177000,7.712177001953125,-0.0820388162612915,-0.004769625554606318,0.011986210436490364
1761316552380160000,7.722159912109375,-0.07395838565826415,-0.004135282306978479,0.006222523210081272
1761316552390142200,7.73214208984375,-0.07635434088408946,-0.008801575351273641,-0.0008459949706215411
1761316552400125000,7.742125,-0.08533318163156509,0.002844749306095764,-0.0014124857299844733
1761316552410107100,7.752107177734375,-0.08772855233550071,-0.0010919416888616979,0.0027100649595842696
1761316552420090000,7.762090087890625,-0.08144435749948024,-0.003784130781749263,-0.0025938980838749555
1761316552430072000,7.772072021484375,-0.07785363953113555,-0.0016517218629363924,-0.0027187711391365153
1761316552440054300,7.78205419921875,-0.07725450459420681,-0.0025455562969669697,-0.0010969078416354023
1761316552450037000,7.792037109375,-0.07710545151233672,-0.002503351989900693,0.004411185772065073
1761316552460019200,7.802019287109375,-0.06782675103545188,-0.005836405402747914,0.0011681030644569545
1761316552470002200,7.812002197265625,-0.07396189278960227,0.000327505788160488,0.005470298336981795
1761316552479984000,7.821984130859375,-0.07695347582101822,0.0027026830874383448,0.003994218452030327
1761316552489967000,7.831967041015625,-0.07216741058826447,-0.004465948166605085,-0.0008999079817906022
1761316552499949300,7.84194921875,-0.0866828426748514,0.0010018705189228057,0.002324602456088178
1761316552509932000,7.85193212890625,-0.0723182172358036,-0.003813110281061381,-0.004138344197033439
1761316552519914200,7.861914306640625,-0.07606149541735649,0.003648293374478817,-0.003644720027770381
1761316552529897200,7.871897216796875,-0.06842997762560844,-0.0005182882530614734,-0.0060240095298737285
1761316552539879200,7.881879150390625,-0.0685801997512579,-0.005092665230203419,0.0035027702568331733
1761316552549862100,7.891862060546875,-0.07755787145495414,-0.0042457660772837694,0.0052899916003225364
1761316552559844000,7.901843994140625,-0.07306874334216118,-0.0032282047988846894,0.008728720177616923
1761316552569827000,7.9118271484375,-0.07292144382596015,0.001069117935700342,0.0036662263233913106
1761316552579809300,7.921809326171875,-0.08908172051012515,-0.0010825619391631334,0.001501072762312833
1761316552589791000,7.931791015625,-0.07561550521552562,0.007196039850777014,0.0023093706376268526
1761316552599774200,7.941774169921875,-0.08055237709581851,-0.0054442277473863215,0.0038669890429009683
1761316552609756200,7.951756103515625,-0.08459376144111155,-0.00791348567144014,0.012878104075184091
1761316552619739100,7.9617392578125,-0.07696224364936351,-0.0052060898762661964,0.004092002570966724
1761316552629721000,7.97172119140625,-0.07830956660509109,-0.007847315966896713,-0.0011241543248761445
1761316552639704300,7.981704345703125,-0.0730716659516096,-0.005204719903087243,0.004395556661381851
1761316552649686000,7.99168603515625,-0.07756196310818195,0.002929386249091476,0.005800263226998504
1761316552659669200,8.001669189453125,-0.07352174780666827,-0.0029075032108463344,-0.0063001299073803235
1761316552669651000,8.01165087890625,-0.08055413066148757,0.0003687237145379185,0.0009063308727112598
1761316552679634200,8.02163427734375,-0.07651508440375328,-0.0037459815952926873,-0.001177971437922679
1761316552689616100,8.0316162109375,-0.067986910033226,-0.0032274284807499495,0.008107727318617981
1761316552699599000,8.04159912109375,-0.08055588422715663,-0.0005471946871373802,0.007513526568422094
1761316552709581000,8.0515810546875,-0.08145429437160491,-0.0003510419273748994,0.00613700948425103
1761316552719563000,8.06156298828125,-0.08250292664170265,-0.005616488174907863,0.0040355368431075475
1761316552729546000,8.0715458984375,-0.08010755593776703,0.001937443469138816,-0.003416891204821877
1761316552739528200,8.081528076171875,-0.07531973713934421,0.006356830813968554,0.0017452910310588776
1761316552749511000,8.091510986328124,-0.0745709645986557,0.008900030757067724,0.007870986820140388
1761316552759493000,8.1014931640625,-0.09297697438299656,-0.0034912122497800734,0.007358208142546937
1761316552769476000,8.11147607421875,-0.07202887890040874,-0.002366975726513192,0.006010332630970515
1761316552779458000,8.1214580078125,-0.07577098803818226,-0.003051642655581236,0.0007569033315056003
1761316552789441000,8.13144091796875,-0.08026070067286491,-0.005511940955044701,-0.0043815098697203205
1761316552799423200,8.14142333984375,-0.08071195157170295,0.0037867245976347472,0.0025858540580258704
1761316552809406000,8.151406005859375,-0.07338029350936412,-0.005015499207610264,0.003831175660714507
1761316552819388200,8.16138818359375,-0.07143208205103874,-0.0034306411689613014,0.004241982668021228
1761316552829371100,8.17137109375,-0.0759212101638317,-0.0020679745136294512,0.007034314517001621
1761316552839353000,8.18135302734375,-0.07577391064763069,0.004909198422078043,0.005805309294874314
1761316552849335300,8.191335205078126,-0.08265899398624897,0.0024798797827679663,0.011208047404536046
1761316552859318000,8.201318115234375,-0.08580138366520404,-0.0033604254769627005,-0.0024335861057625152
1761316552869300200,8.21130029296875,-0.07367956871688365,-0.0006142685739789158,-0.004726713428064249
1761316552879283200,8.221283203125,-0.07682546552717685,0.0006430197444278747,0.00019222322002751752
1761316552889265200,8.23126513671875,-0.06724924340844154,-0.0018543500292580574,0.0008653892242582514
1761316552899248000,8.241248046875,-0.05857084691226482,0.0012800938052590935,0.008031878753565251
1761316552909230300,8.251230224609374,-0.07682663457095623,0.002442114188801497,0.006443680263648275
1761316552919213000,8.261213134765624,-0.0774251849859953,-0.0032675686948932707,0.003233753190259449
1761316552929195300,8.2711953125,-0.08011866185367107,-0.00027738303611986336,0.008194695499306544
1761316552939178200,8.28117822265625,-0.07203647768497466,-0.001412643276900053,0.001330677781603299
1761316552949160200,8.29116015625,-0.07981587951481342,-0.008999618674023076,-0.003078822923451662
1761316552959143700,8.301143798828125,-0.07966624191105365,-0.0065809949586633585,-0.0016004392002709209
1761316552969125600,8.311125732421875,-0.07772153758406639,0.003774056912306696,-0.000050892220309469845
1761316552979108600,8.321108642578125,-0.07398176653385162,0.00041636224854737515,0.005680091463029384
1761316552989090600,8.331090576171874,-0.07996610164046287,-0.00654748541470617,0.007696815280034206
1761316552999072500,8.341072509765626,-0.06979074458479881,-0.0015962379491887987,0.0008497532637091353
1761316553009055500,8.351055419921876,-0.07966682643294334,-0.006375645112292841,0.004917696822364814
1761316553019037700,8.36103759765625,-0.07577624873518943,0.003948153103888035,0.01016595218979055
1761316553029020700,8.371020751953125,-0.07906886053979396,-0.0038190559646580366,0.008372271422762423
1761316553039002600,8.381002685546875,-0.07966741095483303,0.0073753876062110065,0.007949922391423024
1761316553048985600,8.390985595703125,-0.07382920632064342,0.003457054251851514,-0.003959953139536083
1761316553058967600,8.400967529296874,-0.07397767488062382,-0.0009995050319004802,0.0031411841025575996
1761316553068950500,8.410950439453124,-0.07876374011337757,-0.0019258991618175058,0.005354133744561113
1761316553078932500,8.420932373046876,-0.07532149070501327,-0.0037147553399670867,-0.0007081117367371916
1761316553088915700,8.430915771484376,-0.06709142249822617,0.0002705605696886778,0.001597776885726489
1761316553098897700,8.440897705078125,-0.09148293643295764,0.0010910009739454835,-0.0031994810278993097
1761316553108880600,8.450880615234375,-0.08564999249577522,-0.0014447006492875516,0.004505992482625879
1761316553118862600,8.460862548828125,-0.07382862179875374,-0.0002740677010267973,-0.008174675624584779
1761316553128844500,8.470844482421874,-0.07951368169784545,-0.002031551493378356,-0.00029698735231067984
1761316553138827500,8.48082763671875,-0.07756722380518913,0.0014492763597052543,0.006626710963645018
1761316553148809700,8.490809814453126,-0.0672422291457653,-0.007526194253750145,-0.0012130016521085052
1761316553158792400,8.50079248046875,-0.07906418436467647,-0.01023363571469672,0.006250676158908754
1761316553168774700,8.510774658203125,-0.07666881366074085,-0.0013344086752273142,0.006279185300762765
1761316553178757600,8.520757568359375,-0.07337444829046726,-0.0008951130756642669,0.0005589216575492173
1761316553188739600,8.530739501953125,-0.07876081750392913,-0.00392014171895571,-0.007386639652587473
1761316553198722600,8.54072265625,-0.07621814728379249,0.0005799461792688817,-0.0010880052992608398
1761316553208704800,8.550704833984375,-0.07621931632757187,-0.0011387308395002036,-0.00006711498603690415
1761316553218687500,8.5606875,-0.07487257789373397,-0.003508181650890037,0.0028272273491369558
1761316553228669700,8.570669677734376,-0.08130582581162452,-0.004904905839450657,0.0014239455556264147
1761316553238652700,8.580652587890626,-0.06753799722194671,-0.00165896445447579,0.0037568409160245206
1761316553248634600,8.590634521484375,-0.0765144998818636,-0.0005731145796831697,0.011014040936087257
1761316553258616600,8.600616455078125,-0.08489186760485172,-0.0034618948237504807,0.0055713155926205215
1761316553268599600,8.610599609375,-0.08070201469957829,-0.0019545133349485695,0.010258523560781031
1761316553278581500,8.62058154296875,-0.08354396012723446,-0.011884380330098792,0.01238098190773744
1761316553288564700,8.630564697265624,-0.07321779642403126,-0.001344062419561669,0.006051418126607313
1761316553298546400,8.64054638671875,-0.07112345449328422,-0.0017666717458050697,-0.005750562883354723
1761316553308529700,8.65052978515625,-0.07950082221627235,0.003476014680648222,-0.007391402592672966
1761316553318511600,8.66051171875,-0.07261690792143344,0.0013283351274672895,-0.008677387282601557
1761316553328494600,8.67049462890625,-0.07022270626127719,-0.003761590156378224,-0.007149944819882512
1761316553338476500,8.6804765625,-0.07770517097115516,-0.010934934118157252,-0.0017941442746203392
1761316553348459800,8.690459716796875,-0.07366261758208274,-0.008247302469378336,0.003422795789223164
1761316553358441500,8.70044140625,-0.06872633022367954,-0.007267735113808885,0.004476305163837969
1761316553368424700,8.7104248046875,-0.07171908229887484,0.0054402548251673575,-0.0007061070093186572
1761316553378406400,8.720406494140626,-0.07396364635527133,0.0009532273379154502,0.009395034032664262
1761316553388388600,8.730388671875,-0.07680500726103782,0.003083745693741366,0.0027278220952721313
1761316553398371600,8.74037158203125,-0.07740472671985625,-0.0063986423953901975,-0.00011350684445351362
1761316553408353500,8.750353515625,-0.06947685633003711,-0.0017907010753639041,0.0006714147218503057
1761316553418336500,8.76033642578125,-0.06408990259468555,-0.009902348800562321,-0.008476590313762427
1761316553428318500,8.770318359375,-0.06813245598375797,-0.0013952446175273508,0.0011447998206829651
1761316553438301400,8.780301513671875,-0.07845803516507148,-0.013503761692857368,0.0006120720503153279
1761316553448283600,8.79028369140625,-0.0908791253209114,-0.005929700576234608,0.012384397707530297
1761316553458266600,8.8002666015625,-0.0874368759125471,-0.010506433907244353,0.003089513280824758
1761316553468248600,8.81024853515625,-0.07636486227810382,-0.009437279438925906,-0.0057713636427884915
1761316553478231600,8.8202314453125,-0.08504384329617024,-0.0015315386825241147,-0.004249793798429892
1761316553488213500,8.830213623046875,-0.07935702983140945,-0.002926892897905782,0.0017689276349730789
1761316553498196500,8.840196533203125,-0.08235036642849444,0.0006918364553712308,-0.0014280737414723262
1761316553508178700,8.8501787109375,-0.08025543997585773,-0.001446655144356191,-0.0088912537955679
1761316553518161400,8.860161376953124,-0.0816027629315853,-0.004577792776934802,-0.007006403596769087
1761316553528143600,8.8701435546875,-0.08205050669908523,-0.0058611653846688564,-0.006186899340851232
1761316553538125600,8.88012548828125,-0.07831015112698078,-0.005246065693628042,-0.003841135365725495
1761316553548108500,8.890108642578125,-0.07950432934761047,-0.0016451368585228918,-0.002017312905471772
1761316553558090800,8.9000908203125,-0.08414426410794258,-0.0006535776710603386,-0.0010303568278905004
1761316553568073500,8.910073486328125,-0.07202654081285,-0.0035918687458150085,-0.0026752836238592864
1761316553578055700,8.9200556640625,-0.0778606537938118,0.0030351207790430632,0.005473010883876122
1761316553588038700,8.93003857421875,-0.07965396695137024,-0.002600017297407612,-0.0009442494470160454
1761316553598020600,8.9400205078125,-0.07710954316556454,-0.003214578132331371,0.001104189249081537
1761316553608003600,8.950003662109374,-0.08369184416532516,-0.006738569273706525,0.0012355285777477546
1761316553617985800,8.95998583984375,-0.07755845597684383,-0.006905706001538783,0.00388143997665029
1761316553627968500,8.969968505859375,-0.07486322554349899,-0.00578072055960074,0.004195131868589669
1761316553637950700,8.97995068359375,-0.07142097613513469,-0.0014249547692015765,-0.0004930944463005289
1761316553647932400,8.989932373046875,-0.07306640525460242,-0.002189892993401736,0.0007928765438962727
1761316553657915600,8.99991552734375,-0.07306640525460242,0.0009734024762641638,0.002112854834971949
1761316553667897600,9.009897705078124,-0.08324351587593555,0.005718916502920911,0.0050827466243878
1761316553677880600,9.019880615234374,-0.07336626498401165,-0.004656666699424386,-0.002605136430519633
1761316553687862500,9.029862548828126,-0.08368950607776642,-0.00851411844571121,0.0016202353127067908
1761316553697845800,9.039845703125,-0.07126900044381618,0.004740134598640725,0.0026617300225421784
1761316553707827500,9.049827392578125,-0.08443827861845493,7.671849802136421e-7,0.0063590136379003525
1761316553717810700,9.059810791015625,-0.08294131805896758,-0.004843147448543459,0.004232600635034032
1761316553727792400,9.06979248046875,-0.0678261665135622,-0.005989732800936326,0.0015188938300823792
1761316553737775600,9.079775634765625,-0.07171849777698516,-0.001446554679656401,0.0005967055178247391
1761316553747757600,9.089757568359374,-0.0789016872793436,-0.008168063220707698,-0.004896380039700307
1761316553757740500,9.099740478515624,-0.07995148859322071,-0.00882546768351458,-0.005839122516219504
1761316553767722500,9.109722412109376,-0.07680851439237595,-0.0006624002983327955,0.005135531690972857
1761316553777705700,9.119705810546876,-0.07995031954944133,-0.0015559972703456878,0.008674135879590176
1761316553787687400,9.1296875,-0.0709714788019657,0.0023183051460422574,0.0070792313709622245
1761316553797669600,9.139669677734375,-0.07815408378243446,0.0017166037926916033,0.0035682412750553338
1761316553807652600,9.149652587890625,-0.0769581519961357,-0.0015111717479303478,0.0013195627325447276
1761316553817634600,9.159634521484374,-0.08010229524075985,-0.008773600498959422,0.0008425883039832115
1761316553827617500,9.169617431640624,-0.07531739905178546,-0.0013949249571189282,0.0026797634361544623
1761316553837599500,9.179599609375,-0.07666413748562335,0.0011449687840417028,-0.005564337862562388
1761316553847582500,9.18958251953125,-0.07127776827216148,0.005041236437065526,-0.009558636229694821
1761316553857564700,9.199564697265625,-0.07861059537827968,-0.0036406032583676277,-0.0011755100527778267
1761316553867547400,9.20954736328125,-0.08594166891872883,-0.0022330562816932796,0.0013465603373246267
1761316553877529600,9.219529541015625,-0.08264788807034491,0.0026416827483568338,0.007607767023402266
1761316553887512600,9.2295126953125,-0.07351940971910953,-0.0014282244385220109,0.0026960250177886337
1761316553897494500,9.23949462890625,-0.06917875016629696,-0.002681357171619311,-0.0007849032999947666
1761316553907477500,9.2494775390625,-0.07366729375720024,0.0021130100985988975,-0.0009660183208296075
1761316553917459700,9.259459716796876,-0.08025076380074024,-0.00267497309660539,0.006667915190290659
1761316553927441700,9.269441650390625,-0.07262099957466125,-0.0003236059311777353,-0.00008017083043232559
1761316553937424600,9.279424560546875,-0.08594049987494945,-0.0038168822738807646,0.0028823642030125483
1761316553947406600,9.289406494140625,-0.0838473269879818,-0.005477326299389824,0.006542425647098571
1761316553957389600,9.2993896484375,-0.08444470835924148,-0.006906244857655838,-0.0041551560512278225
1761316553967371000,9.30937109375,-0.07397066061794758,-0.00778063480569981,0.0018096797704696655
1761316553977354000,9.31935400390625,-0.08010346428453922,-0.008506391796981915,-0.005796379353036172
1761316553987336000,9.3293359375,-0.08205226026475429,-0.006165902218595146,-0.009924738728883676
1761316553997319000,9.33931884765625,-0.07531973713934421,-0.002956794845825061,-0.010682183199794963
1761316554007301000,9.349301025390625,-0.07801146044135093,-0.0015685462246648966,0.0006787121123168617
1761316554017283800,9.359283935546875,-0.07561725878119469,-0.0041352549075149,0.004861916081095114
1761316554027266000,9.36926611328125,-0.07082943998277187,-0.005578877844568342,-0.003715431193402037
1761316554037249000,9.3792490234375,-0.0790589236676693,-0.0020609237183351068,0.005433738319412805
1761316554047231000,9.38923095703125,-0.07741349454820155,0.004165449116379023,0.0032631756475660946
1761316554057214000,9.3992138671875,-0.07127835279405116,0.007915960756316781,-0.003983434479823336
1761316554067196000,9.40919580078125,-0.06693769324123859,0.0007995254803914577,-0.0015423843035241589
1761316554077178000,9.41917822265625,-0.07262216861844062,-0.0002636285054031759,-0.005251130027812905
1761316554087161000,9.4291611328125,-0.08489186760485172,-0.0056607565748970955,-0.0033081062012584876
1761316554097143000,9.43914306640625,-0.08264847259223461,-0.007884880631463602,-0.006857893937593325
1761316554107126000,9.4491259765625,-0.0796598121702671,-0.00404152134261094,0.004105649787117727
1761316554117108200,9.459108154296874,-0.06724047558009624,-0.0042979711885564025,0.00043250509917270387
1761316554127091000,9.469091064453124,-0.06364858856797218,-0.003944024918042123,0.003536540095694363
1761316554137073200,9.4790732421875,-0.0732248106867075,-0.0007117193327751011,-0.001431617405428551
1761316554147056000,9.48905615234375,-0.07890987058579921,-0.002157369830133393,0.000795653022872284
1761316554157038000,9.4990380859375,-0.07696341269314289,-0.0044705695427954195,0.0009940479720709845
1761316554167021000,9.50902099609375,-0.06903261969387531,-0.0034076621521729974,-0.004579829470394179
1761316554177003000,9.5190029296875,-0.0711287151902914,0.00685961097064428,-0.002980504514975473
1761316554186986000,9.528986083984375,-0.07397241418361664,-0.004288764968793839,-0.009939059515180997
1761316554196968200,9.53896826171875,-0.07621464015245437,-0.0017293262769468127,-0.002519344143476337
1761316554206950000,9.548949951171876,-0.07277297526597976,-0.0036970918191131202,-0.0009032324500381946
1761316554216933000,9.55893310546875,-0.06903086612820625,-0.00510826465813443,0.0017261342394398525
1761316554226914800,9.568914794921875,-0.08234744381904602,-0.0006219952227082104,-0.0023039934928994624
1761316554236898000,9.57889794921875,-0.07022562887072563,0.0014083324279636144,-0.0005231105586513877
1761316554246880000,9.5888798828125,-0.06812953337430953,-0.009448823746247217,-0.009632016559736802
1761316554256863000,9.598863037109375,-0.0795025757819414,-0.002200478319497779,0.0010756481411866843
1761316554266845000,9.608844970703124,-0.07740940289497375,0.0015302052419632673,-0.00014525368958711622
1761316554276828200,9.618828125,-0.08219722169339656,-0.0031337679810822007,0.0039849368837429205
1761316554286809900,9.628809814453126,-0.0830932937502861,-0.000710943014640361,-0.0031617930657463146
1761316554296793000,9.63879296875,-0.08413958793282508,-0.0021324819840490817,-0.004254547605360858
1761316554306775000,9.648775146484375,-0.08174538627266884,-0.007263807857362553,0.005704024894465692
1761316554316758000,9.658758056640625,-0.07560907547473907,-0.00409265787480399,-0.003607358575891703
1761316554326740000,9.668739990234375,-0.0784527744680643,-0.0046749786742497235,-0.0019858537547057494
1761316554336722000,9.678721923828125,-0.07306406716704368,-0.003910378376767039,0.005484696755092591
1761316554346705000,9.688704833984374,-0.07470891176462173,-0.005219113754620776,0.0028356709504965692
1761316554356687000,9.69868701171875,-0.08024550310373306,-0.00355815827245824,0.0057831225792411714
1761316554366669800,9.708669921875,-0.07665478513538837,-0.0009922989729791879,0.00062646590184886
1761316554376652000,9.718652099609375,-0.07051788981556892,-0.00694004666255787,0.005476458649709821
1761316554386635000,9.728635009765625,-0.08009411193430423,0.005923964955192059,0.000007649016915820538
1761316554396617000,9.738616943359375,-0.07725392007231711,-0.0014168536611367016,-0.00008269158108159899
1761316554406600000,9.748599853515625,-0.07201543489694595,0.008554459589254111,0.00009391622799448668
1761316554416582000,9.758581787109375,-0.08159574866890906,-0.0010744699642527848,-0.005208103736839257
1761316554426564900,9.76856494140625,-0.07639116576313972,-0.0008066858735401183,-0.0029218605297617615
1761316554436547000,9.778547119140624,-0.13136311140060425,-0.0015977266533765942,-0.02779781524688005
1761316554446529000,9.788529052734376,-0.15617080492079258,0.011402104105334728,-0.029943270876933818
1761316554456512000,9.798511962890625,-0.21172025818526743,0.007676352447317913,-0.02650481172769796
1761316554466494200,9.808494140625,0.1954179426819086,-0.028803896150039508,0.07198762900799047
1761316554476477000,9.818476806640625,0.24398645101785657,-0.03892379669141956,0.08124777548145502
1761316554486459100,9.828459228515625,-0.36473055324852466,0.002263761947210878,-0.05237571859918534
1761316554496442000,9.838442138671875,-0.15508184064030647,-0.00908560732388869,-0.02060540125845
1761316554506424000,9.848424072265624,-0.05078092368841171,-0.008040619182446971,-0.006966098985844291
1761316554516407000,9.858406982421876,-0.09596914193630218,0.008637580428598447,-0.019280331233725884
