time,seconds_elapsed,z,y,x
1761315739276594400,0.076594482421875,0.050794952213764184,-2.027996065919101,-0.04959573249183595
1761315739286576400,0.086576416015625,-0.12101941204071044,-2.0539907772667703,-0.10478453575037419
1761315739296558300,0.096558349609375,-0.26200959896445275,-2.0457295832693574,-0.16829530501654372
1761315739306541600,0.10654150390625,-0.443155270665884,-1.9969426098771392,-0.17640037687048316
1761315739316523300,0.116523193359375,-0.5915665475010872,-1.9759942221336066,-0.18793589809713884
1761315739326505500,0.12650537109375,-0.7272182960063218,-2.004469059859216,-0.24939784507472065
1761315739336488400,0.136488525390625,-0.9051052581727504,-1.9698393527656792,-0.26359535205224527
1761315739346470400,0.146470458984375,-1.1032459038168192,-2.005206872614473,-0.1352759922617115
1761315739356452400,0.156452392578125,-1.2624760963082313,-2.179306717457622,0.11045532966209574
1761315739366434300,0.166434326171875,-1.394714821499586,-2.242889108921587,0.22207009502500294
1761315739376416500,0.17641650390625,-1.5368629462867975,-2.1635705114044246,0.16019209632612763
1761315739386399200,0.186399169921875,-1.6683306871056556,-2.0530245625831185,0.00013243074063211678
1761315739396381400,0.19638134765625,-2.0550304955780505,-1.9716351501412688,-0.09813514259746298
1761315739406363400,0.20636328125,-2.7132389682441946,-1.8137340142965315,-0.25413534019170325
1761315739416346400,0.216346435546875,-3.468682072737813,-1.4190795935578644,-0.46513986958935855
1761315739426328300,0.226328369140625,-4.075044038310647,-0.8017702636435627,-0.7206794688221067
1761315739436310300,0.236310302734375,-4.462391497036815,-0.20621318520158527,-0.9148154819346964
1761315739446292500,0.24629248046875,-4.601605321937799,0.1834647622987628,-0.9525263500392437
1761315739456275500,0.256275390625,-4.450518103891611,0.42291795380115504,-0.8669104790087789
1761315739466257400,0.26625732421875,-3.935727922078967,0.6331586409531533,-0.71983636906147
1761315739476239400,0.2762392578125,-3.0918314581066366,0.7708432104602455,-0.572757729069516
1761315739486221300,0.28622119140625,-2.064205735680461,0.836553992255032,-0.5432302039531991
1761315739496204300,0.296204345703125,-1.0623451536297797,0.8181848073497414,-0.5713347470616922
1761315739506186500,0.3061865234375,-0.19265315414369105,0.7723524459794163,-0.6088067283764481
1761315739516168400,0.31616845703125,0.5491355190068483,0.7499389541193843,-0.6025039749704301
1761315739526150400,0.326150390625,1.1727134077966213,0.7684535388447343,-0.5766941186703741
1761315739536133400,0.33613330078125,1.7107044324547052,0.7683531472101807,-0.49534416145607824
1761315739546115300,0.346115234375,2.1020020901113745,0.7169380172714591,-0.31806093733645974
1761315739556097300,0.35609716796875,2.3900942248374224,0.6215954828009009,-0.0942673795197159
1761315739566079500,0.36607958984375,2.5277222418516874,0.4448161896154284,0.15303148398175834
1761315739576061400,0.3760615234375,2.5538024395257235,0.23432021252810953,0.37435894394591446
1761315739586044400,0.38604443359375,2.5628730502098795,0.08394640344828366,0.5386482464578002
1761315739596026400,0.3960263671875,2.500683428278565,0.016927461664378644,0.6194559865541756
1761315739606008300,0.40600830078125,2.4280934083640573,0.009289514131844043,0.6530833847373724
1761315739615991300,0.4159912109375,2.263134316831827,0.009413140511512756,0.7296277683008462
1761315739625973500,0.425973388671875,2.0438065062522885,0.03063479223847389,0.7873918288748711
1761315739635955500,0.43595556640625,1.7562497935771941,0.08977320990562439,0.798153534451127
1761315739645937400,0.4459375,1.312453302398324,0.20704817472100256,0.697125574755296
1761315739655919400,0.45591943359375,0.7660808183640241,0.3587219604834914,0.5169516341628506
1761315739665902300,0.46590234375,0.0781868170082569,0.5478922409474849,0.3748074183657765
1761315739675884500,0.475884521484375,-0.7129922022551298,0.7794783523365855,0.2929220756331459
1761315739685866200,0.4858662109375,-1.5351789387226105,1.0508628056287765,0.3430301415612921
1761315739695849500,0.495849365234375,-2.3247499382674692,1.358226042535901,0.5089355009676888
1761315739705831200,0.5058310546875,-2.8244904349863527,1.7330507042974233,0.6394907665841281
1761315739715813400,0.5158134765625,-3.003905337372422,2.113316680330038,0.7139081480562687
1761315739725795300,0.52579541015625,-2.870044563937187,2.292759932027757,0.8401295126542448
1761315739735777300,0.53577734375,-2.417993454632163,2.2820815938860175,1.0792616555087269
1761315739745760500,0.545760498046875,-1.6638310375988483,2.205621454539895,1.1455787326335907
1761315739755742200,0.5557421875,-0.8026607827425003,2.029756645850837,0.9923971726566553
1761315739765724400,0.565724365234375,-0.08470072894692421,1.7068495105922221,0.8174944869980215
1761315739775707400,0.575707275390625,0.456801518702507,1.3811629737481474,0.6414094596870243
1761315739785689300,0.585689453125,0.9192191237211227,1.1353691810473798,0.46981407194547353
1761315739795671600,0.595671630859375,1.264503802743554,0.9398518696442246,0.31438027606233954
1761315739805653200,0.6056533203125,1.530606808501482,0.7470125452786683,0.17699271674044428
1761315739815636500,0.615636474609375,1.6828800214618445,0.603911357550323,0.09156813049837946
1761315739825618200,0.6256181640625,1.7857026825547218,0.510705835108459,0.07019267644919455
1761315739835600400,0.635600341796875,1.8250807532191275,0.4703369998410344,0.02603438577093184
1761315739845582600,0.64558251953125,1.8082716572374105,0.44290714112371204,-0.028229813455976544
1761315739855565300,0.6555654296875,1.6556559144496916,0.4118330806851387,-0.023266418894939123
1761315739865547500,0.665547607421875,1.4422878890573978,0.4117711213648319,-0.007327785604819655
1761315739875529200,0.675529296875,1.2481301755696534,0.4520136999040842,-0.01971307379491627
1761315739885511400,0.685511474609375,1.0544564462065695,0.4609925406515598,-0.10226500894380733
1761315739895493400,0.695493408203125,0.8427887949913739,0.41953269527703524,-0.18328756083464248
1761315739905476400,0.705476318359375,0.6429436835169792,0.37496786962449546,-0.24487560014361515
1761315739915458600,0.71545849609375,0.5452829352319241,0.3569201717585325,-0.3111698626484722
1761315739925440300,0.725440185546875,0.5037596692323685,0.3133382196635008,-0.35294746873527766
1761315739935422500,0.73542236328125,0.506806197321415,0.23593349294364452,-0.4133169625673443
1761315739945405400,0.745405517578125,0.534199231159687,0.1543935661152005,-0.46483398197796194
1761315739955387400,0.755387451171875,0.5882388643831015,0.058358373205363745,-0.5000645045088604
1761315739965369300,0.765369384765625,0.6504407612740993,-0.03099778033196926,-0.5389749211288988
1761315739975351300,0.775351318359375,0.7139683538109064,-0.10528116016089915,-0.5379915726473554
1761315739985334300,0.785334228515625,0.7665344073504209,-0.18037877898216245,-0.5427489597748965
1761315739995316200,0.795316162109375,0.7703542578995227,-0.262775614900887,-0.5172413378244266
1761315740005298400,0.80529833984375,0.7264467271119356,-0.3525131689712405,-0.5025039335502312
1761315740015280400,0.8152802734375,0.6564315261214971,-0.4408864489510655,-0.5325012316027656
1761315740025263400,0.825263427734375,0.5948948151409625,-0.5387263531953096,-0.5222398402314633
1761315740035245300,0.835245361328125,0.5612801303088665,-0.6580573737576604,-0.4418151446359232
1761315740045227300,0.845227294921875,0.5455822104394435,-0.787604960168898,-0.379090867838636
1761315740055209500,0.85520947265625,0.5567623606234788,-0.9082391722843051,-0.3634079263426363
1761315740065192400,0.8651923828125,0.4898913028776645,-1.063076098252833,-0.35589141323268414
1761315740075174400,0.87517431640625,0.3509311604768038,-1.2039771455883979,-0.3929654447384178
1761315740085156400,0.88515625,0.19989947201013564,-1.301567166724801,-0.4603712304154411
1761315740095138300,0.89513818359375,-0.00027881694138050077,-1.3855503950521348,-0.5273023477854207
1761315740105121300,0.905121337890625,-0.2080798558562994,-1.4882351089790462,-0.5784945556884631
1761315740115103500,0.915103515625,-0.4368897805303335,-1.5661162210389972,-0.587180258708261
1761315740125085400,0.92508544921875,-0.6552975536555051,-1.6188398032277822,-0.5684888195786625
1761315740135067400,0.9350673828125,-0.9264502440184355,-1.6350886349782348,-0.5899781823311001
1761315740145050400,0.94505029296875,-1.2175789699614048,-1.6170488281577824,-0.5971623947467655
1761315740155032300,0.9550322265625,-1.4933458761215208,-1.562950304353982,-0.5505989426229149
1761315740165014300,0.96501416015625,-1.804415566331148,-1.5742669403992593,-0.39799284444637595
1761315740174997500,0.97499755859375,-2.052400147074461,-1.7788723981432615,-0.09546396889314054
1761315740184980500,0.98498046875,-2.0506530111461876,-1.9611654863141477,0.12368337055295706
1761315740194962400,0.99496240234375,-1.9337088857203721,-2.047340525597334,0.19561616866774856
1761315740204944400,1.0049443359375,-1.8306559230029582,-2.0748377504624425,0.2152878144737333
1761315740214926600,1.014926513671875,-1.7444354371428488,-2.091032221677154,0.21227197378389537
1761315740224909600,1.02490966796875,-1.71075119420588,-2.051076935646683,0.22421032192409038
1761315740234891500,1.0348916015625,-1.789385754981637,-1.923253542679548,0.1639561250347644
1761315740244873500,1.04487353515625,-2.0835925731956957,-1.643626892351359,0.04152414278239012
1761315740254855400,1.05485546875,-2.4149527717620134,-1.1799283076114953,-0.10863090898022056
1761315740264838400,1.06483837890625,-2.6339158406823873,-0.6393269543245435,-0.25025047984868287
1761315740274820600,1.074820556640625,-2.7446424067676065,-0.19656594367325306,-0.4196580021571368
1761315740284802600,1.084802490234375,-2.8285937786519524,0.1312649117231369,-0.5047238380894065
1761315740294784500,1.094784423828125,-2.9030016616433856,0.33703912098556754,-0.4791361731726676
1761315740304767500,1.104767578125,-2.8463538917481896,0.548351821283251,-0.39845381302163
1761315740314749400,1.11474951171875,-2.6065748292922972,0.7604797834865749,-0.16625198088698087
1761315740324731400,1.1247314453125,-2.183169968757033,0.9653218264654279,0.1990288997206837
1761315740334713300,1.13471337890625,-1.50962890240252,1.149889143178612,0.5139613297730684
1761315740344696600,1.144696533203125,-0.7930980046272277,1.2352934903502464,0.7222848581921308
1761315740354678300,1.15467822265625,-0.14082593627274034,1.2081336807459593,0.8463513097785412
1761315740364660500,1.164660400390625,0.46206338475346564,1.1076968918763102,0.9588375059474259
1761315740374642400,1.174642333984375,0.9886948110073804,1.0281943160943687,0.9815775263480842
1761315740384625400,1.18462548828125,1.3798077597469092,0.9619131870657205,0.8826291494052857
1761315740394607600,1.194607666015625,1.5792600725114345,0.8960985065050423,0.7307059919916092
1761315740404589300,1.20458935546875,1.726391246408224,0.8320508356168865,0.5286633704729378
1761315740414571500,1.214571533203125,1.7907254791527984,0.7655328290924429,0.3214806826520711
1761315740424554200,1.22455419921875,1.7580320008188486,0.6577686199441551,0.03274491626024246
1761315740434536400,1.234536376953125,1.6513871510893106,0.5265466705799102,-0.3264063024859875
1761315740444518700,1.2445185546875,1.4819173041343687,0.4443631851509213,-0.6294902546387166
1761315740454500400,1.254500244140625,1.2396014166772364,0.4210550825387239,-0.9281321326907723
1761315740464483600,1.264483642578125,0.9679676647990941,0.4575859470784664,-1.1700050256207584
1761315740474465300,1.27446533203125,0.5846703582465649,0.5640998639047146,-1.2618401364922522
1761315740484447500,1.284447509765625,0.1783382130652666,0.7436834008559584,-1.1642661897078155
1761315740494429400,1.294429443359375,-0.20330080488622188,1.0092308185577392,-0.9038406450644135
1761315740504412400,1.304412353515625,-0.41762393904626366,1.2697539783567189,-0.5906883033618331
1761315740514394600,1.31439453125,-0.4303197544902563,1.485484348966181,-0.21541151391863822
1761315740524376300,1.324376220703125,-0.21019114892184734,1.6656138293623923,0.1560272317316383
1761315740534358500,1.334358642578125,0.2021761847704649,1.7549080235794186,0.460709120600298
1761315740544341500,1.344341552734375,0.6459574783802032,1.7093275911435484,0.6872598681706935
1761315740554323500,1.354323486328125,1.0375076494932174,1.5387237717226148,0.8190149745635688
1761315740564305700,1.3643056640625,1.373672033470869,1.3371747789397834,0.8732177624594419
1761315740574287400,1.374287353515625,1.6538883202552794,1.1529761494085191,0.8518561908051371
1761315740584269600,1.38426953125,1.8432529542475937,0.9913371422097086,0.7410377817180007
1761315740594252300,1.394252197265625,1.9160919804871082,0.8391562837079167,0.6003511077854782
1761315740604234500,1.404234375,1.9200433484613895,0.69757748324126,0.46826976511292157
1761315740614216400,1.414216552734375,1.8808944103777407,0.5831251746311783,0.34716135961450634
1761315740624198400,1.424198486328125,1.767346941652894,0.4772586157977581,0.2549960669405758
1761315740634181400,1.434181396484375,1.5995885747909544,0.37814416157305236,0.1407465874262154
1761315740644163300,1.444163330078125,1.4895990908086298,0.2823158894121647,0.06674706603996455
1761315740654145500,1.4541455078125,1.4790975705385208,0.1800955781266093,0.011486220458522439
1761315740664127200,1.464127197265625,1.4934867458969354,0.04615063353925943,-0.025887670776620506
1761315740674110500,1.4741103515625,1.457936709088087,-0.07587970910966396,-0.05159428589791059
1761315740684092400,1.484092529296875,1.3662024282425642,-0.17878332648426293,-0.0732727414816618
1761315740694074400,1.494074462890625,1.2320236748993396,-0.25461335123330353,-0.11884988598190248
1761315740704056600,1.504056640625,1.110931782144308,-0.32287557107657194,-0.12136113815046846
1761315740714039600,1.51403955078125,0.9971826533675193,-0.4043228511855006,-0.06551810876689851
1761315740724021500,1.524021484375,0.9557792143553495,-0.47092736694961784,-0.004641542195528745
1761315740734003500,1.53400341796875,0.9635884268015622,-0.5596629043705761,0.07540591758545488
1761315740743985400,1.5439853515625,0.9566799625873565,-0.6863656227447092,0.15708532594982533
1761315740753968400,1.553968505859375,0.9664426471889018,-0.8006849526248871,0.2445894218796864
1761315740763950300,1.563950439453125,0.9458388350993394,-0.9323224970526993,0.3497384800935164
1761315740773932500,1.5739326171875,0.8823895684957503,-1.1080813611492515,0.4159629835641011
1761315740783914500,1.58391455078125,0.8656734114944934,-1.311447924748063,0.49490723134353753
1761315740793897500,1.5938974609375,0.822053465476632,-1.5161194334655999,0.5531988959882408
1761315740803879400,1.60387939453125,0.6955722808986902,-1.695497510972619,0.6087422848381102
1761315740813861400,1.613861328125,0.5188531934678554,-1.8520717821277677,0.67988086383529
1761315740823843600,1.623843505859375,0.2903279309540987,-1.9888363141804932,0.7647943587500602
1761315740833826600,1.63382666015625,-0.08741875573396682,-2.0955169658757744,0.8211268521510064
1761315740843808500,1.64380859375,-0.5518015233457089,-2.1446701422318815,0.8409588030852377
1761315740853790500,1.65379052734375,-1.0363304224073886,-2.151482598725706,0.8168154917579143
1761315740863772400,1.6637724609375,-1.5503314996689557,-2.139654067635536,0.8253112982288002
1761315740873755400,1.67375537109375,-2.037553875598311,-2.0862645688839256,0.8106197789229452
1761315740883737600,1.683737548828125,-2.4552310061365366,-1.9514364117212593,0.7700289714679122
1761315740893719600,1.693719482421875,-2.786508787116408,-1.7534277218937873,0.7554577175408601
1761315740903701500,1.703701416015625,-3.0292157197177407,-1.607367538229376,0.8090773717865347
1761315740913683500,1.713683349609375,-3.1606746927082536,-1.686332500003278,1.0508742038056254
1761315740923666400,1.72366650390625,-3.074169544687867,-1.9249609311193228,1.4286173833623528
1761315740933648400,1.7336484375,-2.7873510831594466,-2.0638955006875097,1.66669987103343
1761315740943630300,1.74363037109375,-2.5061276651591062,-2.080445507341623,1.6939955819770693
1761315740953612500,1.753612548828125,-2.3247610441833735,-2.0768319930195807,1.6512551952727137
1761315740963595300,1.76359521484375,-2.326813300538063,-1.9935570590920746,1.5579701778538524
1761315740973577500,1.773577392578125,-2.5113614741593597,-1.7552964383751153,1.3471098974987863
1761315740983559400,1.783559326171875,-2.971344545507431,-1.3980778681918977,1.0783527970355002
1761315740993541400,1.793541259765625,-3.5369963150292634,-0.9337878934301436,0.8614996329411864
1761315741003524600,1.803524658203125,-3.9878701972484585,-0.47866994390040635,0.7765401069276034
1761315741013506300,1.81350634765625,-4.1958179511576885,-0.13703078177347777,0.8992631080158054
1761315741023488500,1.823488525390625,-4.128874412697553,0.1412063138924539,1.094085569022596
1761315741033470500,1.833470458984375,-3.7221219962775707,0.47871875147819515,1.252438540288061
1761315741043453400,1.843453369140625,-3.0013457160174846,0.8020372440166771,1.339684131412208
1761315741053435600,1.853435546875,-2.0484166303962468,1.0443711055219174,1.3781000790461897
1761315741063417300,1.863417236328125,-1.109767999061942,1.1574290371641516,1.3598174033805728
1761315741073399600,1.873399658203125,-0.3220113554626703,1.1746724329099059,1.3026621223546564
1761315741083382300,1.88338232421875,0.29913141513466834,1.1433768386751413,1.241430385670066
1761315741093364500,1.893364501953125,0.7897551239401102,1.083786585587263,1.2833217543296516
1761315741103346400,1.903346435546875,1.1541799722403288,1.0241337886571884,1.3931860044971107
1761315741113328400,1.913328369140625,1.4279355385780335,0.9352148574933409,1.4795897379696368
1761315741123311600,1.9233115234375,1.5698440093904733,0.8470914606213569,1.5806893746621906
1761315741133293300,1.933293212890625,1.6423679783314467,0.8075771963566541,1.6096340218566356
1761315741143275500,1.943275634765625,1.5963959162294863,0.8215373326480389,1.6291817490220069
1761315741153257500,1.953257568359375,1.4909820695996283,0.8328361407756805,1.6584456912986933
1761315741163239400,1.963239501953125,1.3352759595811365,0.880338773445785,1.701847756782174
1761315741173222700,1.97322265625,1.1419792468369006,1.0343766579911111,1.7167365522257982
1761315741183204400,1.983204345703125,0.8162824808597564,1.240422962193191,1.6581404247418046
1761315741193186300,1.993186279296875,0.4187953209131956,1.413062963616848,1.5721858963415025
1761315741203168500,2.00316845703125,0.0598223082780838,1.5993874992609023,1.4728526847995818
1761315741213151200,2.013151123046875,-0.26421032387912274,1.786888677468896,1.484740544861555
1761315741223133400,2.023133544921875,-0.6129834295392036,1.9553227516353129,1.5645289518475531
1761315741233115400,2.033115478515625,-0.9447247363775968,2.147161082264781,1.6722656884670257
1761315741243097300,2.043097412109375,-1.1710662251114845,2.370772853773832,1.7702870867580174
1761315741253080300,2.053080322265625,-1.237401860806346,2.586439219236374,1.8647410018257795
1761315741263062300,2.063062255859375,-1.0610475150346754,2.7797549289420247,1.9586371368803084
1761315741273044200,2.073044189453125,-0.6698515641868114,2.8673008181869983,2.0177304002314806
1761315741283026200,2.083026123046875,-0.16259294692277906,2.828850968283415,2.0478741940826177
1761315741293009400,2.093009521484375,0.35441724902689453,2.6932874825835227,2.0219426110990346
1761315741302991400,2.102991455078125,0.8601111011922359,2.561080029313266,1.8959417573839425
1761315741312973300,2.112973388671875,1.3311848908752202,2.40227683006227,1.763217879024148
1761315741322955300,2.122955322265625,1.7025871769726275,2.249282609350979,1.6364821351632475
1761315741332938500,2.1329384765625,2.022265121051669,2.065288562481105,1.5180854728415607
1761315741342920200,2.142920166015625,2.254016359874606,1.849369391301274,1.4148453169889748
1761315741352902400,2.15290234375,2.379104628789425,1.6305816789478063,1.3014455861717462
1761315741362884400,2.16288427734375,2.366472526231408,1.4219316219881175,1.1807556252811104
1761315741372866300,2.1728662109375,2.2757746026962993,1.2476564205780625,1.1273135926246642
1761315741382849300,2.182849365234375,2.149461760422587,1.120238539671898,1.1209409888528288
1761315741392831200,2.192831298828125,1.9459972894072533,1.0190905337929725,1.119560348149389
1761315741402813400,2.2028134765625,1.6818594462424517,0.9418483041584491,1.128583320299536
1761315741412795400,2.21279541015625,1.3145628418982027,0.8663745455011725,1.0715374909974633
1761315741422778400,2.2227783203125,0.8795978919506072,0.7733151535317301,0.9704214876919984
1761315741432760300,2.23276025390625,0.45377018818259235,0.7170812251344323,0.8587945387009531
1761315741442742300,2.2427421875,0.06605506518781185,0.6511994706869125,0.7031335099332034
1761315741452724200,2.25272412109375,-0.26960721448659897,0.5683610284805297,0.5660773745227605
1761315741462707200,2.262707275390625,-0.527272646766901,0.4292302056878805,0.45847076708897944
1761315741472689400,2.272689453125,-0.7206137831747531,0.2794493940651417,0.3551447595838457
1761315741482671400,2.28267138671875,-0.8793810343295335,0.09140987119674682,0.2508940384492278
1761315741492653300,2.2926533203125,-1.0174825140744448,-0.07218962242007256,0.1466503315772861
1761315741502636500,2.302636474609375,-1.1274667373597622,-0.22713848433047532,0.07480166808199137
1761315741512618200,2.3126181640625,-1.2780278857052325,-0.3591661971196532,0.013854191698879003
1761315741522600400,2.322600341796875,-1.4205518580675125,-0.45306262443512674,-0.057443888708949085
1761315741532582400,2.33258251953125,-1.5250141030609607,-0.5094876914903521,-0.12386285530570894
1761315741542565400,2.3425654296875,-1.6291022540450095,-0.5733218657582998,-0.18562029636483637
1761315741552547300,2.35254736328125,-1.693112077140808,-0.6383773985147476,-0.2341977551922202
1761315741562529300,2.362529296875,-1.713689001223445,-0.6894596432372927,-0.29175259346235544
1761315741572511500,2.372511474609375,-1.6378882025688886,-0.7278855277433991,-0.34955610926393416
1761315741582493200,2.3824931640625,-1.4992758506923913,-0.7405085702121257,-0.38054720412679016
1761315741592476400,2.392476318359375,-1.3901193104028702,-0.7597650593459606,-0.38795981847085054
1761315741602458000,2.4024580078125,-1.298340605893731,-0.8438269058674573,-0.28170820584259926
1761315741612440300,2.4124404296875,-1.1701058556467294,-1.1438628686264156,0.015782858206517994
1761315741622422300,2.42242236328125,-0.9984691860467195,-1.5204261907488106,0.25045232256371525
1761315741632405200,2.4324052734375,-0.8132008814573287,-1.7509782829150558,0.2400031718016602
1761315741642387500,2.442387451171875,-0.7328922499895095,-1.9069635021358726,-0.057328847494535144
1761315741652369200,2.452369140625,-0.8042863381177187,-2.058953514240682,-0.5046568372678011
1761315741662351400,2.462351318359375,-1.0973112530708313,-2.0937147387593984,-0.9471152117107063
1761315741672334300,2.472334228515625,-1.6220307082235812,-1.8536174041345714,-1.2651328944273292
1761315741682316300,2.48231640625,-2.3267390662580727,-1.3228253510698675,-1.4490397014051675
1761315741692298500,2.492298583984375,-2.932195607423782,-0.638427082875371,-1.502692235007137
1761315741702280200,2.5022802734375,-3.348099298548698,0.012788169902563094,-1.3252853114426135
1761315741712263400,2.512263427734375,-3.4902135210663077,0.5630716899007558,-0.9368263843432069
1761315741722245000,2.5222451171875,-3.4055817657023666,0.9612553076788782,-0.4721171612560749
1761315741732227300,2.532227294921875,-3.1156630000710486,1.2185638893455266,-0.13450488002505154
1761315741742209500,2.54220947265625,-2.6676702262461185,1.3735273643031716,0.09360231234026141
1761315741752191200,2.552191162109375,-2.1208885768890378,1.486657776659727,0.16652056869529186
1761315741762174500,2.562174560546875,-1.5134388160794972,1.5216837895944713,0.068876899409201
1761315741772156200,2.57215625,-0.9422674063533544,1.516803616337478,-0.07465696238167584
1761315741782138400,2.582138427734375,-0.4337666800737381,1.4742892934739589,-0.1724858703078702
1761315741792120300,2.592120361328125,0.03714753513336182,1.4228195107385515,-0.26873993013277647
1761315741802103300,2.602103271484375,0.41922435998022556,1.3984993084743618,-0.4042592478973791
1761315741812085500,2.61208544921875,0.6813385883629322,1.379099319216609,-0.5872916831934825
1761315741822067200,2.622067138671875,0.8297218081474304,1.379067462773621,-0.8168374113287776
1761315741832049400,2.63204931640625,0.8910662114262581,1.408469206085801,-1.0761702653646468
1761315741842032400,2.642032470703125,0.9129343443632125,1.4425982701808213,-1.348291946890205
1761315741852014300,2.652014404296875,0.8571265324234962,1.4106582405626773,-1.703201801739633
1761315741861996300,2.661996337890625,0.7535626975744962,1.298503102979064,-2.1022212858200073
1761315741871978200,2.671978271484375,0.6521002189189196,1.1862889286845921,-2.481942487451434
1761315741881961500,2.68196142578125,0.5642699597746134,1.0859887718066572,-2.7795985693365335
1761315741891943200,2.691943115234375,0.4485585910141468,0.9804843242838979,-2.9863655890285967
1761315741901925400,2.70192529296875,0.3260521552860737,0.90267218580693,-3.1225431149736047
1761315741911907300,2.7119072265625,0.22694354628026484,0.9511185290679335,-3.099289665158093
1761315741921889300,2.72188916015625,0.19691841037273405,1.1175251890599727,-2.937397559981048
1761315741931872300,2.731872314453125,0.3215104202032089,1.3253916944265365,-2.7255934229046104
1761315741941854200,2.741854248046875,0.5256365699976683,1.4941601151138544,-2.304905127851665
1761315741951836400,2.75183642578125,0.8350701834380626,1.6481994609639048,-1.8443321277864275
1761315741961818000,2.761818115234375,1.2242191386282444,1.7507815912991762,-1.415194130426645
1761315741971801300,2.77180126953125,1.5908359440147877,1.7760928504273295,-1.0993711082100868
1761315741981783300,2.781783203125,1.9282436060518025,1.69334150198251,-0.8546871033821255
1761315741991765200,2.79176513671875,2.218148343157768,1.5209259569644926,-0.642713528022915
1761315742001747500,2.80174755859375,2.488577979943156,1.3445961611121893,-0.5048783345313742
1761315742011730400,2.81173046875,2.6991157503455874,1.202126841546595,-0.4543091904301196
1761315742021712400,2.82171240234375,2.8686212531358004,1.0320897160977125,-0.4080255416283384
1761315742031694300,2.8316943359375,3.029592151814699,0.8526260061338543,-0.3596494505919516
1761315742041676300,2.84167626953125,3.089371205472946,0.6606380379006266,-0.3113463151939213
1761315742051659300,2.8516591796875,3.037846769940853,0.4609527931630611,-0.248130893878825
1761315742061641200,2.86164111328125,2.8984160874187945,0.30360943733155726,-0.14588902834858744
1761315742071623400,2.87162353515625,2.72149124828279,0.24184476281404493,-0.12522676407005637
1761315742081605400,2.88160546875,2.575246794092655,0.1563768488869071,-0.12190693546496331
1761315742091588400,2.89158837890625,2.3507120625197886,0.012501169654726982,-0.10265241909250616
1761315742101570300,2.9015703125,2.0238725562483073,-0.16377426566183567,-0.04048926504300907
1761315742111552300,2.91155224609375,1.6822995912253855,-0.27701486039459705,0.11398324805991723
1761315742121534500,2.921534423828125,1.3655822505176067,-0.3243091110110283,0.35675767467319963
1761315742131516200,2.93151611328125,1.0513315921843052,-0.29759879873991013,0.562368911926262
1761315742141499400,2.94149951171875,0.7451093420058489,-0.2531087918892503,0.7835312809891999
1761315742151481300,2.9514814453125,0.3892530000865459,-0.26575989140868184,1.004439419562742
1761315742161463300,2.96146337890625,0.03795709795057774,-0.3327905236303806,1.204326908874139
1761315742171445200,2.9714453125,-0.2339291673839092,-0.38976621030569075,1.3654837585791946
1761315742181427700,2.981427734375,-0.4250339230418205,-0.48793227776438,1.52108027074337
1761315742191410000,2.991409912109375,-0.5103448928415775,-0.6227667185373604,1.6365936327137052
1761315742201391600,3.0013916015625,-0.5137181686669587,-0.796965493710339,1.6747276946663856
1761315742211373800,3.011373779296875,-0.5440127691656351,-1.0324566497139631,1.650853628734499
1761315742221356500,3.0213564453125,-0.6458183621704578,-1.264221040279418,1.6469585209921
1761315742231338800,3.0313388671875,-0.7245370940983294,-1.4601120073005556,1.630688646453619
1761315742241321000,3.041321044921875,-0.7627677482932805,-1.5955067123048006,1.5847529708392918
1761315742251302700,3.051302734375,-0.7258072601646185,-1.7165939288847147,1.5749581375338135
1761315742261286000,3.061285888671875,-0.6768120508491993,-1.868753452337533,1.628325424453616
1761315742271267600,3.071267578125,-0.6750234138667583,-2.008472304151207,1.712676024788618
1761315742281249800,3.081249755859375,-0.7583546080261468,-2.137728068009019,1.777624590039253
1761315742291231700,3.091231689453125,-0.9058470164507627,-2.217355731475353,1.785148263542354
1761315742301213700,3.101213623046875,-1.056182539346814,-2.248504464585334,1.7290145806491375
1761315742311197000,3.111197021484375,-1.2578724019050598,-2.231524249820411,1.660124730426818
1761315742321178600,3.1211787109375,-1.4518074125528335,-2.1746873870939014,1.5818164789959788
1761315742331160800,3.131160888671875,-1.6094073734939098,-2.0691865928329527,1.529494024953991
1761315742341142500,3.141142578125,-1.7242366987228392,-1.9171873745083807,1.4576051390461622
1761315742351125800,3.151125732421875,-1.919976712965965,-1.7606537276245653,1.3940347302809357
1761315742361107700,3.161107666015625,-2.0871447127193212,-1.5879086583912372,1.2921715618699787
1761315742371089700,3.171089599609375,-2.2791297583431005,-1.4289495379261672,1.1953961450520902
1761315742381072000,3.18107177734375,-2.4734371094346046,-1.2602986061386763,1.1081884747855364
1761315742391054600,3.1910546875,-2.6524679809391496,-1.2467854829624294,1.2057977851442991
1761315742401036800,3.201036865234375,-2.5148352877497673,-1.4146419033713638,1.482881911382824
1761315742411018800,3.211018798828125,-2.0787696830838915,-1.5267663535557687,1.6757241583578288
1761315742421000700,3.221000732421875,-1.5686948393553495,-1.6056462673947214,1.7064299700058996
1761315742430983700,3.230983642578125,-1.244995969197154,-1.705046991214901,1.688857634566724
1761315742440965600,3.240965576171875,-1.144923483595252,-1.7308461799904704,1.6042055670671165
1761315742450947800,3.25094775390625,-1.260924775213003,-1.5510696046851575,1.3323511581756173
1761315742460929500,3.260929443359375,-1.691573615527153,-1.1279970448441803,0.8950837034393101
1761315742470911700,3.270911865234375,-2.4423849685668944,-0.583329172770679,0.43902076467704026
1761315742480894700,3.280894775390625,-3.2206367017179724,-0.010967384216189384,0.10265968908350914
1761315742490876700,3.290876708984375,-3.623995968568325,0.5572971981525421,-0.07317848732694983
1761315742500859000,3.30085888671875,-3.7923996475964783,1.0334303170517087,-0.07591174821574241
1761315742510840600,3.310840576171875,-3.637914603805542,1.5494687453597784,0.00983834365364164
1761315742520823800,3.32082373046875,-3.169691527378559,1.9468664734572172,0.07112360062375664
1761315742530805800,3.3308056640625,-2.4549644641548394,2.239914769285917,0.18678042618539184
1761315742540787700,3.34078759765625,-1.6193015755206346,2.401480711248517,0.38337106590848413
1761315742550770000,3.35077001953125,-0.8373176701039076,2.3922949497520922,0.4987452751364559
1761315742560752600,3.360752685546875,-0.15356208372712135,2.2393492443576455,0.4857581485956907
1761315742570734800,3.37073486328125,0.41885669571161266,1.97219702180773,0.41233927664160724
1761315742580716800,3.380716796875,0.9096727122187613,1.6876783616542814,0.313651596461609
1761315742590698800,3.39069873046875,1.3548714714109897,1.4856129437819123,0.1855041591718793
1761315742600681700,3.400681640625,1.6258499742507933,1.332073071886599,0.020017901960387826
1761315742610663700,3.41066357421875,1.702802281028032,1.179347731244564,-0.09361293419897555
1761315742620646000,3.42064599609375,1.5991642118990421,1.095696219089627,-0.19690496636927127
1761315742630627600,3.430627685546875,1.280966277244687,1.1236489326372743,-0.3579610591135919
1761315742640609800,3.44060986328125,0.8560597799748182,1.258716743774712,-0.5668359378051012
1761315742650592800,3.4505927734375,0.4944236856102943,1.4159639457553623,-0.697230934825912
1761315742660574700,3.46057470703125,0.28181086249947546,1.5293319662600755,-0.7244790072355419
1761315742670556700,3.470556640625,0.19819617522358893,1.6057318998515604,-0.6787987676870078
1761315742680538600,3.48053857421875,0.1683475649267435,1.699240496893227,-0.5917287157928571
1761315742690521600,3.490521484375,0.17884908519685266,1.7656456906929612,-0.5031651008727028
1761315742700503800,3.50050390625,0.19815233608186245,1.7729104209989308,-0.4192702084159478
1761315742710485800,3.51048583984375,0.1992559134095907,1.7254636101692913,-0.30168997704368083
1761315742720467700,3.5204677734375,0.2234896064341068,1.6649191250964999,-0.21470110062696038
1761315742730450700,3.53045068359375,0.3018856822788715,1.615721671207249,-0.12644629592765122
1761315742740432600,3.5404326171875,0.3930366102784872,1.5587117900013923,-0.055696022128313774
1761315742750414800,3.550414794921875,0.5022551098883151,1.4987930356115102,-0.06561747748814523
1761315742760396800,3.560396728515625,0.6858358997821807,1.408928055769205,-0.12349435078687965
1761315742770379800,3.5703798828125,0.9046505001425743,1.3024281674683094,-0.1717487882049754
1761315742780361700,3.58036181640625,1.0875813016951084,1.0807684068098664,-0.12436335217375308
1761315742790343700,3.59034375,1.2327572498708963,0.8444412383735179,-0.10993950736075639
1761315742800325600,3.60032568359375,1.3362240540862083,0.6685109632328152,-0.17847988655827937
1761315742810307800,3.610307861328125,1.5104220986068249,0.5529045161515475,-0.25575846614781766
1761315742820290800,3.620290771484375,1.7854326334416866,0.5165659593135118,-0.2159636679086834
1761315742830272800,3.630272705078125,2.067144711741805,0.47378246411979197,-0.09061689418815076
1761315742840254700,3.640254638671875,2.2935984286785125,0.41178164275884627,0.030810331468470394
1761315742850236700,3.650236572265625,2.424722470626235,0.32265549858510495,0.11737236077524721
1761315742860219600,3.6602197265625,2.4447101966440674,0.2518257663413882,0.19648754467479884
1761315742870201900,3.670201904296875,2.3509733438044784,0.1731184325903654,0.29905480623450126
1761315742880183800,3.680183837890625,2.120412776070833,0.09597761750370264,0.41373445732705294
1761315742890165800,3.690165771484375,1.7800579546660185,0.019527707290649413,0.5019287640107796
1761315742900148700,3.700148681640625,1.4435013565003871,-0.0313444018125534,0.5838655446697026
1761315742910130700,3.710130615234375,1.1601900263100862,-0.03653934010714292,0.668573945466429
1761315742920113000,3.72011279296875,0.9231383429914712,-0.06330664326250553,0.7887466044846921
1761315742930094600,3.730094482421875,0.7074345681279898,-0.13840893825888634,0.9322311655074358
1761315742940077800,3.740077880859375,0.5275806898027658,-0.19998072055280208,1.082056108532846
1761315742950059800,3.750059814453125,0.37689971446990966,-0.283631940446794,1.261001639841497
1761315742960041700,3.760041748046875,0.24733283883631227,-0.3760346220731735,1.4497989953398704
1761315742970023700,3.770023681640625,0.1555944663375616,-0.4806181553587317,1.5823438638709484
1761315742980005600,3.780005615234375,0.07419453250169754,-0.6164817930489778,1.690479536680132
1761315742989988900,3.78998876953125,-0.030475217762589452,-0.7856283993989229,1.6622335392743348
1761315742999970600,3.799970458984375,-0.1467804607629776,-0.9574626373976468,1.5410371632315218
1761315743009952800,3.809952880859375,-0.3166191410303116,-1.0935521927982568,1.370529351530969
1761315743019934700,3.819934814453125,-0.5251929178833962,-1.187438098719716,1.227183249130845
1761315743029917700,3.829917724609375,-0.7786532996892929,-1.1740262439608573,1.071679456751421
1761315743039900000,3.83989990234375,-1.0522668272078037,-1.0683283196926117,0.908563874194026
1761315743049881600,3.849881591796875,-1.3786340397924184,-0.9634592474639415,0.71515763666071
1761315743059863800,3.85986376953125,-1.7252169419318437,-0.9012357232630253,0.5263779264168813
1761315743069846500,3.869846435546875,-2.1010136635959147,-0.8318328089520335,0.3546980021970346
1761315743079828700,3.879828857421875,-2.485565938645601,-0.721677028492093,0.23248813826274126
1761315743089811000,3.88981103515625,-2.8631612341642376,-0.6745283238261938,0.3169501996155828
1761315743099792600,3.899792724609375,-2.9945687692284584,-0.8013327490091323,0.613150237473473
1761315743109776000,3.90977587890625,-2.81567409132421,-0.979704572083056,0.8291409395195544
1761315743119757600,3.919757568359375,-2.4163100315898656,-0.9947001889020204,0.7490612945020199
1761315743129739800,3.92973974609375,-1.9963988583892582,-0.9021279959276318,0.4510719620745629
1761315743139721700,3.9397216796875,-1.7488012311369179,-0.8341790798172354,0.09531352757178246
1761315743149703700,3.94970361328125,-1.7898060262203215,-0.8177548914998769,-0.20074021541690454
1761315743159687000,3.95968701171875,-2.012124835309386,-0.7028872800871729,-0.47542234028130764
1761315743169668600,3.969668701171875,-2.300833640629053,-0.48120618437975643,-0.7269282270185649
1761315743179650800,3.97965087890625,-2.589790283229947,-0.2195867537766695,-0.8785160149980336
1761315743189632800,3.9896328125,-2.8189672876507044,0.02637275087982416,-0.9136135587990284
1761315743199615700,3.99961572265625,-2.8482448200613257,0.2651397136837244,-0.9566365618370473
1761315743209598000,4.009597900390625,-2.6412393154382703,0.45271424938887356,-1.0513782078050076
1761315743219579600,4.01957958984375,-2.1760843944102524,0.6732049662679433,-1.2290373525649307
1761315743229561900,4.029561767578125,-1.6044026970744132,0.9110749802321195,-1.4824270072221755
1761315743239544600,4.039544677734375,-1.1532751323550938,1.0499912834912537,-1.7257659541167318
1761315743249526800,4.04952685546875,-0.8906284045308828,1.0943401283055543,-1.8528049187079072
1761315743259508700,4.0595087890625,-0.8325549857467412,1.0669544009909033,-1.828534839195758
1761315743269490700,4.06949072265625,-0.9947978040575981,1.0566226843297482,-1.6444279796011745
1761315743279473000,4.079472900390625,-1.1573229464411734,1.1781561833724379,-1.432878547938168
1761315743289455600,4.08945556640625,-1.2539923456013202,1.435927414114773,-1.3027384024612605
1761315743299437800,4.099437744140625,-1.2146253808528185,1.6943576932877302,-1.2901013314671814
1761315743309419500,4.10941943359375,-1.0524152957677841,1.7955837328389286,-1.3295071669213474
1761315743319401700,4.119401611328125,-0.7697258968681097,1.7572955032378434,-1.3638804150357842
1761315743329384700,4.129384765625,-0.33913317065536974,1.6172729923024773,-1.4274015778318048
1761315743339366700,4.13936669921875,0.15327917513251305,1.4463497316688299,-1.5505197157174349
1761315743349348900,4.149348876953125,0.6280021349728107,1.2839108062639832,-1.7392305619761346
1761315743359330600,4.15933056640625,1.0831167235016823,1.1512915573224425,-1.9415975931435823
1761315743369313800,4.169313720703125,1.4294202241778373,1.0465440656468272,-2.083300896772742
1761315743379295700,4.179295654296875,1.6901608261197805,0.996821418839693,-2.16089880797714
1761315743389277700,4.189277587890625,1.8674550830900667,1.0153276741281152,-2.1572166123330594
1761315743399260000,4.199260009765625,1.9244599958598612,1.0562664182379842,-2.0538550220578906
1761315743409241600,4.20924169921875,1.8746540546834467,1.1128332318514584,-1.8139745450541376
1761315743419224800,4.219224853515625,1.7352859160035847,1.1959674421340227,-1.5248805398091674
1761315743429206800,4.229206787109375,1.588099212527275,1.2643161712169646,-1.2395642995372413
1761315743439188700,4.239188720703125,1.5005132835328578,1.2955813703134655,-1.021689245049283
1761315743449171000,4.2491708984375,1.5170008924752474,1.2925567617952822,-0.8956549274560064
1761315743459153700,4.259153564453125,1.5878239027172325,1.2248998143687844,-0.8324472875885665
1761315743469136000,4.269135986328125,1.7139549586832523,1.112041496951878,-0.7285296708658338
1761315743479117600,4.27911767578125,1.849949821537733,0.9889476167246699,-0.552691604053229
1761315743489099800,4.289099853515625,1.976389505061507,0.8953130552157759,-0.388585183827579
1761315743499082800,4.299082763671875,2.0954782413005826,0.8073477715149522,-0.21290932183936237
1761315743509064700,4.309064697265625,2.151467839547992,0.7100260459259152,-0.06657295158207416
1761315743519046700,4.319046630859375,2.144479295834899,0.5893327970996499,0.03291442760825157
1761315743529028600,4.329028564453125,1.9961504365861416,0.4899567693293094,0.08578114459477365
1761315743539011800,4.33901171875,1.7380477819323539,0.4058727109760046,0.06785568486899136
1761315743548993800,4.348993896484375,1.4571090260922908,0.3295458426207304,0.062205769348517057
1761315743558975700,4.358975830078125,1.2105161919683218,0.26487550978958607,0.05973557984270155
1761315743568957700,4.368957763671875,1.0036737689524888,0.1914361795693636,0.057450099254027005
1761315743578939600,4.378939697265625,0.8351315582364797,0.12136632578223942,0.05481953155472874
1761315743588922600,4.388922607421875,0.6303823081076145,0.06639759501516819,0.016201704673096538
1761315743598904800,4.39890478515625,0.4570493559837341,-0.00041647184640169143,-0.061822322988882655
1761315743608886800,4.40888671875,0.3083341277658939,-0.0615147914096713,-0.11480170656964182
1761315743618868700,4.41886865234375,0.1710755285859108,-0.12175006440281867,-0.1680290004968643
1761315743628851700,4.428851806640625,0.039462826338410376,-0.19331074126958847,-0.24236316066496072
1761315743638833700,4.438833740234375,-0.04763853400945663,-0.2567436412602663,-0.2847944814201444
1761315743648815600,4.448815673828125,-0.08205810548365115,-0.3315396467864513,-0.29894590249992903
1761315743658797800,4.4587978515625,-0.09318272608816623,-0.42470483721792696,-0.3111787766072899
1761315743668780800,4.46878076171875,-0.07736614827513694,-0.507464368969202,-0.29144919006898995
1761315743678762800,4.4787626953125,-0.03958849854469299,-0.584614244145155,-0.27610001057200134
1761315743688744700,4.48874462890625,0.03402443467676639,-0.6557312688976525,-0.2663205940313637
1761315743698726700,4.4987265625,0.1101595798522234,-0.7497852248623966,-0.2482712887302041
1761315743708708900,4.508708984375,0.1958966661095619,-0.8908549067631364,-0.21513949204422533
1761315743718691800,4.51869189453125,0.2905804444104433,-1.0593971174791454,-0.2111659122381359
1761315743728673800,4.528673828125,0.4036415909230709,-1.2400807246267795,-0.19987879454828797
1761315743738655700,4.53865576171875,0.5184066187441349,-1.388907304264605,-0.20826807190477847
1761315743748637700,4.5486376953125,0.5909931315273046,-1.5161074507668613,-0.195879714974761
1761315743758620700,4.55862060546875,0.5675304228752851,-1.622719275009632,-0.1543124271703884
1761315743768603000,4.568602783203125,0.48916474216878414,-1.664096410536766,-0.11091763167791067
1761315743778584800,4.578584716796875,0.3686275606870651,-1.6828548870205877,-0.10654212000742554
1761315743788566800,4.58856689453125,0.232387198638916,-1.6992849205568432,-0.10526946972310543
1761315743798549800,4.5985498046875,0.0955804348796606,-1.6747624737188218,-0.06957282751780003
1761315743808531700,4.60853173828125,-0.11084522402882575,-1.6366355721592902,-0.01408336081225425
1761315743818513700,4.618513671875,-0.36535248453915115,-1.569223539404571,0.04751278873793781
1761315743828495600,4.62849560546875,-0.5421563276439905,-1.4836504115372895,0.06915708632376044
1761315743838478800,4.638478759765625,-0.749094612249732,-1.4327368013799189,0.031902510619349775
1761315743848460800,4.648460693359375,-0.936639629599452,-1.4000903770580886,-0.015038725308328865
1761315743858442800,4.65844287109375,-1.1503285575091837,-1.3574565194681285,-0.0643988224133849
1761315743868424700,4.6684248046875,-1.3672428772062062,-1.31685270640105,-0.07856790701402351
1761315743878406700,4.67840673828125,-1.5126666626632213,-1.243720250172913,0.004121938768215477
1761315743888390000,4.688389892578125,-1.5856348682403563,-1.1214254113689064,0.09983168084966018
1761315743898371600,4.69837158203125,-1.6772130817413329,-1.0903563193663954,0.24040992597164584
1761315743908353800,4.708353759765625,-1.6243986063987015,-1.266868486048281,0.6358988795720041
1761315743918335700,4.718335693359375,-1.3550152637958526,-1.4580278945028782,1.0495044498223811
1761315743928318700,4.728318603515625,-1.016780503284931,-1.554817997433245,1.2771001033358276
1761315743938301000,4.738301025390625,-0.7255518240988255,-1.6200032940492033,1.3169640578210353
1761315743948282600,4.74828271484375,-0.6342091729193925,-1.6735940144613384,1.2594831981025636
1761315743958264800,4.758264892578125,-0.7062678624361753,-1.6076155216410755,0.9794244399674236
1761315743968247600,4.76824755859375,-0.885987885248661,-1.3431670050919056,0.4936662913717329
1761315743978229800,4.778229736328125,-1.148878943222761,-0.9308961175113916,-0.03907766294572502
1761315743988211700,4.788211669921875,-1.6325860045075415,-0.5477636461317539,-0.3981599811742082
1761315743998193700,4.798193603515625,-2.2112287730276585,-0.17382044337987898,-0.5841149528535082
1761315744008177000,4.808177001953125,-2.5720699176222084,0.3409253147691488,-0.6258928877338766
1761315744018158600,4.81815869140625,-2.6410639588713645,0.7815016748577356,-0.5597703833330422
1761315744028140800,4.828140869140625,-2.559834120905399,1.0796288813859223,-0.32847423133384435
1761315744038122800,4.838122802734375,-2.2269109108060596,1.4026874078139662,-0.03994439931027591
1761315744048104700,4.848104736328125,-1.6247417207479475,1.7109604530423879,0.2669145413365215
1761315744058088000,4.858087890625,-0.8912059121578931,1.8798440245419739,0.5333667989235371
1761315744068069600,4.868069580078125,-0.06180325296223163,1.868152125443518,0.6986057303104549
1761315744078051800,4.8780517578125,0.7019096672266721,1.6344062056720257,0.8477055739317089
1761315744088033800,4.88803369140625,1.3095575809568165,1.2408747976139187,0.8891854391809553
1761315744098016800,4.898016845703125,1.7192524805694818,0.8776160704836249,0.8885779748070984
1761315744107998700,4.907998779296875,1.8956530035704373,0.6229717395901679,0.8159636972341686
1761315744117980700,4.917980712890625,1.8963842404544353,0.4641863682568073,0.6903886677157134
1761315744127963000,4.927962890625,1.8003057929247617,0.38485008895248174,0.6008714783977717
1761315744137945600,4.937945556640625,1.6581132444739342,0.34620296291112895,0.5552874657653272
1761315744147927800,4.947927734375,1.4533990656584501,0.3166808080896735,0.4021644310425967
1761315744157909500,4.957909423828125,1.2639958532214164,0.336646614536643,0.2703399857405573
1761315744167891700,4.9678916015625,1.124723576131463,0.39472207914739843,0.05224252067357302
1761315744177874200,4.977874267578125,1.0197527970939875,0.484718868675828,-0.2097912628840655
1761315744187857200,4.987857177734375,0.8199538628488778,0.5785583051070571,-0.4834238604292273
1761315744197839000,4.997839111328125,0.44469022514820095,0.6294871128335595,-0.7376961431398987
1761315744207821000,5.007821044921875,-0.1017196682870388,0.7192576923906803,-0.9126058430612086
1761315744217803000,5.017802978515625,-0.6892676277965307,0.8992483488380908,-1.0127296204589307
1761315744227786000,5.027785888671875,-1.220685703805089,1.1217945369422435,-0.9244654268767685
1761315744237768200,5.037768310546875,-1.5760498782932757,1.3460469444423913,-0.6916225934248417
1761315744247750100,5.047750244140625,-1.6788684477329252,1.5261983444094658,-0.4247712535176426
1761315744257732000,5.057732177734375,-1.5398521912306546,1.6784297640547154,-0.1650598484929651
1761315744267715300,5.06771533203125,-1.2281915493905544,1.7827166524812579,0.06163242643997073
1761315744277697000,5.077697021484375,-0.7606593778371811,1.7641098594278095,0.20816855705305934
1761315744287679200,5.08767919921875,-0.22910277014076708,1.6420596430346368,0.2556448862381279
1761315744297661200,5.0976611328125,0.2815606871306896,1.4332666704729198,0.24403650070466099
1761315744307643100,5.10764306640625,0.7520254050046206,1.1815841119945047,0.15887173444256186
1761315744317626000,5.117626220703125,1.1243325309872627,0.9055743369892238,-0.0064143240217119455
1761315744327608000,5.127608154296875,1.3834844024330377,0.6714627987757325,-0.21129764885902402
1761315744337590300,5.13759033203125,1.5752946760118007,0.48103199685662984,-0.4063582294706255
1761315744347572000,5.147572021484375,1.6599159099817276,0.24162147545218465,-0.5719906171545386
1761315744357555200,5.15755517578125,1.6307266403764484,0.040077158844470974,-0.6537558041062206
1761315744367537000,5.167536865234375,1.4993185207903383,-0.07581219683140515,-0.7036052190981805
1761315744377519000,5.17751904296875,1.3065759347975254,-0.12790011146515606,-0.6943504109535366
1761315744387501000,5.1875009765625,1.0783739128887653,-0.13267887017428875,-0.6175069713782518
1761315744397484000,5.197484130859375,0.8305378007054328,-0.11786533192396163,-0.5049421570152044
1761315744407466200,5.20746630859375,0.6689128220319748,-0.09483692303597926,-0.3920002529680729
1761315744417448000,5.217447998046875,0.541586418801546,-0.10648790560215711,-0.3604894816126674
1761315744427430100,5.22743017578125,0.471542576238513,-0.15051000268012285,-0.3468811544336378
1761315744437412000,5.237412109375,0.4223848698377609,-0.2389367664128542,-0.32012386121563613
1761315744447395000,5.24739501953125,0.39549218673706055,-0.31628888616263867,-0.3420448933836073
1761315744457377300,5.257377197265625,0.4124228632718324,-0.4088751076623797,-0.37478060342408714
1761315744467359000,5.26735888671875,0.4183803103715181,-0.48805385831743475,-0.4067790121659636
1761315744477341200,5.277341064453125,0.3680792791545391,-0.5480678897753357,-0.37980617650113996
1761315744487324200,5.28732421875,0.29709844800233837,-0.6310095000952481,-0.37425957522466774
1761315744497306000,5.29730615234375,0.2831120082259178,-0.711255295459926,-0.38729799356125294
1761315744507288300,5.307288330078125,0.2149544178009033,-0.8190694812297821,-0.3822642371777445
1761315744517270000,5.31727001953125,0.13645254349410532,-0.9546490412816405,-0.3706405079446733
1761315744527253200,5.327253173828125,0.032928456133604046,-1.0377712688654661,-0.33493104279041286
1761315744537235000,5.33723486328125,-0.12859306216537952,-1.0966314541131257,-0.31521767673455175
1761315744547217200,5.347217041015625,-0.3227180424273014,-1.1632985137194394,-0.29907705459892747
1761315744557199000,5.35719921875,-0.49357612887024876,-1.1933292025849223,-0.25662235296815633
1761315744567181000,5.36718115234375,-0.6050140580952167,-1.1346432048603892,-0.2309815330920741
1761315744577164300,5.377164306640625,-0.7608090154409408,-1.0963087980300188,-0.25090032205954194
1761315744587146000,5.38714599609375,-0.9376999523073434,-1.062911555340886,-0.3141824519352987
1761315744597128200,5.397128173828125,-1.112487194892764,-1.0344289727002383,-0.36563868106938896
1761315744607110100,5.407110107421875,-1.2534727056413888,-1.0129913401350379,-0.38628731868136673
1761315744617093000,5.417093017578125,-1.3524468746125697,-0.9997133408889174,-0.33092619106322524
1761315744627075000,5.427074951171875,-1.3813994128525255,-0.9608779987990855,-0.217652716974169
1761315744637057000,5.43705712890625,-1.409877319318056,-0.8841308592051267,-0.09454568500444292
1761315744647039200,5.447039306640625,-1.4287801727086304,-0.9226555279105901,0.15432769780475644
1761315744657022200,5.457022216796875,-1.3182505905002355,-1.1863587790504098,0.5825505896136164
1761315744667004200,5.467004150390625,-1.0985562846958636,-1.473910231028497,0.8889767648663371
1761315744676986000,5.476986083984375,-0.9221084154218435,-1.5497241814255713,0.7999351571708917
1761315744686968000,5.486968017578125,-0.8482067283868789,-1.430737444256246,0.46089287966936826
1761315744696950300,5.4969501953125,-0.9434522322237491,-1.2926423942521215,0.22463627398489042
1761315744706933000,5.50693310546875,-1.2288409532099962,-1.1524059483051299,0.0898691810933873
1761315744716915200,5.516915283203125,-1.6067892999500035,-0.9204384363830089,0.005297412288375198
1761315744726897000,5.52689697265625,-1.9530366865247486,-0.5496178956963121,-0.06711989967403933
1761315744736879000,5.536879150390625,-2.093635828304291,-0.12412263875305651,-0.11357893244219013
1761315744746862000,5.546862060546875,-2.0364380233108994,0.2554213066153228,0.02348624479123391
1761315744756844000,5.556843994140625,-1.784189939904213,0.5070587107777595,0.23308206730158998
1761315744766826200,5.566826171875,-1.3192986382484435,0.6091046884097159,0.42847767028752715
1761315744776808000,5.576807861328125,-0.8330956684947013,0.6522600856557488,0.4979921186815947
1761315744786790100,5.5867900390625,-0.44877252602577206,0.6801334503568709,0.4469209068097174
1761315744796773000,5.596773193359375,-0.17557342452704905,0.7522200507938861,0.3820166921574622
1761315744806755000,5.606755126953125,-0.05436930356919765,0.8901771536320447,0.3295665566151961
1761315744816737300,5.6167373046875,-0.10571019922792911,1.045907375178486,0.20304723198395222
1761315744826719000,5.626718994140625,-0.29325287849009035,1.1779817035883664,0.03765463298883987
1761315744836702200,5.6367021484375,-0.4565887527346611,1.3168573825761676,-0.035231938169850034
1761315744846684200,5.64668408203125,-0.5695300722599029,1.449956231728196,-0.0034726650962256826
1761315744856666000,5.656666015625,-0.5452145461708306,1.5994149717897175,0.06828608477604575
1761315744866648300,5.6666484375,-0.43203006553947926,1.7235653753325342,0.09125274440627544
1761315744876631000,5.676631103515625,-0.30329554907679557,1.7702166518703102,0.008606518570054322
1761315744886613200,5.68661328125,-0.1487625744909048,1.7476283879652619,-0.18869349326509982
1761315744896595000,5.696594970703125,0.051564183020591736,1.6603884959295392,-0.43634171819351614
1761315744906577200,5.7065771484375,0.27542320728898045,1.5097814626157282,-0.6747787183906883
1761315744916560100,5.71656005859375,0.49176118840277194,1.3527435194715858,-0.8688269070893525
1761315744926542000,5.7265419921875,0.5740981108278036,1.2199971370190381,-1.0511986865196377
1761315744936524000,5.73652392578125,0.49574295151531694,1.1381412761092184,-1.2873312822319567
1761315744946506000,5.746506103515625,0.2526175012409687,1.0524717021301389,-1.42794620610252
1761315744956488200,5.75648828125,0.013681319350004195,0.9969657957464456,-1.4504871237345038
1761315744966471200,5.76647119140625,-0.09811316822767258,1.1089955533847211,-1.3085364212155342
1761315744976453000,5.776453125,-0.06668517978489398,1.25518652382195,-1.0682730093088
1761315744986435000,5.78643505859375,0.13547288480699063,1.3564251305937767,-0.7591641708433627
1761315744996417000,5.7964169921875,0.43430911638736724,1.3811042292982338,-0.3770744134496897
1761315745006400000,5.80639990234375,0.7588403457164764,1.3433885388880968,-0.061332977702515196
1761315745016382200,5.81638232421875,1.0353934338182211,1.2751444392234086,0.16002130633648484
1761315745026364200,5.8263642578125,1.2880202874094246,1.1643246418967843,0.318163265199773
1761315745036346000,5.83634619140625,1.5075281307309865,0.9795280464723706,0.4050384886415675
1761315745046328000,5.846328125,1.559188175341487,0.7379109549343585,0.39313225267268714
1761315745056311000,5.85631103515625,1.539215646892786,0.5171376217216253,0.32747948467545207
1761315745066293000,5.86629296875,1.5283365254819392,0.3422606550261378,0.3333219270933419
1761315745076275200,5.876275146484375,1.4990011254042386,0.2273179325506091,0.3463592494513839
1761315745086257200,5.886257080078125,1.4447165775090456,0.1379720081463456,0.38232400454096493
1761315745096240000,5.896240234375,1.309609018883109,0.0385597400188446,0.3721487936157733
1761315745106222000,5.90622216796875,1.2242507028102874,-0.07051613624989986,0.3368976666882634
1761315745116204000,5.9162041015625,1.157075693681836,-0.1316360831230879,0.28308963199732823
1761315745126186200,5.926186279296875,1.104722990632057,-0.17444412823617458,0.22683648744290694
1761315745136169200,5.936169189453125,0.9730068280100822,-0.22821707334741947,0.18227666675904763
1761315745146151200,5.946151123046875,0.8648375451922417,-0.2755909650713205,0.09072523166714236
1761315745156133000,5.956133056640625,0.7962965084075927,-0.2987950227871537,-0.03223439118852839
1761315745166115000,5.966114990234375,0.7012544181883335,-0.3458046112433076,-0.10275222620517015
1761315745176097300,5.97609716796875,0.6357569868832826,-0.3719450146719813,-0.07930321728494018
1761315745186080000,5.986080078125,0.43113808513581753,-0.451318411116302,0.052311603854410346
1761315745196062000,5.99606201171875,0.5757482161223888,-0.62899173053205,0.2908343461062759
1761315745206044000,6.0060439453125,0.8104220643937587,-0.6091119949333369,0.6907158538434655
1761315745216025900,6.01602587890625,0.7304740829318761,-0.5552108933977783,0.5692939984817057
1761315745226008800,6.0260087890625,0.6373217519819736,-0.4660768581785261,0.33363683826141055
1761315745235990800,6.03599072265625,0.47216158491969107,-0.5727202466033399,0.37945699773728847
1761315745245973000,6.045972900390625,0.20162498062849044,-0.7829983431562781,0.3581107697825879
1761315745255955000,6.055954833984375,-0.07631283982992172,-0.9123426620803773,0.2584630489313975
1761315745265938000,6.06593798828125,-0.2765413976639509,-0.918673034145683,0.18695401092031969
1761315745275920000,6.075919921875,-0.40392976021468635,-1.0122595187291503,0.22510851287283
