time,seconds_elapsed,z,y,x
1761316481867243800,0.077243896484375,-0.0002204118063673377,0.001916996669024229,-0.001278868643566966
1761316481877226800,0.087226806640625,0.00046987959649413824,-0.0007845140062272549,-0.002914848504588008
1761316481887210000,0.0972099609375,0.0008022680412977934,0.0010458733886480331,0.0008513981010764837
1761316481897191700,0.107191650390625,-0.0017280012834817171,0.0011247028596699238,-0.0011558264959603548
1761316481907175000,0.1171748046875,-0.0011631962843239307,-0.0003770533949136734,-0.001162366010248661
1761316481917156900,0.127156982421875,-0.00012616137973964214,0.0007827533408999443,-0.0004193440545350313
1761316481927139800,0.137139892578125,-0.0005123320734128356,-0.002181248739361763,-0.0015086238272488117
1761316481937121800,0.147121826171875,-0.001908893696963787,0.0006334460340440273,0.0009201789507642388
1761316481947105000,0.15710498046875,-0.0008548795594833791,0.0004184357821941376,-0.0009782013949006796
1761316481957087700,0.167087646484375,0.00247780024074018,0.00012682005763053894,-0.00038618058897554874
1761316481967070000,0.177070068359375,0.001865317695774138,-0.0019277608953416348,-0.0010447259992361069
1761316481977053000,0.187052978515625,-0.0008766728569753468,0.00039504794403910637,-0.0014649727381765842
1761316481987035000,0.197034912109375,0.00038372818380594254,-0.00045666657388210297,-0.0006036423146724701
1761316481997017900,0.207017822265625,-0.00012067449279129505,0.0004317639395594597,0.0004091579467058182
1761316482007000800,0.217000732421875,0.00042542547453194857,-0.000007092952728271484,-0.0005507250316441059
1761316482016982800,0.226982666015625,0.0008110511116683483,-0.0013887407258152962,0.0019768811762332916
1761316482026965800,0.2369658203125,-0.00014789949636906385,-0.0005552582442760468,0.0005947072058916092
1761316482036947700,0.24694775390625,0.0008457258809357882,-0.00035552075132727623,-0.0019715148955583572
1761316482046930700,0.2569306640625,-0.0028827765490859747,-0.00046091945841908455,0.0012727216817438602
1761316482056913000,0.266912841796875,-0.00006781530100852251,0.00019448483362793922,0.0021241342183202505
1761316482066896000,0.276895751953125,0.0025863470509648323,0.0001297895796597004,0.00077290297485888
1761316482076878800,0.28687890625,0.0011399842333048582,-0.0008390685543417931,0.0012352276826277375
1761316482086860800,0.29686083984375,-0.0005082215648144484,-0.0008240127936005592,0.0009113502455875278
1761316482096844000,0.306843994140625,-0.0019093105802312493,0.0023094620555639267,0.0009856524411588907
1761316482106825700,0.31682568359375,-0.0004293132806196809,-0.0005866289138793945,0.0011234837584197521
1761316482116809000,0.32680908203125,-0.0005283828359097242,0.002916492987424135,0.0008539718110114336
1761316482126790700,0.336790771484375,0.0003932020626962185,-0.0006630886346101761,0.000009879469871520996
1761316482136774000,0.34677392578125,0.00043767679017037153,0.000026670284569263458,0.0038403039798140526
1761316482146756900,0.3567568359375,0.002323318272829056,0.0009238813072443008,0.00007786019705235958
1761316482156738800,0.36673876953125,0.0007150352466851473,0.0006684837862849236,0.0007886579260230064
1761316482166721800,0.3767216796875,-0.0015216062311083078,0.0012099836021661758,-0.0009771271143108606
1761316482176704000,0.3867041015625,0.000260048545897007,-0.00023691169917583466,-0.0003683282993733883
1761316482186686700,0.396686767578125,0.0010791370877996087,0.0002575777471065521,0.002745682140812278
1761316482196669000,0.4066689453125,-0.0014452732866629958,-0.0012202104553580284,0.0006223437376320362
1761316482206652000,0.41665185546875,-0.0011099176481366158,-0.0017743827775120735,0.001193277770653367
1761316482216634600,0.426634521484375,-0.0006132380804046988,-0.0007535931654274464,0.0019323050510138273
1761316482226616800,0.436616943359375,0.00028740137349814177,0.00011774571612477303,-0.0008388683199882507
1761316482236599800,0.446599853515625,-0.0014923891285434365,-0.0006441846489906311,-0.0004939890932291746
1761316482246581800,0.456581787109375,0.0020184582099318504,-0.0026668510399758816,0.00029827305115759373
1761316482256564700,0.466564697265625,0.0008754293667152524,-0.00005109421908855438,0.0031574429012835026
1761316482266547000,0.476546875,-0.0005629573133774102,0.0005886685103178024,0.00023964093998074532
1761316482276529700,0.48652978515625,-0.0006439174176193774,0.0009063836187124252,-0.0018844963051378727
1761316482286513000,0.496512939453125,-0.0006829183548688889,-0.0002447138540446758,0.0003108433447778225
1761316482296494800,0.506494873046875,0.0007408075034618378,0.0010253475047647953,-0.000874795950949192
1761316482306477800,0.516477783203125,0.0000731591135263443,-0.0011391546577215195,-0.00046477606520056725
1761316482316459800,0.526459716796875,-0.0017002399545162916,-0.0014004106633365154,0.0012391143245622516
1761316482326443000,0.536443115234375,0.0004516310291364789,-0.00030782679095864296,-0.003149389987811446
1761316482336424700,0.5464248046875,0.0011637603165581822,0.0011590421199798584,0.0003252364695072174
1761316482346408000,0.556407958984375,0.0013228262541815639,0.0007304847240447998,0.003139123087748885
1761316482356391000,0.566390869140625,0.0015015244716778398,0.0004109055735170841,-0.001092373626306653
1761316482366372900,0.576372802734375,0.0013363154139369726,0.0003022770397365093,0.00010327133350074291
1761316482376355800,0.58635595703125,0.0012103479821234941,-0.0003720349632203579,0.000048143789172172546
1761316482386337800,0.596337890625,0.0014665622729808092,0.0019365590997040272,-0.00028629694133996964
1761316482396320800,0.60632080078125,-0.0012221651850268245,0.003374400082975626,0.00095633405726403
1761316482406303000,0.616302978515625,0.0017292434349656105,0.0013137497007846832,-0.0006826126482337713
1761316482416285700,0.62628564453125,0.002126320730894804,-0.0021773879416286945,0.0009688134305179119
1761316482426269000,0.63626904296875,-0.0009869136847555637,-0.0020630552899092436,-0.0025391026865690947
1761316482436251000,0.6462509765625,0.0005105817690491676,0.001101845409721136,0.0006710716988891363
1761316482446233900,0.65623388671875,-0.0018317918293178082,0.0011560609564185143,-0.000766063341870904
1761316482456215800,0.6662158203125,-0.0014717323938384652,-0.000029311981052160263,-0.0009410330094397068
1761316482466199000,0.676198974609375,-0.00006207206752151251,-0.0012568207457661629,0.0017323971260339022
1761316482476180700,0.6861806640625,0.00014485546853393316,-0.0018917182460427284,0.0005118704866617918
1761316482486164000,0.6961640625,0.0014642836758866906,-0.00039255479350686073,-0.0018367115408182144
1761316482496147000,0.70614697265625,-0.0006737019866704941,0.0008322331123054028,-0.00024121161550283432
1761316482506129000,0.71612890625,-0.0007601477554999292,0.001802072860300541,0.003164146328344941
1761316482516112000,0.72611181640625,0.0015842330176383257,0.0011219014413654804,0.00164934026543051
1761316482526094000,0.736093994140625,0.0004573320038616657,0.00021414831280708313,0.0019873534329235554
1761316482536076800,0.746076904296875,-0.0009072717512026429,-0.0007911953143775463,-0.0005463778506964445
1761316482546059000,0.75605908203125,0.0010101268999278545,-0.001314608845859766,-0.00011241505853831768
1761316482556042000,0.7660419921875,0.0013211839832365513,0.0011059381067752838,0.00007001147605478764
1761316482566024700,0.776024658203125,0.00005051121115684509,-0.0009477389976382256,-0.00029474287293851376
1761316482576007000,0.7860068359375,0.0011858167126774788,-0.0010348246432840824,0.0003960810136049986
1761316482585990000,0.795989990234375,-0.0011475880164653063,-0.0029250620864331722,-0.0014206143096089363
1761316482595971800,0.805971923828125,0.0013216949300840497,-0.0006967950612306595,-0.0013018371537327766
1761316482605954800,0.815954833984375,-0.0006410506321117282,0.0010749353095889091,-0.0009847686160355806
1761316482615936800,0.825936767578125,0.0012844149023294449,-0.00021723052486777306,0.0012520203599706292
1761316482625919700,0.835919677734375,0.0020768928807228804,-0.0005703428760170937,0.0005202027969062328
1761316482635903000,0.845903076171875,0.00004596624057739973,0.0005441899411380291,0.001210760441608727
1761316482645884700,0.855884765625,-0.00005601916927844286,0.00021203700453042984,0.00034556956961750984
1761316482655868000,0.865867919921875,-0.002453929278999567,-0.00025428272783756256,0.00044170976616442204
1761316482665849900,0.875849853515625,-0.00024008553009480238,0.000023235566914081573,-0.002372062997892499
1761316482675832800,0.885832763671875,0.0010076053440570831,-0.00012856442481279373,0.0005001560784876347
1761316482685814800,0.895814697265625,0.000557871419005096,0.0005010459572076797,-0.000270073302090168
1761316482695798000,0.905798095703125,0.0006308420561254025,0.0007481873035430908,0.0004351318348199129
1761316482705780700,0.91578076171875,0.0016136206686496735,0.00033731432631611824,-0.0010230077896267176
1761316482715763000,0.925762939453125,-0.0018247865373268723,0.0022177728824317455,0.0036031692288815975
1761316482725746000,0.935745849609375,-0.000059909652918577194,-0.0008046664297580719,0.0027451857458800077
1761316482735727900,0.945727783203125,-0.0007014651200734079,0.0016630184836685658,-0.0005909563042223454
1761316482745710800,0.9557109375,-0.00011332274880260229,-0.0001614564098417759,0.0005902696866542101
1761316482755693000,0.965693115234375,0.002616151003167033,0.0004079272039234638,-0.0003096123691648245
1761316482765675800,0.97567578125,0.0002515374217182398,-0.00040457816794514656,0.0005923756398260593
1761316482775658800,0.98565869140625,-0.00019933574367314577,0.0002468307502567768,0.000412612222135067
1761316482785641000,0.995640869140625,0.00208840798586607,-0.0006800852715969086,0.0020138276740908623
1761316482795623700,1.005623779296875,0.0010729448404163122,0.0019220896065235138,-0.0014719839673489332
1761316482805606000,1.01560595703125,0.0019443249329924583,-0.0006296481005847454,0.0013126013800501823
1761316482815588900,1.0255888671875,0.0012793336063623428,0.0006784964352846146,0.0009714504703879356
1761316482825570800,1.03557080078125,0.0012417776742950082,0.0005218405276536942,-0.002153346547856927
1761316482835553800,1.0455537109375,-0.0013148569269105792,0.0012009465135633945,0.0007724023889750242
1761316482845537000,1.055537109375,0.0011614852119237185,-0.0011340356431901455,0.0010675603989511728
1761316482855518700,1.065518798828125,0.0023548477329313755,-0.0007846290245652199,-0.001618503825739026
1761316482865502000,1.075501953125,-0.0016745614120736718,-0.00016245152801275253,-0.00170701346360147
1761316482875483600,1.085483642578125,0.0011241546599194407,0.0019121505320072174,-0.00005638599395751953
1761316482885467000,1.095466796875,-0.0005743514047935605,0.000059339217841625214,-0.00041068485006690025
1761316482895448800,1.10544873046875,-0.00006595393642783165,0.0010596225038170815,0.0017502040136605501
1761316482905432000,1.11543212890625,-0.0013929972192272544,-0.00029248837381601334,0.0006790393963456154
1761316482915415000,1.1254150390625,0.00002540240529924631,-0.0009729261510074139,-0.0006205830723047256
1761316482925397000,1.13539697265625,-0.0000800127163529396,0.0011168420314788818,-0.000300724059343338
1761316482935380000,1.1453798828125,-0.0005556532414630055,-0.0016339370049536228,0.0025653699412941933
1761316482945362000,1.15536181640625,-0.0006340740947052836,0.0012498963624238968,-0.0029299536254256964
1761316482955345000,1.165344970703125,-0.0011371452128514647,-0.0005927444435656071,0.003066153498366475
1761316482965327000,1.1753271484375,0.00009437627159059048,0.0004845433868467808,-0.001921987859532237
1761316482975310000,1.18531005859375,0.0006648254347965121,0.0004685642197728157,0.001562492223456502
1761316482985292800,1.195292724609375,0.00034105870872735977,0.000361880287528038,0.0001802169717848301
1761316482995275000,1.20527490234375,0.00033120496664196253,-0.0008266884833574295,0.0018649325938895345
1761316483005258000,1.215258056640625,0.0011913448106497526,-0.0009778998792171478,-0.0026574512012302876
1761316483015240000,1.225239990234375,-0.0003748602466657758,-0.00008653989061713219,0.00024139974266290665
1761316483025223000,1.235222900390625,-0.0010058986954391003,-0.00043979473412036896,-0.0021595791913568974
1761316483035204900,1.245204833984375,-0.0018064449541270733,0.00011201249435544014,-0.0006136142183095217
1761316483045187800,1.255187744140625,-0.0004939758800901473,0.00007505109533667564,0.00018300535157322884
1761316483055170000,1.265170166015625,0.0011651734821498394,0.0024564494378864765,-0.0024138432927429676
1761316483065152800,1.27515283203125,0.0009084027260541916,-0.0006709843873977661,0.0011848192662000656
1761316483075136000,1.285135986328125,0.00008708389941602945,0.0008406257256865501,0.00009904848411679268
1761316483085118000,1.295117919921875,0.0029968293383717537,-0.0013337340205907822,-0.0017223553732037544
1761316483095101000,1.305100830078125,0.0020708483643829823,-0.0006575575098395348,0.0002742165233939886
1761316483105083000,1.315082763671875,0.00047691771760582924,0.001296511385589838,0.0008633569814264774
1761316483115066000,1.325066162109375,0.00132460193708539,-0.0004052487201988697,-0.0005278782919049263
1761316483125047800,1.3350478515625,-0.0008008840959519148,-0.0016824030317366123,-0.0000399069394916296
1761316483135031000,1.345031005859375,-0.0003420214052312076,-0.0007431060075759888,0.00008845748379826546
1761316483145014000,1.355013916015625,0.00046416965778917074,-0.0013558827340602875,0.0008795211324468255
1761316483154996000,1.364995849609375,-0.00041573873022571206,-0.0016584177501499653,0.002752788597717881
1761316483164979000,1.37497900390625,-0.0009700600057840347,-0.0011170688085258007,0.001571790548041463
1761316483174961200,1.384961181640625,0.003199384780600667,-0.0005876324139535427,0.0008535360684618354
1761316483184943900,1.39494384765625,-0.003138522384688258,-0.0018502864986658096,0.0019280940759927034
1761316483194926000,1.404926025390625,0.002299652434885502,-0.0012348298914730549,0.003966477699577808
1761316483204909000,1.414908935546875,-0.0035742805339396,-0.00015131570398807526,0.00022080610506236553
1761316483214892000,1.42489208984375,0.00032858201302587986,-0.0010932758450508118,0.0009806060697883368
1761316483224874000,1.4348740234375,0.0015098215080797672,-0.0004154774360358715,0.0016777999699115753
1761316483234857000,1.44485693359375,0.0020291379187256098,0.0015150480903685093,0.0005329072009772062
1761316483244839000,1.4548388671875,0.0011997827095910907,-0.0008916263468563557,0.0014435211196541786
1761316483254822000,1.46482177734375,0.000843984424136579,-0.0015369104221463203,-0.00155706238001585
1761316483264803800,1.474803955078125,0.0009427369805052876,0.00010433932766318321,0.0004705730825662613
1761316483274787000,1.484787109375,0.0005248870002105832,0.00039888499304652214,0.00023435079492628574
1761316483284770000,1.49477001953125,0.0009096701396629214,0.0006288914009928703,0.0020122879650443792
1761316483294752000,1.504751953125,0.000055328127928078175,0.0033562351018190384,-0.0011952230706810951
1761316483304735000,1.51473486328125,-0.00046701933024451137,-0.0008131959475576878,0.000840066815726459
1761316483314717000,1.524717041015625,-0.0016348154749721289,0.0007034745067358017,0.0017186435870826244
1761316483324700000,1.534699951171875,0.0001490303548052907,0.0012176851741969585,0.001833555637858808
1761316483334682000,1.54468212890625,0.000040906015783548355,0.00039290403947234154,-0.001282076584175229
1761316483344665000,1.5546650390625,-0.0005867528961971402,0.003035868052393198,0.001380178495310247
1761316483354647000,1.56464697265625,0.0012447029585018754,0.0021658134646713734,0.0003266320563852787
1761316483364630000,1.574630126953125,-0.0010687008034437895,0.001119574997574091,-0.0009750602766871452
1761316483374613000,1.584613037109375,0.000032516312785446644,-0.0008841869421303272,0.0018734566401690245
1761316483384595000,1.594594970703125,-0.0013061386998742819,0.000630674883723259,0.0017801872454583645
1761316483394578000,1.604577880859375,-0.003313629422336817,-0.0007344614714384079,-0.0008523475844413042
1761316483404560100,1.61456005859375,0.00016805948689579964,0.0007092026062309742,-0.0005198046565055847
1761316483414542800,1.62454296875,-0.0008657797006890178,-0.0006873589009046555,0.003820348996669054
1761316483424525000,1.634525146484375,-0.00020911672618240118,0.0010019275359809399,0.0013384211342781782
1761316483434508000,1.644508056640625,0.0002468164311721921,-0.0015704198740422726,-0.00013084476813673973
1761316483444491000,1.654490966796875,-0.00039725512033328414,-0.0015836278907954693,-0.0004830972757190466
1761316483454473000,1.664472900390625,0.00019955926109105349,-0.0013114525936543941,0.0007347662467509508
1761316483464456200,1.674456298828125,-0.0002734418958425522,0.0004859571345150471,0.0009985825745388865
1761316483474438000,1.68443798828125,-0.0015749287558719516,-0.0013148724101483822,0.00033092801459133625
1761316483484421000,1.694421142578125,0.00040787807665765285,-0.0009267558343708515,0.0007294670213013887
1761316483494402800,1.70440283203125,0.002876894548535347,-0.00009078951552510262,0.001027474645525217
1761316483504386000,1.714385986328125,-0.0011573234805837274,0.0006456556729972363,-0.0009362029377371073
1761316483514368000,1.724367919921875,-0.0007338808500207961,0.001267237588763237,-0.0002949137706309557
1761316483524351000,1.73435107421875,0.0032427795231342316,-0.0008055004291236401,-0.0000033138785511255264
1761316483534334000,1.744333984375,0.002617469523102045,0.0011348784901201725,-0.0008944075088948011
1761316483544316200,1.754316162109375,0.000717269373126328,-0.0014611701481044292,-0.00035977037623524666
1761316483554299000,1.764298828125,0.00006213178858160973,0.000674152746796608,-0.0009246268309652805
1761316483564281000,1.774281005859375,0.0014315178850665689,-0.001914371969178319,0.0009121961193159223
1761316483574264000,1.78426416015625,0.0006581359775736928,-0.0006128852255642414,0.0017771907150745392
1761316483584246000,1.79424609375,0.0003599307965487242,0.0004807598888874054,-0.002073141513392329
1761316483594229000,1.80422900390625,-0.00044887122930958867,0.00227013835683465,-0.0005942883435636759
1761316483604212000,1.8142119140625,0.0021272157318890095,0.0017818356864154339,-0.00039024860598146915
1761316483614194000,1.82419384765625,-0.00007415330037474632,0.0009256293997168541,0.0008427950087934732
1761316483624177000,1.834177001953125,-0.000029810238629579544,0.00006175832822918892,-0.00303046521730721
1761316483634159000,1.8441591796875,-0.001667388016358018,-0.00047034118324518204,0.00010327622294425964
1761316483644141800,1.854141845703125,0.00021725671831518412,-0.001596103422343731,0.00010983599349856377
1761316483654124000,1.8641240234375,0.0005421624518930912,0.00033948197960853577,-0.002652128227055073
1761316483664107000,1.87410693359375,0.00039043533615767956,-0.0006922162137925625,0.0009904318721964955
1761316483674089000,1.8840888671875,0.00029243098106235266,0.0003594662994146347,-0.0015004226006567478
1761316483684072000,1.894072021484375,0.002238551154732704,0.001085503026843071,-0.0004678955301642418
1761316483694055200,1.90405517578125,0.0006193493027240038,-0.00018136249855160713,-0.0011075867805629969
1761316483704036900,1.914036865234375,-0.0011893324553966522,-0.00071297911927104,0.0016720073763281107
1761316483714020000,1.92402001953125,0.00021734926849603653,-0.0017763793002814054,-0.0014361680950969458
1761316483724001800,1.934001708984375,0.0009050850057974458,0.00003009103238582611,-0.0007850730326026678
1761316483733985000,1.943985107421875,0.0016797984717413783,-0.00003249337896704674,0.0014565096935257316
1761316483743967000,1.953967041015625,0.0026204511523246765,0.0006752056069672108,-0.0010759830474853516
1761316483753950000,1.963949951171875,-0.000005958369001746178,-0.001047593541443348,0.002107293577864766
1761316483763933000,1.973932861328125,0.000768525991588831,-0.0003255843184888363,0.002167416037991643
1761316483773915100,1.9839150390625,0.000001801992766559124,-0.0016201469115912914,0.0006355657242238522
1761316483783897900,1.99389794921875,-0.0014893568586558104,-0.0013626893050968647,0.0008352467557415366
1761316483793880000,2.003880126953125,-0.0005756263271905482,0.001114316750317812,0.0015849265037104487
1761316483803863000,2.013863037109375,-0.0005698190652765334,-0.0006236587651073933,0.00007965345866978168
1761316483813845000,2.023844970703125,0.0002453745109960437,-0.0007863780483603477,0.00020508840680122375
1761316483823828000,2.033827880859375,0.0011319853365421295,-0.0005799848586320877,0.0033269196283072233
1761316483833811000,2.04381103515625,0.0019405209459364414,0.0025761271826922894,0.0009766800794750452
1761316483843793000,2.05379296875,0.0014500051038339734,-0.002649480476975441,0.001572369015775621
1761316483853776000,2.06377587890625,0.0013765018666163087,0.000834466889500618,0.000817096559330821
1761316483863758000,2.073758056640625,0.0004180987598374486,-0.0000752648338675499,0.0005079838447272778
1761316483873740800,2.08374072265625,0.000734748668037355,-0.002667852211743593,0.0029373192228376865
1761316483883723000,2.093722900390625,-0.00029537733644247055,0.0010632332414388657,-0.00030174385756254196
1761316483893706200,2.103706298828125,0.0008790767751634121,-0.0005876598879694939,0.002693779766559601
1761316483903689500,2.113689453125,0.002749296370893717,0.0012881630100309849,0.0011962465941905975
1761316483913671200,2.123671142578125,0.0004717608680948615,0.0003941399045288563,0.0009749379241839051
1761316483923654400,2.133654296875,-0.0018531957175582647,0.001281251199543476,0.0014646060299128294
1761316483933636000,2.143635986328125,0.0024174493737518787,0.0005094674415886402,-0.000288819195702672
1761316483943619300,2.153619384765625,0.0017965591978281736,0.0013960441574454308,0.003017239272594452
1761316483953601300,2.163601318359375,-0.0011382444063201547,0.0008852500468492508,-0.000005182111635804176
1761316483963584500,2.17358447265625,-0.00018384470604360104,-0.00009278720244765282,-0.00027584517374634743
1761316483973566200,2.183566162109375,0.00011442939285188913,-0.001135414931923151,-0.0009767890442162752
1761316483983549400,2.193549560546875,0.00039983890019357204,0.000639802310615778,-0.0018794506322592497
1761316483993532400,2.203532470703125,-0.0004971137386746705,0.0007825475186109543,-0.002360950456932187
1761316484003514400,2.213514404296875,-0.0015782892005518079,-0.0017972327768802643,0.00025243451818823814
1761316484013497300,2.223497314453125,0.00191418023314327,0.0005591320805251598,0.0003781355917453766
1761316484023479300,2.233479248046875,-0.0004782180185429752,-0.00043840939179062843,-0.00020529935136437416
1761316484033462300,2.243462158203125,0.001789730042219162,-0.001669855322688818,0.0009981831535696983
1761316484043444500,2.253444580078125,-0.00020797434262931347,-0.001500905491411686,-0.001633141189813614
1761316484053427200,2.26342724609375,-0.0022048125974833965,-0.0036372931208461523,-0.0009620243217796087
1761316484063409400,2.273409423828125,0.0014894965570420027,-0.0010416149161756039,-0.001213778741657734
1761316484073392400,2.283392333984375,-0.001398435328155756,-0.0014480133540928364,-0.0003415935207158327
1761316484083375000,2.293375,-0.001920969458296895,-0.0016055405139923096,0.0015536349965259433
1761316484093357300,2.303357421875,-0.0014349424745887518,-0.0008300277404487133,0.0006055496633052826
1761316484103340300,2.31334033203125,-0.00019761314615607262,-0.0010897619649767876,-0.001869607251137495
1761316484113322200,2.323322265625,0.00008574721869081259,0.0006231828592717648,0.00037810043431818485
1761316484123305200,2.33330517578125,0.001617054222151637,0.0010478883050382137,0.0006937214639037848
1761316484133287200,2.343287109375,-0.0013387883082032204,-0.00033668894320726395,0.00009637442417442799
1761316484143270100,2.353270263671875,-0.0010984615655615926,0.002402764745056629,-0.0009258564095944166
1761316484153253400,2.36325341796875,-0.001328558661043644,0.002174532040953636,0.0015815097140148282
1761316484163235000,2.373235107421875,-0.000645321502815932,0.002358071506023407,0.0031583080999553204
1761316484173218300,2.38321826171875,-0.00022028095554560423,0.0008890721946954727,0.000334025826305151
1761316484183200300,2.3932001953125,0.00163111777510494,0.002051975578069687,0.00018044328317046165
1761316484193183500,2.40318359375,-0.0010187276639044285,-0.0008300971239805222,0.0012299950467422605
1761316484203165200,2.413165283203125,0.005602291785180569,0.0018015922978520393,0.0005173864774405956
1761316484213148400,2.4231484375,-0.0018183402717113495,0.001641270238906145,-0.000893822405487299
1761316484223130000,2.433130126953125,0.0013292762450873852,0.002152795437723398,0.0005084089934825897
1761316484233113300,2.44311328125,-0.0018151181284338236,0.00043132854625582695,-0.00007082871161401272
1761316484243096300,2.453096435546875,0.0008138500852510333,0.0015215743333101273,-0.00009383261203765869
1761316484253078300,2.463078369140625,0.0007568584987893701,0.001385487150400877,0.0008017884101718664
1761316484263061200,2.473061279296875,0.0006115803262218833,0.0027508120983839035,-0.0009916115086525679
1761316484273043500,2.48304345703125,0.002183910459280014,0.0005702157504856586,-0.00031756539829075336
1761316484283026200,2.493026123046875,-0.00035171257331967354,0.0010617142543196678,0.0007979859365150332
1761316484293008400,2.50300830078125,-0.00029738410376012325,0.0012057912535965443,-0.0012941935565322638
1761316484302991400,2.512991455078125,0.0009242154192179441,-0.0018488415516912937,0.00045712548308074474
1761316484312974300,2.522974365234375,-0.0008893972844816744,-0.001711954828351736,0.0006432805676013231
1761316484322956300,2.532956298828125,-0.0008754606242291629,-0.0014125467278063297,-0.0019396308343857527
1761316484332939300,2.542939208984375,-0.0040888311341404915,-0.0012279893271625042,0.0009112829575315118
1761316484342921200,2.552921142578125,0.00019781338050961494,0.00018843216821551323,-0.0008637374266982079
1761316484352904200,2.562904296875,0.00009794475045055151,-0.0017607356421649456,0.0007458771578967571
1761316484362886100,2.57288623046875,-0.003945578821003437,0.0011372491717338562,0.000453755259513855
1761316484372869400,2.582869384765625,-0.0008717582677491009,0.0000690552406013012,0.0003701320383697748
1761316484382852400,2.592852294921875,0.0019534905441105366,-0.0011222106404602528,0.00035353517159819603
1761316484392834300,2.602834228515625,-0.0007948917918838561,-0.003348347032442689,-0.0019445065408945084
1761316484402817300,2.6128173828125,-0.0002252197591587901,-0.002345422748476267,-0.0008919739630073309
1761316484412799200,2.62279931640625,-0.0024641393683850765,-0.0033646144438534975,-0.0012139503378421068
1761316484422782500,2.632782470703125,-0.0022385369520634413,-0.002781013958156109,-0.0019870405085384846
1761316484432764400,2.642764404296875,-0.00227662012912333,0.0008890880271792412,-0.0013079345226287842
1761316484442747400,2.652747314453125,0.0011089346371591091,-0.0006095701828598976,0.0008487382438033819
1761316484452729300,2.662729248046875,0.00026258197613060474,0.0009292042814195156,0.0005792262963950634
1761316484462712300,2.67271240234375,-0.0015882147708907723,0.0007416456937789917,-0.0005375512409955263
1761316484472695300,2.6826953125,-0.0006294767954386771,-0.00022401660680770874,0.0006973566487431526
1761316484482677200,2.69267724609375,0.00096021534409374,0.0026444424875080585,-0.0009532633703202009
1761316484492660200,2.70266015625,0.0005626055644825101,0.0016862372867763042,0.0005647384095937014
1761316484502642400,2.712642333984375,-0.002500557340681553,-0.00009850645437836647,0.001335093635134399
1761316484512625200,2.722625244140625,0.002928829286247492,-0.0008713556453585625,0.0007742318557575345
1761316484522607400,2.732607421875,-0.0008477675728499889,0.00004188483580946922,-0.0004927495028823614
1761316484532590300,2.74259033203125,-0.0012134196003898978,0.0010472279973328114,0.001156546175479889
1761316484542573300,2.7525732421875,0.0008269095560535789,-0.000533717218786478,0.001124649541452527
1761316484552555300,2.76255517578125,0.0005454133497551084,-0.00023144856095314026,0.0014623383758589625
1761316484562538500,2.77253857421875,-0.0016912042628973722,-0.001926155760884285,0.0008872427279129624
1761316484572520200,2.782520263671875,-0.00034124788362532854,-0.0006137499585747719,0.0018433175282552838
1761316484582503400,2.79250341796875,-0.00021752598695456982,-0.0005053919740021229,0.000749475322663784
1761316484592485000,2.802485107421875,0.00033800944220274687,0.00035534147173166275,-0.002079334342852235
1761316484602468400,2.81246826171875,0.0010874079307541251,-0.0014901128597557545,0.00009459513239562511
1761316484612450300,2.8224501953125,0.001800868776626885,0.0003160429187119007,0.00039260275661945343
1761316484622433300,2.832433349609375,-0.00324765732511878,-0.001861171331256628,-0.0005831657908856869
1761316484632416300,2.842416259765625,0.0008892972255125642,-0.002818577690050006,0.0010895656887441874
1761316484642398500,2.8523984375,0.0002198879374191165,-0.0016170432791113853,-0.000043001025915145874
1761316484652381400,2.86238134765625,0.0007690316997468472,-0.0008583087474107742,0.00044488999992609024
1761316484662363400,2.87236328125,0.0012022660812363029,-0.000833860132843256,0.0008276836015284061
1761316484672346400,2.882346435546875,-0.0013493085280060768,0.000764036551117897,0.0009310143068432808
1761316484682328300,2.892328369140625,0.0006417048862203956,-0.0007354146800935268,0.0002516736276447773
1761316484692311300,2.902311279296875,-0.0006384767475537956,-0.0006749606691300869,0.0015220014611259103
1761316484702294300,2.912294189453125,0.001915354048833251,-0.0007142974063754082,0.00036027259193360806
1761316484712276200,2.922276123046875,0.001120666740462184,-0.00047381408512592316,-0.0008815594483166933
1761316484722259200,2.93225927734375,-0.0006091838586144149,-0.0005863327533006668,0.000900708488188684
1761316484732241400,2.942241455078125,0.001934401341713965,-0.0005708863027393818,0.0007526366971433163
1761316484742224100,2.95222412109375,0.0006310109747573733,-0.0002853306941688061,0.00036668614484369755
1761316484752206300,2.962206298828125,-0.0005913798813708127,-0.0002765422686934471,-0.0004932486917823553
1761316484762189300,2.972189208984375,-0.0005958293913863599,0.0006933393888175488,-0.0010350299999117851
1761316484772171300,2.982171142578125,-0.002601455897092819,0.00034526409581303596,0.0003231822047382593
1761316484782154200,2.992154296875,0.0003422107547521591,0.00019562430679798126,0.0003231496084481478
1761316484792137500,3.002137451171875,-0.0026916624046862125,0.0006867111660540104,-0.0007780676241964102
1761316484802119200,3.012119140625,0.0011643458856269717,0.0005276268348097801,-0.00011988077312707901
1761316484812102400,3.022102294921875,-0.0012327654985710979,-0.0006521535106003284,0.00045403046533465385
1761316484822084000,3.032083984375,0.0010431535774841905,0.00020647188648581505,0.00042885239236056805
1761316484832067300,3.0420673828125,-0.0005744504160247743,-0.0004966026172041893,0.00002138875424861908
1761316484842049300,3.05204931640625,0.0007742652669548988,-0.0004643346183001995,0.00006645359098911285
1761316484852032500,3.062032470703125,0.002481617731973529,0.0008768332190811634,0.00033223722130060196
1761316484862015200,3.07201513671875,-0.00033291021827608347,-0.001721920445561409,0.000565601047128439
1761316484871997400,3.08199755859375,0.0010439440375193954,0.000009933020919561386,-0.0009012680966407061
1761316484881980400,3.09198046875,0.0008761424105614424,0.000032794661819934845,0.0018414960941299796
1761316484891961900,3.1019619140625,-0.0006485172198154032,-0.0019334170501679182,-8.78702849149704e-7
1761316484901944800,3.11194482421875,-0.00018247368279844522,-0.00044072745367884636,0.001629227539524436
1761316484911926800,3.1219267578125,-0.0018006103346124291,-0.0011304859071969986,0.002536566462367773
1761316484921909800,3.13190966796875,0.000023706932552158833,-0.0010103420354425907,-0.0003823821898549795
1761316484931892000,3.14189208984375,0.0010607418371364474,0.0019039553590118885,0.002139098709449172
1761316484941874700,3.151874755859375,-0.0005471948534250259,0.0006837924011051655,0.0011395261390134692
1761316484951858000,3.16185791015625,-0.000642535975202918,-0.0030124089680612087,0.0014793454902246594
1761316484961839900,3.17183984375,-0.0017869402654469013,0.000776160042732954,0.000648437300696969
1761316484971822800,3.18182275390625,0.001724171219393611,0.001093076542019844,0.0007728069322183728
1761316484981804800,3.1918046875,-0.0015945544000715017,-0.0018229628913104534,0.001114455284550786
1761316484991788000,3.2017880859375,0.0002590056974440813,-0.001699658576399088,0.0002531888894736767
1761316485001769700,3.211769775390625,0.0004729754291474819,-0.00048053404316306114,-0.0011675339192152023
1761316485011753000,3.2217529296875,0.0005789692513644695,0.0006819358095526695,0.000204792944714427
1761316485021736000,3.23173583984375,-0.0006604244117625058,0.0019657923839986324,-0.00008852663449943066
1761316485031718000,3.2417177734375,-0.0004910473944619298,-0.0006020274013280869,0.001636402914300561
1761316485041700900,3.251700927734375,0.0006112457485869527,0.000842435285449028,0.0005580498836934566
1761316485051682800,3.261682861328125,0.0021164645440876484,0.0003497502766549587,0.0010139831574633718
1761316485061665800,3.271665771484375,0.0001602181000635028,0.0005882736295461655,0.001271604560315609
1761316485071648000,3.28164794921875,-0.002648351714015007,0.0010585878044366837,-0.00045092799700796604
1761316485081630700,3.291630615234375,-0.0005758495535701513,0.0018913932144641876,0.0018789360765367746
1761316485091613000,3.301613037109375,0.00027236726600676775,0.0010908469557762146,-0.0001487948466092348
1761316485101596000,3.311595947265625,-0.00041530036833137274,0.001593810971826315,-0.000719862524420023
1761316485111578600,3.32157861328125,-0.0015058647841215134,-0.0002533574588596821,0.0020554177463054657
1761316485121560800,3.331560791015625,-0.00045927742030471563,0.0018304088152945042,0.0003601715434342623
1761316485131543800,3.341543701171875,-0.00003130745608359575,-0.0030402466654777527,-0.0008473058696836233
1761316485141525800,3.35152587890625,-0.0010851349215954542,-0.002427889732643962,0.000163540942594409
1761316485151508700,3.3615087890625,-0.0007301355944946408,-0.0008630161173641682,-0.0024892338551580906
1761316485161491000,3.371490966796875,0.0037120082415640354,0.0010171476751565933,-0.0010616921354085207
1761316485171473700,3.3814736328125,0.0016240897821262479,-0.00024332664906978607,-0.0017780824564397335
1761316485181457000,3.391456787109375,-0.0025294055230915546,-0.0010538152419030666,0.0016774353571236134
1761316485191438800,3.40143896484375,-0.0004303018795326352,-0.00004074862226843834,0.0005224223714321852
1761316485201421800,3.411421875,-0.003996514715254307,-0.0020279374439269304,0.0021642595529556274
1761316485211403800,3.42140380859375,0.0005963731091469526,0.00004027318209409714,0.0003961869515478611
1761316485221387000,3.431386962890625,-0.0004801544127985835,-0.0009696721099317074,-0.0009565434884279966
1761316485231368700,3.44136865234375,-0.00032382679637521505,-0.0015510404482483864,0.000027760863304138184
1761316485241352000,3.45135205078125,-0.0020240871235728264,0.0008071516640484333,0.00025897566229104996
1761316485251333600,3.461333740234375,-0.0022496567107737064,-0.00024106865748763084,0.00010344688780605793
1761316485261316900,3.47131689453125,0.0005478458479046822,-0.0012328238226473331,-0.0007342337630689144
1761316485271299800,3.4812998046875,-0.0029235845431685448,-0.00021389825269579887,-0.0007723169401288033
1761316485281281800,3.49128173828125,-0.0007121028611436486,-0.0016148951835930347,-0.0021241793874651194
1761316485291264800,3.5012646484375,-0.000054834759794175625,-0.001210094429552555,0.0036024157889187336
1761316485301247000,3.5112470703125,-0.00039653119165450335,-0.0010822052136063576,0.00029802066273987293
1761316485311229700,3.521229736328125,0.0017358617624267936,0.0004214155487716198,-0.0027377167716622353
1761316485321212000,3.5312119140625,-0.001956101506948471,-0.0006313296034932137,0.0004990389570593834
1761316485331195000,3.54119482421875,0.000367772881872952,-0.0005586249753832817,0.00034457561559975147
1761316485341177600,3.551177490234375,-0.0008242370095103979,-0.0018377234227955341,-0.0005723224021494389
1761316485351159800,3.561159912109375,-0.001582971541211009,0.000783093273639679,0.0013302399311214685
1761316485361142800,3.571142822265625,0.001050628605298698,0.0007150778546929359,-0.001672171289101243
1761316485371124700,3.581124755859375,-0.0016109345015138388,0.000186174176633358,0.0012730186572298408
1761316485381107700,3.591107666015625,0.0003473366377875209,-0.00012435950338840485,0.00011609774082899094
1761316485391090000,3.60108984375,0.0017625404288992286,0.000018386170268058777,-0.0012120206374675035
1761316485401072600,3.61107275390625,0.0004339630249887705,0.0009319726377725601,-0.00016474071890115738
1761316485411054800,3.621054931640625,0.0017208023928105831,0.0010829735547304153,-0.0009897879790514708
1761316485421037800,3.631037841796875,0.0016011816915124655,-0.0005038394592702389,0.0017293142154812813
1761316485431020800,3.641020751953125,0.001218751771375537,-0.00021062558516860008,0.0009495406411588192
1761316485441002800,3.651002685546875,-0.0010943595552816987,0.001888337079435587,-0.0007789938244968653
1761316485450986000,3.660986083984375,-0.00015293213073164225,-0.0016850926913321018,0.0015459457645192742
1761316485460967700,3.6709677734375,-0.004022181965410709,-0.0016461596824228764,-0.0005451773758977652
1761316485470951000,3.680950927734375,0.00044606951996684074,-0.003278677351772785,-0.0017132400535047054
1761316485480932600,3.6909326171875,0.00278848665766418,-0.00152157386764884,-0.00013112579472362995
1761316485490915800,3.700915771484375,-0.002073646290227771,-0.003511754097416997,-0.0006198158953338861
1761316485500897800,3.710897705078125,-0.001879417453892529,-0.0004403041675686836,-0.0022978459019213915
1761316485510880800,3.720880859375,-0.0006319928215816617,-0.001113817561417818,0.0005237732548266649
1761316485520863700,3.73086376953125,-0.00034603290259838104,-0.0026360193733125925,-0.0005740993656218052
1761316485530846000,3.740845947265625,-0.0009308630833402276,0.0007712286897003651,0.001640052767470479
1761316485540828700,3.75082861328125,-0.0007440400077030063,0.002073039300739765,0.0003616367466747761
1761316485550811000,3.760810791015625,0.0021377664525061846,-0.0017533907666802406,0.0010921419598162174
1761316485560793900,3.7707939453125,0.0009567204397171736,-0.0010168184526264668,0.0009360630065202713
1761316485570775800,3.78077587890625,0.0018685867544263601,0.0009339470416307449,0.000744848046451807
1761316485580758800,3.7907587890625,0.0004868597025051713,0.000883190892636776,0.001190327457152307
1761316485590741800,3.80074169921875,-0.0007405913202092052,-0.0011994009837508202,0.0009807366877794266
1761316485600723700,3.8107236328125,-0.000877056154422462,0.0013313586823642254,-0.000031513627618551254
1761316485610706700,3.820706787109375,-0.00005440565291792154,-0.00038451608270406723,-0.0006597533356398344
1761316485620689000,3.83068896484375,0.000729866442270577,-0.00059846555814147,0.00007070181891322136
1761316485630671600,3.840671630859375,-0.001070430502295494,0.00026093656197190285,-0.00039322092197835445
1761316485640653800,3.85065380859375,-0.004234660882502794,0.0020218882709741592,-0.0004226693417876959
1761316485650636800,3.86063671875,0.001846400904469192,0.000738777220249176,-0.0006572939455509186
1761316485660618800,3.87061865234375,-0.0010979725047945976,0.0013453778810799122,0.0014589965576305985
1761316485670601700,3.880601806640625,-0.0008241996401920915,-0.0003414684906601906,-0.001408162759616971
1761316485680585000,3.8905849609375,0.0005011763423681259,-0.0007302924059331417,0.00011083553545176983
1761316485690566700,3.900566650390625,-0.0003459752770140767,0.0016375244595110416,-0.0013909211847931147
1761316485700550000,3.9105498046875,0.0003639137139543891,0.0004515587352216244,0.00017225276678800583
1761316485710531600,3.920531494140625,0.0006677804049104452,-0.003037980990484357,0.0007586808642372489
1761316485720514800,3.930514892578125,-0.0012679296778514981,0.00012900866568088531,0.0020373687148094177
1761316485730496800,3.940496826171875,0.000026632915250957012,-0.0010281344875693321,-0.0006494943518191576
1761316485740479700,3.950479736328125,0.0007270275382325053,-0.000596227589994669,0.0000013592652976512909
1761316485750462700,3.960462646484375,-0.0009417092660441995,-0.0011906451545655727,0.0005614222027361393
1761316485760445000,3.97044482421875,-0.0007514255703426898,-0.0021937827114015818,-0.0019029253162443638
1761316485770427600,3.980427734375,0.0017263793852180243,-0.0010544825345277786,-0.0006845290772616863
1761316485780409900,3.990409912109375,-0.0005628501530736685,-0.0012220744974911213,-0.0016036075539886951
1761316485790392800,4.000392822265625,0.0016600904054939747,0.0004519885405898094,-0.0004270230419933796
1761316485800374800,4.010374755859375,0.0003745763096958399,-0.0004970910958945751,0.00039305933751165867
1761316485810357800,4.020357666015625,-0.0005530026974156499,0.0020022857934236526,-0.0003640775103121996
1761316485820340000,4.030340087890625,0.0008678539888933301,0.0009085759520530701,0.002509718993678689
1761316485830322700,4.04032275390625,0.00009287404827773571,0.0029030172154307365,0.00003244658000767231
1761316485840306000,4.050305908203125,0.0021631589625030756,0.0005283546634018421,-0.000125575577840209
1761316485850287900,4.060287841796875,-0.0014717895537614822,-0.0013550329022109509,0.0011034731287509203
1761316485860270800,4.070270751953125,-0.00039607344660907984,-0.00044441036880016327,0.0013415467692539096
1761316485870252800,4.080252685546875,-0.0011233827099204063,0.0014674728736281395,-0.0004254605155438185
1761316485880236000,4.090236083984375,-0.0020634280517697334,0.00011905655264854431,0.0009498222498223186
1761316485890217700,4.1002177734375,0.0001912042498588562,0.0008016247302293777,0.000395352253690362
1761316485900201000,4.110200927734375,-0.0012238026829436421,0.0010043862275779247,0.00018000486306846142
1761316485910184000,4.120183837890625,0.00010964204557240009,0.00012314645573496819,-0.0023334864526987076
1761316485920166000,4.130165771484375,0.0003824505256488919,-0.0004437025636434555,0.00029158988036215305
1761316485930148900,4.14014892578125,-0.001798145705834031,-0.0014519752003252506,0.0008276841836050153
1761316485940131000,4.150131103515625,0.001583776087500155,0.000258786603808403,-0.0008182467427104712
1761316485950114000,4.160114013671875,0.0003201061626896262,0.0008044680580496788,0.0002595346886664629
1761316485960096000,4.170095947265625,0.0019735079258680344,0.002012823708355427,0.002699541160836816
1761316485970079000,4.180078857421875,0.00023606151808053255,-0.0011222492903470993,0.0006180144846439362
1761316485980061000,4.19006103515625,0.001483385218307376,0.0005688006058335304,0.0008068474708124995
1761316485990044000,4.2000439453125,-0.00040772545617073774,0.00010168179869651794,0.001971181482076645
1761316486000027000,4.21002685546875,-0.0002900345716625452,0.0019428599625825882,-0.0001349078956991434
1761316486010008800,4.2200087890625,-0.00014143018051981926,0.0019037113524973392,-0.000502690440043807
1761316486019991800,4.22999169921875,-0.0023185862228274345,-0.0003859899006783962,-0.00035055563785135746
1761316486029974000,4.23997412109375,0.0013890666887164116,-0.0007540388032793999,0.0006425371393561363
1761316486039957000,4.24995703125,-0.003124551847577095,-0.001297956332564354,0.00020275358110666275
1761316486049939000,4.25993896484375,-0.001958620036020875,-0.0008862316608428955,-0.0031637484207749367
1761316486059922000,4.269921875,-0.00007864134386181831,-0.0016951696015894413,0.0014484903076663613
1761316486069904000,4.27990380859375,-0.0011673416011035442,-0.0022403185721486807,-0.00039947708137333393
1761316486079886800,4.289886962890625,0.0002434434136375785,0.00021471502259373665,-0.0009467918425798416
1761316486089870000,4.2998701171875,-0.0008782800287008286,-0.0002867579460144043,0.0017485935240983963
1761316486099851800,4.309851806640625,0.0010610853787511587,-0.0019501009956002235,-0.002984378719702363
1761316486109835000,4.3198349609375,0.00004189356695860624,-0.001285376027226448,0.00048438855446875095
1761316486119817000,4.32981689453125,0.0007649477338418365,-0.0006026416085660458,0.0016368089709430933
1761316486129800000,4.339800048828125,0.0002770565915852785,-0.00046628760173916817,0.00015715672634541988
1761316486139782000,4.349781982421875,0.0006253332830965519,-0.0017918762750923634,0.0005490782205015421
1761316486149765000,4.35976513671875,-0.0009643075172789395,0.000010285060852766037,0.002426606835797429
1761316486159747800,4.369747802734375,0.0020036990754306316,0.0006092889234423637,0.00041306461207568645
1761316486169730000,4.37972998046875,0.0010926314862444997,-0.0012021930888295174,0.0013688730541616678
1761316486179713000,4.389713134765625,-0.0014096470549702644,0.00303689856082201,0.00258231395855546
1761316486189695000,4.399695068359375,0.001754454686306417,0.00024271011352539062,0.0018731141462922096
1761316486199678000,4.409677978515625,0.0012581777991726995,-0.0006088297814130783,0.0016430483665317297
1761316486209660000,4.419659912109375,-0.0013802158646285534,-0.0007531731389462948,0.002048647962510586
1761316486219643000,4.429642822265625,0.0006833901861682534,0.0010646265000104904,-0.0016835166607052088
1761316486229625000,4.439625,0.000053020077757537365,-0.0019354245159775019,-0.0005908214952796698
1761316486239607800,4.44960791015625,-0.0011313635623082519,-0.0006388798356056213,0.00039051403291523457
1761316486249590800,4.4595908203125,-0.0009686443954706192,0.0007321154698729515,0.0010424559004604816
1761316486259573000,4.469572998046875,0.0006350022740662098,0.00008875783532857895,0.002507682191208005
1761316486269556000,4.479555908203125,0.0011543186847120523,0.0031250277534127235,-0.0014172845985740423
1761316486279538000,4.489537841796875,-0.0003769795875996351,0.0011324584484100342,0.0018379725515842438
1761316486289521000,4.49952099609375,0.000023559783585369587,-0.00008061155676841736,0.0013191888574510813
1761316486299502800,4.5095029296875,0.002863764762878418,-0.0011143935844302177,-0.0011562258005142212
1761316486309485800,4.51948583984375,0.0006642601219937205,-0.0003918777219951153,0.000251521123573184
1761316486319469000,4.529468994140625,0.0008207282517105341,0.00024159345775842667,0.0006744221318513155
1761316486329450800,4.53945068359375,0.0006628027185797691,0.0007715625688433647,0.0004224870353937149
1761316486339434000,4.54943408203125,0.0005111525533720851,-0.0018788662273436785,-0.0020090830512344837
1761316486349416000,4.559416015625,-0.0018318966031074524,-0.002953984308987856,-0.00112810917198658
1761316486359399000,4.56939892578125,-0.002441867720335722,0.0008699838072061539,-0.0017773499712347984
1761316486369380900,4.579380859375,0.0007991993334144354,0.0009173881262540817,-0.0004700042773038149
1761316486379364000,4.589364013671875,-0.0013105350080877542,0.0007518609054386616,-0.0005781608633697033
1761316486389345800,4.599345703125,-0.0006647183909080923,-0.003575776005163789,0.0010753957321867347
1761316486399329000,4.6093291015625,0.001214682008139789,-0.001710608135908842,0.0003644167445600033
1761316486409312000,4.61931201171875,-0.0003328808816149831,-0.0020421715453267097,0.00043525686487555504
1761316486419294000,4.6292939453125,0.001768502057529986,-0.000714785885065794,-0.0027293642051517963
1761316486429277000,4.63927685546875,-0.0003164868103340268,0.002454908099025488,0.0011130444472655654
1761316486439259000,4.6492587890625,0.0004950439324602485,-0.0005673347041010857,0.0025262446142733097
1761316486449241900,4.659241943359375,0.0009491130476817489,0.0032601607963442802,-0.001893270993605256
1761316486459224000,4.66922412109375,-0.0008238839218392968,-0.0009005093015730381,-0.0017919091042131186
1761316486469207000,4.67920703125,-0.0010278820991516113,-0.0008437838405370712,0.00020013563334941864
1761316486479189800,4.689189697265625,-0.0014693696284666657,0.0019251946359872818,0.001883676741272211
1761316486489172000,4.699171875,0.0021075219847261906,-0.00040480494499206543,-0.002932117320597172
1761316486499155000,4.709155029296875,0.00030394585337489843,0.0008951784111559391,0.0009659935021772981
1761316486509137000,4.719136962890625,0.0017050349852070212,0.0001825164072215557,-0.0013682669959962368
1761316486519120000,4.729119873046875,0.00017492135521024466,0.0013199327513575554,-0.0018133248668164015
1761316486529101800,4.739101806640625,-0.0015185828087851405,0.0007076719775795937,0.0028706430457532406
1761316486539084800,4.749084716796875,-0.0008632581448182464,0.0014314348809421062,-0.00006802217103540897
1761316486549067000,4.75906689453125,0.001642243703827262,0.0012383554130792618,0.0005660764873027802
1761316486559049700,4.7690498046875,0.0002973151858896017,-0.00001887138932943344,0.0017542478162795305
1761316486569033000,4.779032958984375,0.002253140788525343,0.0014378777705132961,0.0006509002996608615
1761316486579015000,4.789014892578125,0.001136693637818098,-0.0003573531284928322,0.0018888437189161777
1761316486588998000,4.798997802734375,0.0020895726047456264,-0.0002963668666779995,0.002981805009767413
1761316486598979800,4.808979736328125,-0.0006978190504014492,0.001129601150751114,-0.0004548777360469103
1761316486608963000,4.818963134765625,-0.001809955108910799,0.00009496323764324188,-0.0025113706942647696
1761316486618944800,4.82894482421875,-0.0014605895848944783,-0.0004246705211699009,0.0024028667248785496
1761316486628928000,4.838927978515625,0.0009692786261439323,-0.0023871539160609245,-0.0005931896157562733
1761316486638909700,4.84890966796875,-0.0017104295548051596,-0.004102280363440514,0.0005560878198593855
1761316486648893000,4.858892822265625,-0.003104860894382,-0.0022670957259833813,-0.0003288807347416878
1761316486658876000,4.8688759765625,0.0012457111151888967,-0.001714101992547512,0.0004642524290829897
1761316486668857900,4.87885791015625,0.0011082919081673026,0.00019618356600403786,0.0006272378377616405
1761316486678840800,4.8888408203125,0.0017742838244885206,-0.00280354218557477,0.003242436097934842
1761316486688823000,4.898822998046875,-0.0022766506299376488,-0.0021891507785767317,0.0002932515926659107
1761316486698806000,4.908805908203125,0.00010619126260280609,0.0021227579563856125,0.001970136072486639
1761316486708788000,4.9187880859375,0.0007650571642443538,-0.0014999397099018097,0.0009144588839262724
1761316486718771000,4.92877099609375,-0.00028025428764522076,-0.0002859528176486492,-0.001250992063432932
1761316486728754000,4.93875390625,0.002670528367161751,-0.0007805018685758114,-0.0007074407767504454
1761316486738735900,4.94873583984375,-0.00005595956463366747,-0.0019175533670932055,0.0006303642876446247
1761316486748719000,4.958718994140625,0.0012199608609080315,0.0003176378086209297,-0.0021758084185421467
1761316486758700800,4.96870068359375,0.0013582519022747874,0.00021133199334144592,0.0017616787226870656
1761316486768684000,4.97868408203125,-0.0009512413525953889,-0.0011530052870512009,-0.0004961492959409952
1761316486778666000,4.988666015625,-0.0009762408444657922,0.0005556377582252026,-0.0012017558328807354
1761316486788649000,4.99864892578125,-0.0016561459051445127,0.00047494424507021904,-0.000890698516741395
1761316486798631000,5.008630859375,-0.00041046319529414177,0.0010475413873791695,-0.0019196218345314264
1761316486808614000,5.01861376953125,-0.0009657322661951184,0.00004619313403964043,0.0021736565977334976
1761316486818596900,5.028596923828125,0.0012997911544516683,0.0011546164751052856,-0.0021949128713458776
1761316486828579000,5.0385791015625,-0.0011228864314034581,-0.00017536617815494537,0.00013189087621867657
1761316486838562000,5.04856201171875,-0.002899346174672246,0.0005942466668784618,0.0008507174206897616
1761316486848544000,5.0585439453125,-0.001111033488996327,-0.0008909986354410648,-0.0025970106944441795
1761316486858527000,5.06852685546875,-0.0014355119783431292,0.0018464787863194942,0.0020846037659794092
1761316486868509000,5.078509033203125,0.002061218488961458,0.00005869893357157707,-0.00034180236980319023
1761316486878492000,5.088491943359375,-0.002013971097767353,0.001010068692266941,0.0025725916493684053
1761316486888475000,5.098474853515625,-0.0005803914973512292,-0.0020016999915242195,0.0006207609549164772
1761316486898456800,5.108456787109375,0.001350710983388126,-0.00039428239688277245,0.0031242710538208485
1761316486908439800,5.118439697265625,-0.002081570914015174,-0.00048775970935821533,-0.00023237732239067554
1761316486918422000,5.128422119140625,-0.002984654624015093,-0.0016289614140987396,0.0002621235325932503
1761316486928405000,5.138405029296875,0.001117412350140512,0.0007955804467201233,-0.000037215882912278175
1761316486938387000,5.148386962890625,0.0006380586419254541,-0.002131203655153513,-0.0012928885407745838
1761316486948370000,5.158369873046875,0.00005056522786617279,-0.0019945832900702953,0.0015167462406679988
1761316486958352000,5.168351806640625,-0.001671269885264337,-0.0006690807640552521,-0.00015494320541620255
1761316486968334800,5.1783349609375,0.00249657710082829,-0.00022353418171405792,0.0005390767473727465
1761316486978318000,5.188318115234375,-0.001094033825211227,0.00010594259947538376,0.00029243924655020237
1761316486988299800,5.1982998046875,-0.00044635299127548933,-0.00007754936814308167,-0.001496672397479415
1761316486998283000,5.208282958984375,-0.00026602286379784346,0.0005847006104886532,-0.0009965398348867893
1761316487008265000,5.218264892578125,0.0010700850980356336,-0.0008528740145266056,0.00008044252172112465
1761316487018248000,5.228248046875,0.0006206397665664554,-0.0019493340514600277,0.001055755652487278
1761316487028230000,5.23822998046875,-0.0011266602668911219,0.003942643757909536,0.000018987106159329414
1761316487038213000,5.248213134765625,0.0006838798290118575,-0.0011951085180044174,0.001825341023504734
1761316487048195800,5.25819580078125,-0.0010599581291899085,-0.00007631490007042885,-0.0007400820031762123
1761316487058178000,5.268177978515625,-0.0000053639523684978485,0.0028787669725716114,-0.0009241853840649128
1761316487068161000,5.2781611328125,0.0018111781682819128,0.003044948447495699,-0.0021116887219250202
1761316487078143000,5.28814306640625,-0.0006316752405837178,-0.0008319737389683723,-0.0008930175099521875
1761316487088126000,5.2981259765625,0.0004578240914270282,0.0006077312864363194,-0.0010610627941787243
1761316487098108000,5.30810791015625,-0.00017258594743907452,0.004235763102769852,-0.0021132018882781267
1761316487108091000,5.3180908203125,0.0003959989408031106,-0.0015946957282721996,-0.0011331583373248577
1761316487118073000,5.328072998046875,0.0009163175709545612,-0.0001104278489947319,0.0006555053405463696
1761316487128055800,5.338055908203125,-0.0004514820175245404,0.002175630070269108,0.0002389869187027216
1761316487138038800,5.348038818359375,0.00027047761250287294,0.0002406863495707512,-0.0007390175014734268
1761316487148021000,5.35802099609375,0.00040310306940227747,0.0007464210502803326,0.0017768708057701588
1761316487158004000,5.36800390625,-0.0013338355347514153,-0.0006725015118718147,-0.0006527693476527929
1761316487167986000,5.37798583984375,-0.0012155912118032575,-0.0017947573214769363,-0.0011933911591768265
1761316487177969000,5.387968994140625,-0.0006484438781626523,-0.0007401215843856335,-0.00016846787184476852
1761316487187950800,5.397950927734375,0.001191267860122025,-0.0006668847054243088,-0.0030489428900182247
1761316487197933800,5.407933837890625,0.0018348300363868475,0.0019320417195558548,-0.000025018583983182907
1761316487207916000,5.417916015625,0.0010795574635267258,-0.001063215546309948,-0.0017866997513920069
1761316487217898800,5.427898681640625,-0.0013857587473466992,-0.0009259558282792568,-0.0010178103111684322
1761316487227882000,5.437882080078125,-0.0006523241754621267,-0.0012711011804640293,-0.0008835869375616312
1761316487237864000,5.447864013671875,0.0019628950394690037,-0.00039594294503331184,0.0007470572600141168
1761316487247847000,5.457846923828125,-0.002418271265923977,-0.0030849366448819637,0.0008096415549516678
1761316487257828900,5.467828857421875,0.0009136752923950553,0.0020908298902213573,-0.000825338764116168
1761316487267812000,5.47781201171875,-0.00021097762510180473,-0.0003787195309996605,-0.001071947393938899
1761316487277793800,5.487793701171875,0.00011363590601831675,-0.0002636765129864216,0.0021128973457962275
1761316487287777000,5.497777099609375,-0.0008176714763976634,-0.0014296085573732853,0.0005469587631523609
1761316487297760000,5.507760009765625,0.003097888082265854,0.0002728942781686783,0.0024837362580001354
1761316487307742000,5.517741943359375,0.001953528029844165,0.00010378379374742508,0.0018147502560168505
1761316487317725000,5.527724853515625,-0.0001825392246246338,-0.00012160791084170341,-0.0013708409387618303
1761316487327707000,5.537706787109375,-0.0011229014489799738,-0.0007905936799943447,0.0008302615024149418
1761316487337689900,5.54768994140625,-0.0004282090812921524,-0.0009953081607818604,-0.0000547084491699934
1761316487347672000,5.557672119140625,-0.0002939858241006732,0.000234273262321949,-0.0008107798639684916
1761316487357655000,5.567655029296875,-0.0023816039320081472,-0.002116344403475523,-0.00010569090954959393
1761316487367637000,5.577636962890625,-0.0019272686913609505,0.0005207178182899952,0.0004897918552160263
1761316487377620000,5.587619873046875,-0.0015145245706662536,0.0016986769624054432,0.0031984972301870584
1761316487387603000,5.59760302734375,-0.00002208910882472992,0.0029362482018768787,0.002173446584492922
1761316487397585000,5.6075849609375,0.00014293217100203037,-0.0012563830241560936,0.0006299561355262995
1761316487407568000,5.61756787109375,0.0018332405015826225,-0.0011948640458285809,-0.0005080127157270908
1761316487417549800,5.6275498046875,-0.00048388424329459667,0.0014704368077218533,0.0008845450356602669
1761316487427532800,5.63753271484375,-0.0015012117801234126,0.001860057469457388,-0.0001349130179733038
1761316487437515000,5.647514892578125,0.001680391957052052,-0.0015446320176124573,0.0003854555543512106
1761316487447497700,5.657497802734375,0.0005663918564096093,0.0005507431924343109,0.0019122457597404718
1761316487457481000,5.66748095703125,0.0007730599027127028,-0.00064869225025177,-0.002051906194537878
1761316487467463000,5.677462890625,-0.0014288416132330894,-0.0013080909848213196,0.002164676785469055
1761316487477446000,5.68744580078125,0.0007774382829666138,-0.00028532231226563454,0.00024696532636880875
1761316487487427800,5.697427734375,-0.0006092697149142623,0.0004393234848976135,0.0010267389006912708
1761316487497411000,5.7074111328125,-0.0009319777018390596,-0.001565293874591589,-0.0008294407743960619
1761316487507392800,5.717392822265625,-0.0016821902245283127,-0.0017423941753804684,0.0020635512191802263
1761316487517376000,5.7273759765625,0.0008810057770460844,-0.0013944320380687714,-0.00040350924246013165
1761316487527357700,5.737357666015625,0.0015665034297853708,-0.002460761461406946,-0.0007864718791097403
1761316487537341000,5.7473408203125,-0.0010331473313272,-0.0015679053030908108,0.00006460421718657017
1761316487547324000,5.757323974609375,0.000894182245247066,-0.0005428544245660305,-0.0003103688359260559
1761316487557305900,5.767305908203125,0.0013194961939007044,-0.0013683317229151726,-0.0006398449186235666
1761316487567288800,5.777288818359375,0.0003889877116307616,-0.0006609964184463024,0.0009713675826787949
1761316487577271000,5.78727099609375,0.00026630121283233166,0.00039558345451951027,0.0026308600790798664
1761316487587254000,5.79725390625,0.0007805575150996447,-0.0014768852852284908,-0.002544461051002145
1761316487597236000,5.807236083984375,-0.0001906182151287794,-0.001993641024455428,-0.0004947420675307512
1761316487607219000,5.817218994140625,-0.0016926410607993603,-0.0003893529064953327,-0.00010458892211318016
1761316487617201000,5.827200927734375,0.0021683729719370604,0.001038047019392252,0.0012323493137955666
1761316487627183900,5.837183837890625,-0.001833559013903141,0.00020687421783804893,0.001319967326708138
1761316487637167000,5.8471669921875,-0.0001166879665106535,0.0007074028253555298,0.0009237588383257389
1761316487647148800,5.857148681640625,-0.0012748967856168747,0.001777461264282465,0.0019141884986311197
1761316487657132000,5.867132080078125,-0.0009157118038274348,0.0004623900167644024,-0.0007125174161046743
1761316487667114000,5.877114013671875,0.0007506279507651925,0.0002866210415959358,-0.00012715463526546955
1761316487677097000,5.887096923828125,-0.0006027519120834768,0.001045584212988615,0.0015302990796044469
1761316487687079000,5.897078857421875,-0.00027385156136006117,0.0011598342098295689,-0.0022553845774382353
1761316487697062000,5.907061767578125,0.004049749579280615,0.0008642436005175114,-0.000017270445823669434
1761316487707044900,5.917044921875,0.0007258581463247538,0.001546013168990612,0.0017412148881703615
1761316487717027000,5.927027099609375,-0.0021819020621478558,-0.0013275882229208946,-0.0004960484802722931
1761316487727010000,5.937010009765625,-0.00011315860319882631,-0.0005954848602414131,0.0012403326109051704
1761316487736992000,5.946991943359375,0.00012173177674412727,-0.002907262882217765,-0.00034376163966953754
1761316487746975000,5.95697509765625,0.00002133066300302744,-0.0016803443431854248,0.0004107118584215641
1761316487756957000,5.96695703125,-0.001620159950107336,0.000010048504918813705,0.000538594787940383
1761316487766940000,5.97693994140625,0.0006448585772886872,-0.0005239150486886501,0.00022993446327745914
1761316487776922000,5.986922119140625,-0.00009656487964093685,-0.002164557110518217,0.00004891306161880493
1761316487786904800,5.99690478515625,0.0014509981265291572,-0.0009855758398771286,0.0017765056109055877
1761316487796887800,6.0068876953125,-0.0010550064034759998,0.001012503169476986,0.0017216256819665432
1761316487806870000,6.0168701171875,-0.0012089371448382735,-0.001963579561561346,-0.0018459451384842396
1761316487816853000,6.02685302734375,-0.0008146179607138038,-0.0002066018059849739,-0.0005041118711233139
1761316487826835000,6.0368349609375,0.0015401489799842238,-0.0029808166436851025,0.0011262752814218402
1761316487836818000,6.04681787109375,0.00022014835849404335,-0.0012309341691434383,0.0010546244448050857
1761316487846800000,6.0567998046875,0.0009096409194171429,0.0012735025957226753,-0.0007933429442346096
1761316487856782800,6.066782958984375,0.0004410573747009039,0.0011506075970828533,-0.0028366679325699806
1761316487866766000,6.07676611328125,-0.00033152569085359573,0.0016238512471318245,0.003378883469849825
1761316487876747800,6.086747802734375,0.0011422117240726948,-0.0020269283559173346,0.00043584383092820644
1761316487886731000,6.09673095703125,0.00021516531705856323,-0.0018138755112886429,0.0014150880742818117
1761316487896713200,6.106713134765625,0.0007575054187327623,0.00026443274691700935,0.0002629642840474844
1761316487906696200,6.1166962890625,-0.00032134109642356634,-0.0008200062438845634,0.0010818862356245518
1761316487916678100,6.12667822265625,-0.0027349260635674,-0.00022545456886291504,0.00018169358372688293
1761316487926661400,6.136661376953125,0.0011407722486183047,0.00005364511162042618,0.0012400337727740407
1761316487936643300,6.146643310546875,0.0019736699759960175,0.0013416758738458157,-0.000746098579838872
1761316487946626300,6.156626220703125,-0.00005832186434417963,-0.0009025703184306622,-0.00041080662049353123
1761316487956609300,6.166609375,-0.0012750646565109491,0.0010778075084090233,0.0003391304053366184
1761316487966591200,6.17659130859375,0.00030232558492571115,-0.0008425982668995857,-0.0010148207657039165
1761316487976574500,6.186574462890625,0.0008205282501876354,-0.0006614499725401402,-0.0007137469947338104
1761316487986556400,6.196556396484375,-0.0029121581465005875,-0.0015488150529563427,-0.000038369325920939445
1761316487996539400,6.206539306640625,-0.00017796445172280073,-0.0003758729435503483,0.001904540928080678
1761316488006521300,6.216521240234375,0.0015427038306370378,-0.00028585782274603844,-0.0009399813134223223
1761316488016504300,6.22650439453125,0.0019918757025152445,0.000421144999563694,-0.0002535118255764246
1761316488026487300,6.2364873046875,0.0007593648042529821,-0.0007359986193478107,0.0001654033549129963
1761316488036469200,6.24646923828125,0.0005151525838300586,-0.001984523143619299,0.000022814609110355377
1761316488046452200,6.2564521484375,-0.003999171778559685,-0.0018479027785360813,-0.0014160913415253162
1761316488056434400,6.266434326171875,-0.00046734337229281664,0.0007551009766757488,0.0012758435914292932
1761316488066417200,6.276417236328125,0.0009633066365495324,0.0007841293700039387,-0.0021322036627680063
1761316488076399400,6.2863994140625,0.0036478349938988686,-0.00006878748536109924,0.0015416520182043314
1761316488086382300,6.29638232421875,-0.0001112170284613967,-0.0009827842004597187,0.000040428247302770615
1761316488096364300,6.3063642578125,-0.00037052156403660774,-0.002332019619643688,-0.0027936985716223717
1761316488106347300,6.31634716796875,-0.0014794617891311646,0.0008147712796926498,-0.001980635803192854
1761316488116330500,6.32633056640625,-0.00023772462736815214,-0.0010062726214528084,0.0030630046967417
1761316488126312200,6.336312255859375,-0.0008984548621810973,0.0006704535335302353,0.0018922791350632906
1761316488136295400,6.34629541015625,-0.0014878292568027973,-0.0017496459186077118,-0.0003140158951282501
1761316488146277000,6.356277099609375,0.00012897583656013012,-0.001660163514316082,-0.0007459807675331831
1761316488156260400,6.36626025390625,-0.00036873144563287497,0.0003312467597424984,0.0011630692752078176
1761316488166242300,6.3762421875,0.00045525061432272196,-0.00034759286791086197,0.0018453712109476328
1761316488176225300,6.386225341796875,-0.0029501128010451794,-0.00006861379370093346,0.001622185343876481
1761316488186207200,6.396207275390625,-0.0016403701156377792,-0.002095279283821583,0.0016506811371073127
1761316488196190500,6.4061904296875,0.00010518101043999195,0.0005996609106659889,-0.0007323748432099819
1761316488206173400,6.41617333984375,0.00060505629517138,0.0007927399128675461,0.0007656532106921077
1761316488216155400,6.4261552734375,-0.00008098874241113663,0.0021568145602941513,-0.0018837498500943184
1761316488226138400,6.436138427734375,-0.0000932392431423068,0.00008088070899248123,0.0015479994472116232
1761316488236120300,6.446120361328125,-0.002919519320130348,0.0006763432174921036,0.0013817696599289775
1761316488246103300,6.456103271484375,0.0007119670044630766,-0.0015519238077104092,-0.00009308895096182823
1761316488256085500,6.46608544921875,0.001668676151894033,0.0011727060191333294,-0.0017787939868867397
1761316488266068200,6.476068115234375,0.0028167651034891605,0.0008885469287633896,0.0019019609317183495
1761316488276051200,6.48605126953125,-0.0023021260276436806,-0.0006758016534149647,-0.0008262819610536098
1761316488286033400,6.496033447265625,0.00009658327326178551,0.0014001321978867054,0.0011407288257032633
1761316488296016100,6.50601611328125,0.0031512128189206123,-0.00009104516357183456,0.00027932925149798393
1761316488305998300,6.515998291015625,-0.002073642797768116,0.0007782108150422573,7.62520357966423e-7
1761316488315981300,6.525981201171875,0.00006853940431028605,0.0008006710559129715,0.000580150168389082
1761316488325963300,6.53596337890625,0.0007479118648916483,-0.0013050907291471958,-0.00017885072156786919
1761316488335946200,6.5459462890625,0.0021278071217238903,0.001048254780471325,-0.0014298155438154936
1761316488345928200,6.55592822265625,0.0005514821968972683,-0.002296942053362727,0.0019119190983474255
1761316488355911200,6.5659111328125,-0.00028560287319123745,-0.0015202364884316921,-0.0009595961309969425
1761316488365894400,6.575894287109375,0.00036980106960982084,0.001133869867771864,-0.0004360186867415905
1761316488375876000,6.5858759765625,-0.0027346359565854073,-0.001978497486561537,-0.00019480986520648003
1761316488385859300,6.595859375,-0.0009979886235669255,0.0005989097990095615,-0.0009450223296880722
1761316488395841300,6.60584130859375,-0.000812659680377692,-0.002708652289584279,0.0026659639552235603
1761316488405824500,6.615824462890625,-0.0009828356560319662,-0.0011554965749382973,-0.0006121208425611258
1761316488415806200,6.62580615234375,-0.0009840227430686355,-0.00022585783153772354,-0.00030257413163781166
1761316488425789400,6.63578955078125,-0.001235691481269896,-0.0004913751035928726,0.0009744114940986037
1761316488435771100,6.645771240234375,0.003943565767258406,-0.0005930373445153236,-0.0009229369461536407
1761316488445754400,6.65575439453125,-0.0009454656392335892,0.00016117002815008163,0.00107869494240731
1761316488455737300,6.6657373046875,-0.0004786179633811116,-0.0030974268447607756,-0.00019168993458151817
1761316488465719300,6.67571923828125,0.0007347181672230363,0.0002443077974021435,0.0010674524819478393
1761316488475702300,6.685702392578125,-0.0001801647013053298,-0.0011461367830634117,0.000183535972610116
1761316488485684500,6.6956845703125,-0.0001354234991595149,-0.000531479250639677,0.0016290998319163918
1761316488495667200,6.705667236328125,-0.0012749384623020887,0.0001779845915734768,-0.00013092020526528358
1761316488505649400,6.7156494140625,0.0009804925648495555,0.0016845348291099072,-0.0008214779663830996
1761316488515632400,6.72563232421875,-0.0016618958907201886,-0.0009153326973319054,-0.0005710057448595762
1761316488525615000,6.735614990234375,0.0011432116152718663,-0.0002324981614947319,0.0009041192242875695
1761316488535597300,6.745597412109375,0.0015209181001409888,0.0018195416778326035,-0.00004562363028526306
1761316488545580300,6.755580322265625,0.0005110475467517972,0.0014696023426949978,0.0003866073675453663
1761316488555562200,6.765562255859375,0.0002148090861737728,0.0007752678357064724,0.0008192717796191573
1761316488565545200,6.775545166015625,0.0016870044637471437,0.002087673172354698,-0.0010031294077634811
1761316488575527200,6.785527099609375,0.0004614784847944975,-0.0009866058826446533,-0.00046751066111028194
1761316488585510100,6.79551025390625,0.00257602846249938,-0.0014795567840337753,-0.0008645879570394754
1761316488595492400,6.805492431640625,-0.0012111415853723884,0.016938114538788795,0.005842534825205803
1761316488605475000,6.81547509765625,-0.0012702636886388063,0.014601456001400948,0.0072444225661456585
1761316488615458300,6.825458251953125,-0.0008470249595120549,0.010417651385068893,0.0033131069503724575
1761316488625440300,6.835440185546875,-0.0027855397202074528,0.0041283294558525085,0.0023706143256276846
1761316488635423500,6.845423583984375,-0.0017683233600109816,-0.0001873834989964962,0.0012303409166634083
1761316488645405200,6.8554052734375,-0.0019129329593852162,-0.007714275736361742,-0.0023236474953591824
1761316488655388400,6.865388427734375,-0.0030248495750129223,-0.009045593440532684,-0.006304730661213398
1761316488665370000,6.8753701171875,-0.0012796802911907434,-0.008128933608531952,-0.0017179681453853846
1761316488675353300,6.885353271484375,-0.00007773085962980986,-0.008219171315431595,-0.0008346524555236101
1761316488685335300,6.895335205078125,-0.0013264871668070555,-0.005474783480167389,-0.00017978111281991005
1761316488695318300,6.905318359375,0.0021247630938887596,-0.0023101335391402245,-0.00034842779859900475
1761316488705301200,6.91530126953125,0.002002257853746414,-0.003561020130291581,-0.0008357863407582045
