time,seconds_elapsed,z,y,x
1761317111546842000,0.079842041015625,0.043790604919195175,-0.024380575865507126,0.11838795989751816
1761317111556824000,0.089823974609375,0.02503849007189274,-0.04211030527949333,0.12061116844415665
1761317111566807000,0.09980712890625,0.012583591975271702,-0.06089607998728752,0.10909123718738556
1761317111576790000,0.1097900390625,0.012386252172291279,-0.06106705591082573,0.08442610502243042
1761317111586773200,0.119773193359375,0.029103364795446396,-0.0423448272049427,0.052416831254959106
1761317111596756000,0.129755859375,0.046855200082063675,-0.026209799572825432,0.020573679357767105
1761317111606739000,0.139739013671875,0.062184009701013565,-0.015743540599942207,-0.0008588500786572695
1761317111616721200,0.14972119140625,0.06527620553970337,-0.01869831793010235,-0.015129932202398777
1761317111626704000,0.159703857421875,0.06305424869060516,-0.03024521842598915,-0.021692700684070587
1761317111636687000,0.16968701171875,0.04884228855371475,-0.04977018013596535,-0.022933734580874443
1761317111646670000,0.179670166015625,0.037183456122875214,-0.06407536566257477,-0.022950327023863792
1761317111656653000,0.189653076171875,0.01808459311723709,-0.07932702451944351,-0.016874324530363083
1761317111666636000,0.199635986328125,0.00491663021966815,-0.07648448646068573,0.0013452861458063126
1761317111676618000,0.209617919921875,-0.001786546315997839,-0.0625324547290802,0.025049284100532532
1761317111686601200,0.219601318359375,0.0035096360370516777,-0.05364780128002167,0.040821775794029236
1761317111696584000,0.229583984375,0.013639767654240131,-0.05264964699745178,0.05217935889959335
1761317111706567200,0.239567138671875,0.03313909471035004,-0.05647866427898407,0.05036309361457825
1761317111716550100,0.249550048828125,0.043363504111766815,-0.06849511712789536,0.038743723183870316
1761317111726533000,0.259533203125,0.05079758167266846,-0.08164529502391815,0.016825662925839424
1761317111736515000,0.26951513671875,0.056143347173929214,-0.08761929720640182,-0.008563051000237465
1761317111746498000,0.279498046875,0.05900149047374725,-0.09328001737594604,-0.034543704241514206
1761317111756481300,0.289481201171875,0.057147134095430374,-0.09804867953062057,-0.05618242174386978
1761317111766464000,0.299464111328125,0.053370214998722076,-0.09775111079216003,-0.07086167484521866
1761317111776447000,0.309447021484375,0.0487712025642395,-0.08859916031360626,-0.08100379258394241
1761317111786430200,0.31943017578125,0.049300454556941986,-0.07908718287944794,-0.07849755138158798
1761317111796412000,0.329411865234375,0.044414617121219635,-0.06555912643671036,-0.07920435070991516
1761317111806395100,0.33939501953125,0.05182105675339699,-0.0547940619289875,-0.08517110347747803
1761317111816378000,0.349378173828125,0.062145862728357315,-0.037041693925857544,-0.0982392355799675
1761317111826361000,0.359361083984375,0.0712459608912468,-0.02601628005504608,-0.10271655023097992
1761317111836344000,0.369343994140625,0.07719386368989944,-0.02178824692964554,-0.09521123021841049
1761317111846327000,0.3793271484375,0.0801660567522049,-0.015624122694134712,-0.06845486909151077
1761317111856309200,0.389309326171875,0.09085811674594879,-0.014897078275680542,-0.027381468564271927
1761317111866292000,0.3992919921875,0.09357044100761414,-0.015289069153368473,0.01332216989248991
1761317111876275000,0.40927490234375,0.09484076499938965,-0.019135206937789917,0.04867243766784668
1761317111886258200,0.419258056640625,0.08630391955375671,-0.021139033138751984,0.07105263322591782
1761317111896241200,0.4292412109375,0.07391329109668732,-0.037265270948410034,0.07374615222215652
1761317111906224000,0.43922412109375,0.0566583052277565,-0.059403035789728165,0.0491861030459404
1761317111916206000,0.4492060546875,0.04192729666829109,-0.07200217992067337,0.011447511613368988
1761317111926189300,0.459189208984375,0.025722527876496315,-0.0739704817533493,-0.03913351148366928
1761317111936172000,0.469172119140625,0.019041722640395164,-0.057658884674310684,-0.09130536764860153
1761317111946155000,0.479155029296875,0.02008926123380661,-0.026478920131921768,-0.126700296998024
1761317111956138200,0.48913818359375,0.02057022787630558,-0.0032918425276875496,-0.13777798414230347
1761317111966121000,0.499120849609375,0.021336151286959648,0.03128041699528694,-0.11598534137010574
1761317111976103200,0.509103271484375,0.029790623113512993,0.06342237442731857,-0.07693567872047424
1761317111986086100,0.519086181640625,0.04124988242983818,0.06081252172589302,-0.041834719479084015
1761317111996069000,0.529069091796875,0.04949476569890976,0.036938346922397614,-0.011073347181081772
1761317112006052000,0.539052001953125,0.0637320876121521,0.013839513063430786,0.013322528451681137
1761317112016035000,0.54903515625,0.07348884642124176,-0.024254076182842255,0.027575233951210976
1761317112026018000,0.55901806640625,0.07148948311805725,-0.05510437861084938,0.031129997223615646
1761317112036000000,0.569,0.06472984701395035,-0.06984764337539673,0.03182961046695709
1761317112045983000,0.57898291015625,0.04697081446647644,-0.06756721436977386,0.014461053535342216
1761317112055966200,0.58896630859375,0.0324893444776535,-0.059322334825992584,-0.007974213920533657
1761317112065949000,0.598948974609375,0.018357209861278534,-0.04952235892415047,-0.0335266999900341
1761317112075932000,0.608931884765625,0.004031267017126083,-0.04496915265917778,-0.053868722170591354
1761317112085915100,0.6189150390625,-0.008699603378772736,-0.03758636862039566,-0.06075340881943703
1761317112095896800,0.628896728515625,-0.008035678416490555,-0.02571958675980568,-0.04983924701809883
1761317112105880000,0.638880126953125,-0.0018170323455706239,-0.026156486943364143,-0.026323650032281876
1761317112115863000,0.648863037109375,0.0009779551764950156,-0.04009281098842621,-0.0016907411627471447
1761317112125846300,0.65884619140625,0.0030734562315046787,-0.05966103449463844,0.01396414265036583
1761317112135829000,0.6688291015625,0.014349013566970825,-0.09291566163301468,0.011434671469032764
1761317112145812000,0.67881201171875,0.027277491986751556,-0.11625770479440689,-0.0032330697868019342
1761317112155794200,0.688794189453125,0.05904394015669823,-0.13369236886501312,-0.02586035244166851
1761317112165777000,0.69877685546875,0.05766121670603752,-0.1316959261894226,-0.03465752303600311
1761317112175760100,0.708760009765625,0.04530361667275429,-0.1256484091281891,-0.04503852501511574
1761317112185743000,0.7187431640625,0.020639169961214066,-0.1124572604894638,-0.04753264784812927
1761317112195726000,0.72872607421875,0.005379789974540472,-0.09646044671535492,-0.05191195011138916
1761317112205709000,0.738708984375,-0.0005566985346376896,-0.08438555151224136,-0.05286921560764313
1761317112215691000,0.74869091796875,0.0010023158974945545,-0.0823916494846344,-0.04597296193242073
1761317112225674200,0.75867431640625,0.0031224587000906467,-0.07767412066459656,-0.03539168834686279
1761317112235657000,0.768656982421875,-0.0045296018943190575,-0.0830174908041954,-0.016755953431129456
1761317112245640000,0.778639892578125,-0.013817921280860901,-0.10129330307245255,0.00043879239819943905
1761317112255623200,0.788623046875,-0.011168076656758785,-0.12252268940210342,0.021685756742954254
1761317112265606100,0.798606201171875,-0.01623968407511711,-0.13802243769168854,0.049729712307453156
1761317112275588000,0.808588134765625,-0.03297924995422363,-0.1352466344833374,0.07108773291110992
1761317112285571000,0.818571044921875,-0.04807417094707489,-0.12805545330047607,0.07554983347654343
1761317112295554000,0.828553955078125,-0.05553581565618515,-0.12903256714344025,0.06178954616189003
1761317112305537000,0.838537109375,-0.05631157383322716,-0.12342216819524765,0.029825929552316666
1761317112315520000,0.84852001953125,-0.05908206105232239,-0.13062548637390137,-0.01275268942117691
1761317112325503200,0.858503173828125,-0.05867672711610794,-0.13349157571792603,-0.05535900592803955
1761317112335485000,0.86848486328125,-0.06214762479066849,-0.13264495134353638,-0.08197464048862457
1761317112345468200,0.87846826171875,-0.06224428489804268,-0.14349587261676788,-0.08683601766824722
1761317112355451100,0.888451171875,-0.0546548068523407,-0.15873047709465027,-0.0812780037522316
1761317112365434000,0.89843408203125,-0.04803888499736786,-0.17916026711463928,-0.05968790501356125
1761317112375417000,0.9084169921875,-0.04117458313703537,-0.18856415152549744,-0.033607833087444305
1761317112385399000,0.91839892578125,-0.03598930686712265,-0.17293716967105865,0.0019108604174107313
1761317112395382300,0.92838232421875,-0.03261374682188034,-0.16223792731761932,0.032512180507183075
1761317112405365000,0.938364990234375,-0.026578782126307487,-0.1530074179172516,0.05491744726896286
1761317112415348000,0.948347900390625,-0.01787317544221878,-0.148382306098938,0.06616237759590149
1761317112425331200,0.958331298828125,-0.004751571454107761,-0.1504625529050827,0.06528030335903168
1761317112435314200,0.968314208984375,0.010042554698884487,-0.16025792062282562,0.05446547269821167
1761317112445296000,0.978296142578125,0.026263335719704628,-0.16053356230258942,0.029467178508639336
1761317112455279000,0.988279052734375,0.03404588997364044,-0.1586749404668808,0.007975734770298004
1761317112465262000,0.998261962890625,0.03694981336593628,-0.1623622179031372,-0.023908475413918495
1761317112475245000,1.0082451171875,0.03624008223414421,-0.17571903765201569,-0.053803253918886185
1761317112485228000,1.01822802734375,0.031916845589876175,-0.18516577780246735,-0.09073173999786377
1761317112495211000,1.0282109375,0.020133689045906067,-0.19069316983222961,-0.11938042938709259
1761317112505193000,1.03819287109375,-0.0013400622410699725,-0.18856839835643768,-0.13469965755939484
1761317112515176000,1.048176025390625,-0.024406764656305313,-0.1840846985578537,-0.1410132199525833
1761317112525159000,1.058158935546875,-0.038807276636362076,-0.16732782125473022,-0.14221829175949097
1761317112535142000,1.068141845703125,-0.04973103106021881,-0.15332891047000885,-0.1376776099205017
1761317112545125000,1.078125,-0.05204601213335991,-0.14568550884723663,-0.13239803910255432
1761317112555107800,1.08810791015625,-0.04655963554978371,-0.12926073372364044,-0.1196308434009552
1761317112565090000,1.098090087890625,-0.037342630326747894,-0.10719960927963257,-0.1021605134010315
1761317112575073000,1.108072998046875,-0.028545144945383072,-0.0910901427268982,-0.08675918728113174
1761317112585055700,1.1180556640625,-0.02612357772886753,-0.08225076645612717,-0.0739888846874237
1761317112595039000,1.1280390625,-0.030793430283665657,-0.08414240926504135,-0.06739196926355362
1761317112605022000,1.13802197265625,-0.0365423820912838,-0.08381976187229156,-0.065230593085289
1761317112615005000,1.1480048828125,-0.04140930995345116,-0.08152758330106735,-0.07164641469717026
1761317112624987000,1.15798681640625,-0.04294218122959137,-0.07477841526269913,-0.07693430781364441
1761317112634969900,1.167969970703125,-0.04387002810835838,-0.061885517090559006,-0.08542206138372421
1761317112644953000,1.177953125,-0.05177314206957817,-0.041808780282735825,-0.09324329346418381
1761317112654935800,1.187935791015625,-0.05626669526100159,-0.027666328474879265,-0.0923098549246788
1761317112664918800,1.197918701171875,-0.056526534259319305,-0.017000306397676468,-0.0786295235157013
1761317112674902000,1.207902099609375,-0.0495770201086998,-0.007435031235218048,-0.05518544837832451
1761317112684883700,1.2178837890625,-0.04053901508450508,-0.019101493060588837,-0.033669643104076385
1761317112694867000,1.227866943359375,-0.03246670588850975,-0.038887981325387955,-0.016707438975572586
1761317112704850000,1.237849853515625,-0.027890780940651894,-0.04663372412323952,0.00046030618250370026
1761317112714833000,1.2478330078125,-0.02480843849480152,-0.05138640105724335,0.01663767732679844
1761317112724816000,1.25781591796875,-0.018383018672466278,-0.0484856478869915,0.02356318198144436
1761317112734798800,1.267798828125,-0.01412142999470234,-0.03245847672224045,0.026204237714409828
1761317112744781000,1.277781005859375,-0.010217743925750256,-0.003820698242634535,0.025595080107450485
1761317112754763800,1.287763671875,-0.011400986462831497,0.018601521849632263,0.01665351912379265
1761317112764747000,1.2977470703125,-0.008885955438017845,0.034655265510082245,0.013330657035112381
1761317112774730000,1.30772998046875,-0.00450691906735301,0.04150491580367088,0.02553512528538704
1761317112784712700,1.317712646484375,0.0012536022113636136,0.035265903919935226,0.0418979711830616
1761317112794695000,1.32769482421875,0.008012439124286175,0.016154523938894272,0.06576335430145264
1761317112804678000,1.337677978515625,0.01706375926733017,-0.004386389162391424,0.08817904442548752
1761317112814661000,1.3476611328125,0.029182739555835724,-0.016517620533704758,0.10232016444206238
1761317112824643800,1.357643798828125,0.04636933282017708,-0.0327552929520607,0.11260628700256348
1761317112834626800,1.367626708984375,0.05830375850200653,-0.04268302395939827,0.12328396737575531
1761317112844610000,1.377610107421875,0.07380659133195877,-0.04807227849960327,0.124099500477314
1761317112854591700,1.387591796875,0.08387813717126846,-0.053259316831827164,0.10904119163751602
1761317112864575000,1.397574951171875,0.08945417404174805,-0.06919834017753601,0.08258119225502014
1761317112874558000,1.407557861328125,0.09014979004859924,-0.08730623126029968,0.03968752175569534
1761317112884540700,1.417540771484375,0.08890600502490997,-0.11574846506118774,-0.0005844288971275091
1761317112894524000,1.42752392578125,0.07708635926246643,-0.14870800077915192,-0.026875687763094902
1761317112904507000,1.4375068359375,0.05366351455450058,-0.1689816415309906,-0.021026263013482094
1761317112914488800,1.44748876953125,0.03452576696872711,-0.1508876085281372,0.009820066392421722
1761317112924471800,1.457471923828125,0.01546243391931057,-0.11135221272706985,0.04255203157663345
1761317112934455000,1.467455078125,0.002108012791723013,-0.07495984435081482,0.06920254975557327
1761317112944438000,1.47743798828125,-0.008769203908741474,-0.05817030370235443,0.07667938619852066
1761317112954420700,1.487420654296875,-0.00926268845796585,-0.04155777022242546,0.07449053227901459
1761317112964404000,1.497404052734375,-0.01336671318858862,-0.04027166962623596,0.07105409353971481
1761317112974386000,1.507385986328125,-0.0158154908567667,-0.05203618109226227,0.06863407790660858
1761317112984369000,1.517368896484375,-0.018194444477558136,-0.0574512705206871,0.07478632777929306
1761317112994351900,1.527351806640625,-0.02266722545027733,-0.04419218748807907,0.08750452101230621
1761317113004334800,1.5373349609375,-0.02682090923190117,-0.031654808670282364,0.0886838510632515
1761317113014318000,1.547318115234375,-0.031209798529744148,-0.033886536955833435,0.08028077334165573
1761317113024299800,1.5572998046875,-0.023550039157271385,-0.04766866937279701,0.06477834284305573
1761317113034283000,1.567282958984375,-0.019502034410834312,-0.06824985146522522,0.04460010305047035
1761317113044266000,1.577265869140625,-0.024524059146642685,-0.08762341737747192,0.02283264324069023
1761317113054248700,1.587248779296875,-0.032162804156541824,-0.08870173245668411,0.007770069874823093
1761317113064232000,1.59723193359375,-0.03728261590003967,-0.07009314745664597,-0.0012443950399756432
1761317113074215000,1.60721484375,-0.03600749373435974,-0.04177602380514145,0.00695814099162817
1761317113084196900,1.61719677734375,-0.02881169132888317,-0.005174390971660614,0.022692328318953514
1761317113094179800,1.627179931640625,-0.024342108517885208,0.012930842116475105,0.04125402867794037
1761317113104162800,1.637162841796875,-0.025019755586981773,0.0061327386647462845,0.04678463563323021
1761317113114146000,1.64714599609375,-0.023403482511639595,-0.011853719130158424,0.03714719042181969
1761317113124128800,1.657128662109375,-0.026256157085299492,-0.03314455598592758,0.023582495748996735
1761317113134112000,1.667112060546875,-0.02720051445066929,-0.04250742867588997,0.01290907897055149
1761317113144094000,1.677093994140625,-0.019542815163731575,-0.04916151985526085,0.002261308254674077
1761317113154077000,1.687076904296875,-0.008562603034079075,-0.041786160320043564,0.0009952413383871317
1761317113164060000,1.697059814453125,-0.0024425990413874388,-0.027141017839312553,0.009272648021578789
1761317113174043000,1.70704296875,-0.006205113139003515,-0.0002976851537823677,0.020996682345867157
1761317113184026000,1.717026123046875,-0.012521668337285519,0.03816322982311249,0.03165120258927345
1761317113194008800,1.7270087890625,-0.019986774772405624,0.07068229466676712,0.03753891959786415
1761317113203991000,1.736990966796875,-0.019635390490293503,0.07160534709692001,0.03541617840528488
1761317113213974000,1.74697412109375,-0.018440162762999535,0.04648694768548012,0.022486800327897072
1761317113223956700,1.756956787109375,-0.015010936185717583,0.01755901239812374,0.007362686563283205
1761317113233940000,1.76693994140625,-0.010345877148211002,-0.01868234947323799,-0.01027782540768385
1761317113243923000,1.7769228515625,-0.016503985971212387,-0.07571027427911758,-0.03412903845310211
1761317113253905000,1.78690478515625,-0.02411716617643833,-0.1455380916595459,-0.06714770942926407
1761317113263888000,1.796887939453125,-0.031616777181625366,-0.2112187296152115,-0.09762752056121826
1761317113273870800,1.806870849609375,-0.022355370223522186,-0.24024346470832825,-0.1207064688205719
1761317113283854000,1.81685400390625,-0.004643735941499472,-0.21030423045158386,-0.11332955956459045
1761317113293836800,1.8268369140625,0.00870722346007824,-0.13955095410346985,-0.0935574546456337
1761317113303819800,1.83681982421875,0.03226001188158989,-0.045360323041677475,-0.05006107687950134
1761317113313802000,1.846802001953125,0.04843791574239731,0.03691111132502556,-0.0058163832873106
1761317113323784700,1.85678466796875,0.05590737611055374,0.08243405818939209,0.03394876793026924
1761317113333768000,1.866767822265625,0.05981689691543579,0.08827889710664749,0.06333622336387634
1761317113343751000,1.8767509765625,0.056801870465278625,0.06255074590444565,0.0781974270939827
1761317113353734100,1.886734130859375,0.057214394211769104,0.030375229194760323,0.08294983208179474
1761317113363716900,1.896716796875,0.05318516120314598,-0.0024948567152023315,0.07030677050352097
1761317113373699000,1.906698974609375,0.0418534129858017,-0.03918709233403206,0.04627227038145065
1761317113383682000,1.91668212890625,0.029419368132948875,-0.06622114777565002,0.013682946562767029
1761317113393664800,1.926664794921875,0.0229478869587183,-0.06231801211833954,-0.013842420652508736
1761317113403648000,1.93664794921875,0.023822421208024025,-0.027629025280475616,-0.03432407230138779
1761317113413631000,1.946630859375,0.01952274702489376,0.008340959437191486,-0.045149289071559906
1761317113423613000,1.956613037109375,0.018169526010751724,0.04251694306731224,-0.04155827313661575
1761317113433596000,1.966595947265625,0.019627075642347336,0.05351872742176056,-0.03139059245586395
1761317113443579000,1.976578857421875,0.017536666244268417,0.04099022224545479,-0.023032423108816147
1761317113453562000,1.98656201171875,0.014941148459911346,0.010818470269441605,-0.01363013219088316
1761317113463544800,1.996544921875,0.010992814786732197,-0.020252274349331856,-0.009468689560890198
1761317113473527800,2.00652783203125,0.01640355959534645,-0.03814152628183365,-0.00391759630292654
1761317113483510000,2.016510009765625,0.02102632075548172,-0.03949359059333801,-0.0009707265999168158
1761317113493492700,2.02649267578125,0.03511684015393257,-0.021287690848112106,0.012946154922246933
1761317113503476200,2.036476318359375,0.041300226002931595,0.001596374437212944,0.019913818687200546
1761317113513459200,2.046459228515625,0.03837474435567856,0.01825125142931938,0.016792859882116318
1761317113523442200,2.056442138671875,0.02369687147438526,0.02299312688410282,0.007625170983374119
1761317113533425200,2.066425048828125,0.01135098934173584,0.01829957216978073,-0.012803405523300171
1761317113543407000,2.076406982421875,-0.0037907150108367205,0.009320579469203949,-0.031082404777407646
1761317113553390300,2.086390380859375,-0.010087759234011173,0.012629557400941849,-0.03863033652305603
1761317113563373000,2.096373046875,-0.01234219316393137,0.004659686703234911,-0.04123489558696747
1761317113573356000,2.10635595703125,-0.00942896120250225,-0.01846534013748169,-0.035868894308805466
1761317113583339300,2.11633935546875,-0.0022234548814594746,-0.029370129108428955,-0.025366416200995445
1761317113593322200,2.126322265625,0.007266187109053135,-0.03706400468945503,-0.012272985652089119
1761317113603304200,2.13630419921875,0.012287980876863003,-0.03306950628757477,-0.00230213301256299
1761317113613287200,2.146287109375,0.009002972394227982,-0.024811312556266785,0.004574148915708065
1761317113623270400,2.1562705078125,0.0025772731751203537,-0.012940545566380024,0.005319925956428051
1761317113633253000,2.166253173828125,-0.007388807833194733,-0.003877275623381138,-0.002334265038371086
1761317113643236000,2.176236083984375,-0.011755385436117649,0.0013328781351447105,-0.010244953446090221
1761317113653218300,2.18621826171875,-0.01966976746916771,0.01123078353703022,-0.01725572533905506
1761317113663201000,2.196200927734375,-0.021573927253484726,0.023459753021597862,-0.01014748215675354
1761317113673184300,2.206184326171875,-0.020321441814303398,0.022282103076577187,-0.0035335212014615536
1761317113683167200,2.216167236328125,-0.01599261350929737,0.0180995874106884,0.005720986984670162
1761317113693150200,2.226150146484375,-0.01147482544183731,0.0207371823489666,0.017432503402233124
1761317113703133200,2.23613330078125,-0.016118047758936882,0.017402904108166695,0.02505926601588726
1761317113713115100,2.246115234375,-0.026163224130868912,0.012479785829782486,0.03120184689760208
1761317113723098400,2.256098388671875,-0.02928607165813446,0.01055590994656086,0.028254084289073944
1761317113733081000,2.2660810546875,-0.03181580826640129,0.014028672128915787,0.02449529990553856
1761317113743064000,2.27606396484375,-0.03823239356279373,0.005772384814918041,0.018458839505910873
1761317113753047300,2.28604736328125,-0.04568897932767868,-0.007168713957071304,0.007627230137586594
1761317113763030300,2.2960302734375,-0.047688908874988556,-0.014572063460946083,-0.0059113651514053345
1761317113773012200,2.30601220703125,-0.04532801732420921,-0.017420047894120216,-0.022460514679551125
1761317113782995200,2.3159951171875,-0.04426284506917,-0.022638877853751183,-0.04248897731304169
1761317113792978200,2.325978271484375,-0.03951948881149292,-0.01714211329817772,-0.05814650282263756
1761317113802961200,2.335961181640625,-0.037850819528102875,-0.0037654144689440727,-0.06286481022834778
1761317113812944100,2.345944091796875,-0.030037105083465576,0.010702474974095821,-0.05945489928126335
1761317113822926300,2.35592626953125,-0.016759023070335388,0.031517840921878815,-0.03895505890250206
1761317113832909000,2.365908935546875,-0.003664261195808649,0.04784302040934563,-0.014349579811096191
1761317113842892300,2.375892333984375,0.01173505000770092,0.03645401820540428,-0.0030864703003317118
1761317113852875300,2.385875244140625,0.019041964784264565,0.00718694506213069,0.0031823446042835712
1761317113862858200,2.395858154296875,0.03134975582361221,-0.018383696675300598,-0.0029274318367242813
1761317113872841200,2.40584130859375,0.03765851631760597,-0.019551493227481842,-0.0012115573044866323
1761317113882823200,2.4158232421875,0.038464583456516266,-0.0034909609239548445,-0.0007438946049660444
1761317113892806400,2.425806396484375,0.03619211167097092,0.020610380917787552,0.013437970541417599
1761317113902789000,2.4357890625,0.03662259504199028,0.0525742843747139,0.020794223994016647
1761317113912772000,2.445772216796875,0.0390109159052372,0.057912059128284454,0.0219524335116148
1761317113922755300,2.45575537109375,0.04209518060088158,0.028898200020194054,0.020963899791240692
1761317113932738300,2.46573828125,0.04188878461718559,0.010509071871638298,0.01710045337677002
1761317113942720300,2.47572021484375,0.03788202255964279,0.010504232719540596,0.026747092604637146
1761317113952703200,2.485703125,0.03568704426288605,0.011083470657467842,0.03075701743364334
1761317113962686200,2.495686279296875,0.03499817103147507,0.00735164899379015,0.03131675720214844
1761317113972669200,2.505669189453125,0.03440055623650551,0.0012705866247415543,0.023549379780888557
1761317113982652200,2.515652099609375,0.04029908776283264,-0.0005105072632431984,0.014393316581845284
1761317113992634400,2.52563427734375,0.045315418392419815,-0.012553321197628975,0.0027678189799189568
1761317114002617000,2.5356171875,0.04772936552762985,-0.012588687241077423,-0.0015800227411091328
1761317114012600000,2.54560009765625,0.04705078899860382,0.0025268830358982086,-0.0006127627566456795
1761317114022583300,2.555583251953125,0.04627293720841408,0.03219631314277649,0.009447894059121609
1761317114032566300,2.565566162109375,0.04105101153254509,0.054135698825120926,0.019019294530153275
1761317114042549200,2.57554931640625,0.03460845723748207,0.0689011961221695,0.0207544956356287
1761317114052531200,2.58553125,0.03822343051433563,0.05953884869813919,0.015137623064219952
1761317114062514400,2.595514404296875,0.033579710870981216,0.038569435477256775,0.0031793585512787104
1761317114072497200,2.6054970703125,0.030150359496474266,0.01874486356973648,-0.000021494925022125244
1761317114082480000,2.615480224609375,0.01711832918226719,0.019271261990070343,0.014145120978355408
1761317114092463400,2.62546337890625,0.008232159540057182,0.023893974721431732,0.03726029396057129
1761317114102446300,2.6354462890625,0.005434926133602858,0.025455009192228317,0.05791144073009491
1761317114112428300,2.64542822265625,0.01175647135823965,0.02168503776192665,0.062203388661146164
1761317114122411300,2.655411376953125,0.021343989297747612,0.007702660281211138,0.046991657465696335
1761317114132394200,2.665394287109375,0.024897446855902672,-0.012797022238373756,0.028917580842971802
1761317114142377200,2.675377197265625,0.01900595612823963,-0.02499730885028839,0.00818612426519394
1761317114152360200,2.685360107421875,0.009133617393672466,-0.01867895945906639,0.0026070685125887394
1761317114162342400,2.69534228515625,-0.005363299511373043,-0.010643670335412025,0.0024347619619220495
1761317114172325000,2.7053251953125,-0.021425889804959297,-0.01163170300424099,0.004983407445251942
1761317114182308000,2.71530810546875,-0.033292192965745926,-0.012751083821058273,0.0061232056468725204
1761317114192291300,2.725291259765625,-0.03399500250816345,-0.011128952726721764,0.0026658896822482347
1761317114202274000,2.735274169921875,-0.03482559695839882,-0.024024061858654022,-0.00987112708389759
1761317114212257000,2.745257080078125,-0.029373040422797203,-0.03693240135908127,-0.02255123481154442
1761317114222239200,2.7552392578125,-0.026538727805018425,-0.025667771697044373,-0.019983043894171715
1761317114232222200,2.76522216796875,-0.028574980795383453,-0.004186447709798813,-0.0027300219517201185
1761317114242205200,2.775205078125,-0.028523433953523636,0.015176288783550262,0.008886615745723248
1761317114252188200,2.785188232421875,-0.028717312961816788,0.017849570140242577,0.015561296604573727
1761317114262171400,2.79517138671875,-0.0249110646545887,0.00906209647655487,0.010093863122165203
1761317114272154000,2.805154052734375,-0.023499587550759315,-0.014185435138642788,-0.007646252401173115
1761317114282136300,2.81513623046875,-0.01926669105887413,-0.029862208291888237,-0.02301137149333954
1761317114292119300,2.825119384765625,-0.013488429598510265,-0.027877086773514748,-0.029065003618597984
1761317114302102000,2.83510205078125,-0.01771852746605873,-0.02387213334441185,-0.02545563317835331
1761317114312085200,2.845085205078125,-0.017071112990379333,-0.03627287596464157,-0.017588920891284943
1761317114322068200,2.855068115234375,-0.013388006016612053,-0.0383380763232708,-0.01422569528222084
1761317114332050200,2.86505029296875,-0.006234489846974611,-0.04051467776298523,-0.013553246855735779
1761317114342033200,2.875033203125,0.0025697825476527214,-0.047087110579013824,-0.021299026906490326
1761317114352016100,2.88501611328125,0.008794122375547886,-0.045647941529750824,-0.029969215393066406
1761317114361999400,2.894999267578125,0.02045741304755211,-0.014076704159379005,-0.023516550660133362
1761317114371982000,2.904982177734375,0.02618320845067501,0.008876016363501549,-0.012621558271348476
1761317114381965000,2.914965087890625,0.025217315182089806,0.0100451884791255,-0.003300900338217616
1761317114391947300,2.924947265625,0.01705233007669449,0.008548757992684841,0.008534453809261322
1761317114401930000,2.934929931640625,0.016119608655571938,0.0072859241627156734,0.011756137944757938
1761317114411913200,2.944913330078125,0.016347043216228485,-0.0013373913243412971,0.008451421745121479
1761317114421896200,2.954896240234375,0.022050168365240097,-0.008134623989462852,-0.007132724858820438
1761317114431879200,2.964879150390625,0.02368907816708088,-0.0046469480730593204,-0.026105884462594986
1761317114441862100,2.974862060546875,0.019963592290878296,0.013517710380256176,-0.03504376485943794
1761317114451844000,2.984843994140625,0.013259617611765862,0.014812539331614971,-0.04418213665485382
1761317114461827300,2.994827392578125,0.007314979564398527,-0.00047114724293351173,-0.05920504033565521
1761317114471810000,3.00481005859375,-0.0011706510558724403,-0.02408965677022934,-0.058684393763542175
1761317114481793300,3.014793212890625,-0.0035679927095770836,-0.04204747453331947,-0.06037936359643936
1761317114491776300,3.0247763671875,-0.0011269394308328629,-0.05058396980166435,-0.061783649027347565
1761317114501758000,3.034758056640625,-0.005252976436167955,-0.06792125105857849,-0.06578478217124939
1761317114511741000,3.044740966796875,-0.012324734590947628,-0.0640663206577301,-0.06538770347833633
1761317114521724000,3.054723876953125,-0.016171682626008987,-0.03780876100063324,-0.05591479688882828
1761317114531707100,3.06470703125,-0.009318303316831589,-0.01987023837864399,-0.04568692669272423
1761317114541689900,3.07468994140625,-0.010323438793420792,-0.017870260402560234,-0.048454515635967255
1761317114551672800,3.0846728515625,-0.0008630914962850511,-0.01791074126958847,-0.057790495455265045
1761317114561655000,3.094655029296875,0.001623143325559795,-0.010728294961154461,-0.058727823197841644
1761317114571637800,3.1046376953125,0.005844519939273596,0.003273274749517441,-0.04985124245285988
1761317114581621000,3.11462109375,0.0022808057256042957,0.00893673487007618,-0.04132936894893646
1761317114591604000,3.12460400390625,-0.00034134264569729567,0.00954686664044857,-0.03146262466907501
1761317114601587000,3.1345869140625,-0.004634323995560408,0.0127208661288023,-0.021716926246881485
1761317114611570000,3.14456982421875,-0.00757978018373251,0.022192398086190224,-0.019022073596715927
1761317114621551900,3.1545517578125,-0.009437207132577896,0.017688974738121033,-0.024014411494135857
1761317114631535000,3.16453515625,-0.00843745656311512,0.0020650075748562813,-0.03620316833257675
1761317114641517800,3.174517822265625,-0.014196554198861122,-0.012951096519827843,-0.056801337748765945
1761317114651501000,3.1845009765625,-0.014730251394212246,-0.023374976590275764,-0.06680364161729813
1761317114661484000,3.194484130859375,-0.013973299413919449,-0.01446184329688549,-0.06881411373615265
1761317114671467000,3.204467041015625,-0.015311270952224731,-0.008527255617082119,-0.07099604606628418
1761317114681449000,3.214448974609375,-0.01973969116806984,-0.015898730605840683,-0.07175138592720032
1761317114691432000,3.224431884765625,-0.021800179034471512,-0.015440399758517742,-0.07444784045219421
1761317114701415200,3.234415283203125,-0.022875333204865456,-0.006512033753097057,-0.06844040751457214
1761317114711398000,3.24439794921875,-0.01850322261452675,-0.00574690755456686,-0.05596163496375084
1761317114721380900,3.254380859375,-0.012367275543510914,0.0028463248163461685,-0.03466495871543884
1761317114731363000,3.264363037109375,-0.0054502468556165695,0.015651868656277657,-0.01467740349471569
1761317114741345800,3.274345703125,0.0019769035279750824,0.029738537967205048,0.004671283531934023
1761317114751329000,3.2843291015625,0.006604146212339401,0.031716201454401016,0.01823875680565834
1761317114761312000,3.29431201171875,0.013577552512288094,0.02973617985844612,0.02379656583070755
1761317114771295000,3.304294921875,0.013548790477216244,0.017432108521461487,0.017497126013040543
1761317114781278000,3.31427783203125,0.008874226361513138,-0.002006772207096219,-0.0014063152484595776
1761317114791260000,3.324260009765625,0.0033463023137301207,-0.02601010911166668,-0.017583686858415604
1761317114801243100,3.3342431640625,-0.003084376221522689,-0.035064104944467545,-0.033570077270269394
1761317114811225900,3.344225830078125,-0.009848272427916527,-0.0438954159617424,-0.04195211082696915
1761317114821208800,3.354208740234375,-0.015287685208022594,-0.0542309395968914,-0.05173453688621521
1761317114831192000,3.364192138671875,-0.020366068929433823,-0.04649046063423157,-0.04355703666806221
1761317114841174800,3.3741748046875,-0.02500748261809349,-0.03624426946043968,-0.03221466764807701
1761317114851157000,3.384156982421875,-0.027025094255805016,-0.039759643375873566,-0.016935577616095543
1761317114861140000,3.394139892578125,-0.03191515430808067,-0.04089490324258804,-0.0026377381291240454
1761317114871123000,3.404123046875,-0.032956451177597046,-0.03508415073156357,0.003142386442050338
1761317114881106000,3.41410595703125,-0.032825667411088943,-0.025247756391763687,0.009117363020777702
1761317114891089000,3.4240888671875,-0.028442636132240295,-0.009613935835659504,0.012521681375801563
1761317114901070800,3.43407080078125,-0.027242396026849747,0.0163276307284832,0.012161539867520332
1761317114911053800,3.4440537109375,-0.026814959943294525,0.04185749217867851,0.014047057367861271
1761317114921037000,3.454037109375,-0.028726669028401375,0.057676833122968674,0.016335615888237953
1761317114931020000,3.46402001953125,-0.03633052855730057,0.06459039449691772,0.018098628148436546
1761317114941002800,3.474002685546875,-0.03806229680776596,0.07055488228797913,0.026239588856697083
1761317114950985000,3.48398486328125,-0.03361242264509201,0.07696165144443512,0.039911724627017975
1761317114960968000,3.493968017578125,-0.03328659012913704,0.0694439560174942,0.04221378266811371
1761317114970951000,3.503950927734375,-0.026871835812926292,0.0595572367310524,0.04601198434829712
1761317114980934000,3.513933837890625,-0.021816564723849297,0.047871608287096024,0.03846462070941925
1761317114990916900,3.523916748046875,-0.021700983867049217,0.034047406166791916,0.030261285603046417
1761317115000900000,3.533900146484375,-0.02311922237277031,0.029288895428180695,0.014530942775309086
1761317115010881800,3.5438818359375,-0.029288966208696365,0.017994962632656097,0.0006193883018568158
1761317115020865000,3.553864990234375,-0.04335473105311394,0.011489787138998508,-0.012786385603249073
1761317115030848000,3.563847900390625,-0.052182577550411224,0.01821453496813774,-0.021632874384522438
1761317115040831000,3.5738310546875,-0.05801335722208023,0.016417747363448143,-0.0338810533285141
1761317115050814000,3.58381396484375,-0.05367346853017807,0.011808881536126137,-0.04549935832619667
1761317115060797000,3.593796875,-0.05152955651283264,0.0025108112022280693,-0.06255745142698288
1761317115070779000,3.60377880859375,-0.046614695340394974,0.0018191887065768242,-0.07010964304208755
1761317115080761900,3.613761962890625,-0.03582167625427246,0.01596607081592083,-0.06480977684259415
1761317115090745000,3.6237451171875,-0.020797988399863243,0.02986510843038559,-0.04899539425969124
1761317115100728000,3.63372802734375,-0.011992648243904114,0.03307110816240311,-0.031582023948431015
1761317115110710800,3.643710693359375,0.0027122613973915577,0.03399975597858429,-0.0003761695697903633
1761317115120694000,3.653694091796875,0.01456303708255291,0.04142996296286583,0.0292649045586586
1761317115130676000,3.663676025390625,0.03257666155695915,0.05195211246609688,0.056151382625103
1761317115140659000,3.673658935546875,0.04828748106956482,0.050117071717977524,0.06870058923959732
1761317115150642000,3.683641845703125,0.05267264321446419,0.040353924036026,0.06861083954572678
1761317115160625000,3.693625,0.048187579959630966,0.03559817373752594,0.066343292593956
1761317115170608000,3.703608154296875,0.042759791016578674,0.03149371221661568,0.05916048586368561
1761317115180589800,3.71358984375,0.03775254637002945,0.023759935051202774,0.0486600361764431
1761317115190573000,3.723572998046875,0.032976698130369186,0.007559659890830517,0.027397356927394867
1761317115200556000,3.73355615234375,0.026766151189804077,-0.010416998527944088,0.003464559093117714
1761317115210538800,3.743538818359375,0.0228092260658741,-0.018066130578517914,-0.01581299863755703
1761317115220522000,3.75352197265625,0.023825986310839653,-0.005467559210956097,-0.024239899590611458
1761317115230505000,3.7635048828125,0.02399030327796936,0.016537874937057495,-0.013640518300235271
1761317115240487000,3.77348681640625,0.022654671221971512,0.039500657469034195,0.008158484473824501
1761317115250470000,3.783469970703125,0.018360057845711708,0.05458613485097885,0.03172959014773369
1761317115260452900,3.793452880859375,0.015754280611872673,0.061293985694646835,0.052779506891965866
1761317115270436000,3.80343603515625,0.008929131552577019,0.05912962928414345,0.0581982396543026
1761317115280418800,3.813418701171875,0.008788668550550938,0.03856389597058296,0.04554416239261627
1761317115290402000,3.823402099609375,0.0020878887735307217,0.02085414156317711,0.02922244556248188
1761317115300384000,3.833384033203125,-0.003112316830083728,0.005902939476072788,0.012784278020262718
1761317115310367000,3.843366943359375,-0.008255147375166416,0.0005292128771543503,-0.005189928226172924
1761317115320350000,3.853349853515625,-0.012093409895896912,-0.006566784344613552,-0.023969542235136032
1761317115330333000,3.8633330078125,-0.020654939115047455,-0.004256492014974356,-0.043608490377664566
1761317115340316200,3.873316162109375,-0.024427631869912148,0.011562097817659378,-0.05268111824989319
1761317115350297900,3.8832978515625,-0.02480606734752655,0.021637633442878723,-0.04776572063565254
1761317115360281000,3.893281005859375,-0.013576315715909004,0.02716289460659027,-0.03347759693861008
1761317115370264000,3.90326416015625,0.00016160064842551947,0.023896528407931328,-0.02116473764181137
1761317115380246800,3.913246826171875,0.009619087912142277,0.009865324944257736,-0.007032683119177818
1761317115390230000,3.92322998046875,0.02267523482441902,-0.01343573722988367,-0.008105404675006866
1761317115400213000,3.933212890625,0.022975130006670952,-0.02687174454331398,-0.013602795079350471
1761317115410195000,3.94319482421875,0.021741021424531937,-0.029122382402420044,-0.021804265677928925
1761317115420178000,3.953177978515625,0.017341526225209236,-0.029803968966007233,-0.033275216817855835
1761317115430161000,3.963160888671875,0.01540274266153574,-0.03539074957370758,-0.04382799193263054
1761317115440144100,3.97314404296875,0.013948311097919941,-0.030912071466445923,-0.04720349237322807
1761317115450126800,3.983126953125,0.018693797290325165,-0.02234494686126709,-0.04561677947640419
1761317115460109000,3.993109130859375,0.02869253233075142,-0.020583506673574448,-0.03758826479315758
1761317115470092000,4.003092041015625,0.03595710173249245,-0.023156385868787766,-0.03392402082681656
1761317115480075000,4.013074951171875,0.04630708321928978,-0.016532287001609802,-0.02417661063373089
1761317115490058000,4.02305810546875,0.046893779188394547,-0.016835622489452362,-0.008888999931514263
1761317115500041000,4.033041015625,0.0541289858520031,0.001398418564349413,0.01616416871547699
1761317115510024000,4.04302392578125,0.058994315564632416,0.015885747969150543,0.03925004601478577
1761317115520005600,4.053005615234375,0.05878625065088272,-0.004005860537290573,0.04401551932096481
1761317115529988900,4.06298876953125,0.05226949602365494,-0.03842615336179733,0.03104805387556553
1761317115539971800,4.072971923828125,0.037993770092725754,-0.060557130724191666,0.008691545575857162
1761317115549954800,4.082954833984375,0.030522271990776062,-0.07482235878705978,-0.016408216208219528
1761317115559937800,4.092937744140625,0.024753566831350327,-0.07455048710107803,-0.04199386015534401
1761317115569920800,4.102920654296875,0.029249781742691994,-0.04290041700005531,-0.051776982843875885
1761317115579903000,4.112903076171875,0.03727370873093605,0.001958233769983053,-0.04664731025695801
1761317115589885700,4.1228857421875,0.04375717416405678,0.0237271785736084,-0.038747575134038925
1761317115599868700,4.13286865234375,0.0433734729886055,0.007622832432389259,-0.028302621096372604
1761317115609852000,4.142851806640625,0.051172006875276566,-0.014507504180073738,-0.0064002517610788345
1761317115619835000,4.1528349609375,0.049144528806209564,-0.03450862318277359,0.0173871461302042
1761317115629816800,4.16281689453125,0.05455314368009567,-0.05992183834314346,0.045159921050071716
1761317115639799800,4.1727998046875,0.06274770200252533,-0.07342568039894104,0.06787317246198654
1761317115649782800,4.18278271484375,0.07255133241415024,-0.0631895512342453,0.08246490359306335
1761317115659765800,4.192765869140625,0.07948286831378937,-0.039834022521972656,0.08915185928344727
1761317115669748700,4.202748779296875,0.08277666568756104,-0.017752954736351967,0.08387932926416397
1761317115679732000,4.21273193359375,0.07957535982131958,-0.0059084780514240265,0.07352783530950546
1761317115689713700,4.222713623046875,0.07541923224925995,-0.006506090983748436,0.07238960266113281
1761317115699697000,4.23269677734375,0.06747373938560486,-0.010361898690462112,0.0810265764594078
1761317115709679900,4.242679931640625,0.06734990328550339,-0.005975939333438873,0.10197127610445023
1761317115719662600,4.25266259765625,0.06842851638793945,-0.006887229159474373,0.11741746962070465
1761317115729645800,4.262645751953125,0.06965836137533188,-0.02413385920226574,0.12713560461997986
1761317115739627800,4.272627685546875,0.06899622082710266,-0.030556833371520042,0.1224634200334549
1761317115749611000,4.282611083984375,0.06452024728059769,-0.02746943011879921,0.11415649205446243
1761317115759593700,4.29259375,0.055445533245801926,-0.024271368980407715,0.09746880829334259
1761317115769576700,4.30257666015625,0.04470767080783844,-0.025522787123918533,0.07652810961008072
1761317115779560000,4.312559814453125,0.03644370660185814,-0.026784492656588554,0.05934981256723404
1761317115789542700,4.322542724609375,0.028437446802854538,-0.023665664717555046,0.04750487208366394
1761317115799524900,4.33252490234375,0.024881143122911453,-0.01885736733675003,0.044086381793022156
1761317115809507800,4.3425078125,0.026028431951999664,-0.004370570182800293,0.048766884952783585
1761317115819490600,4.352490478515625,0.021963326260447502,0.00032756151631474495,0.05563461035490036
1761317115829473800,4.362473876953125,0.017045266926288605,-0.00786565337330103,0.06820526719093323
1761317115839456800,4.372456787109375,0.006240693852305412,-0.025502685457468033,0.07360293716192245
1761317115849438700,4.382438720703125,-0.0025562592782080173,-0.04603113234043121,0.07261171191930771
1761317115859421700,4.392421630859375,-0.005587030667811632,-0.05265062302350998,0.07614636421203613
1761317115869404700,4.40240478515625,-0.003926815930753946,-0.04597168415784836,0.07529866695404053
1761317115879388000,4.412387939453125,0.00023132911883294582,-0.033977873623371124,0.0770895779132843
1761317115889370600,4.42237060546875,0.002254799008369446,-0.020161129534244537,0.07141730934381485
1761317115899353900,4.432353759765625,0.0037464580964297056,-0.006118640769273043,0.062332380563020706
1761317115909335800,4.442335693359375,0.0006390816997736692,0.00746694253757596,0.051550306379795074
1761317115919318800,4.45231884765625,-0.0022455845028162003,0.010651212185621262,0.0423557311296463
1761317115929301800,4.4623017578125,-0.008496290072798729,0.011471731588244438,0.042259857058525085
1761317115939284700,4.47228466796875,-0.0230402871966362,0.014380758628249168,0.04532172903418541
1761317115949268000,4.48226806640625,-0.03238159045577049,0.010336749255657196,0.05229281634092331
1761317115959250700,4.492250732421875,-0.03422918915748596,-0.003359117079526186,0.06183850020170212
1761317115969233000,4.50223291015625,-0.03519538417458534,-0.013441313058137894,0.06739971786737442
1761317115979216000,4.5122158203125,-0.03104683756828308,-0.014619745314121246,0.06396607309579849
1761317115989198600,4.522198486328125,-0.033233825117349625,-0.013649554923176765,0.05423196032643318
1761317115999181800,4.532181884765625,-0.04872547835111618,-0.002422280376777053,0.04379095509648323
1761317116009164800,4.542164794921875,-0.06263729929924011,0.02144843153655529,0.031550534069538116
1761317116019146800,4.552146728515625,-0.0750167965888977,0.04150570556521416,0.020582005381584167
1761317116029129700,4.562129638671875,-0.0754527598619461,0.06239926815032959,0.018046408891677856
1761317116039112700,4.57211279296875,-0.07561931759119034,0.08426344394683838,0.016047637909650803
1761317116049096000,4.582095947265625,-0.07900553196668625,0.09350275248289108,0.006392346229404211
1761317116059078700,4.59207861328125,-0.08481727540493011,0.07753905653953552,-0.015908444300293922
1761317116069061600,4.6020615234375,-0.09661055356264114,0.052959144115448,-0.04373501241207123
1761317116079043800,4.6120439453125,-0.11037962883710861,0.010107121430337429,-0.07872255891561508
1761317116089026800,4.62202685546875,-0.11362548917531967,0.012197703123092651,-0.11613038182258606
1761317116099009800,4.632009765625,-0.10546781122684479,0.008578356355428696,-0.14258868992328644
1761317116108992800,4.64199267578125,-0.10161581635475159,0.00824492797255516,-0.15447118878364563
1761317116118976000,4.65197607421875,-0.08758639544248581,0.03236096724867821,-0.14460185170173645
1761317116128958700,4.661958740234375,-0.07846320420503616,0.05345506593585014,-0.12560473382472992
1761317116138941000,4.67194091796875,-0.0600450374186039,0.04986446723341942,-0.1058845967054367
1761317116148924000,4.681923828125,-0.04206576943397522,0.04531338810920715,-0.08406105637550354
1761317116158906600,4.69190673828125,-0.022199595347046852,0.0521746501326561,-0.0649256706237793
1761317116168889900,4.701889892578125,-0.0010562273673713207,0.04266556724905968,-0.05413054674863815
1761317116178872800,4.711872802734375,0.022389408200979233,0.017177637666463852,-0.043218906968832016
1761317116188854800,4.721854736328125,0.0409039705991745,0.003400307148694992,-0.02939283847808838
1761317116198837800,4.731837646484375,0.050816603004932404,0.0024584117345511913,-0.012792880646884441
1761317116208820700,4.74182080078125,0.06062475964426994,0.008263304829597473,0.002807650715112686
1761317116218804000,4.751803955078125,0.06428813189268112,0.011359196156263351,0.012254158034920692
1761317116228786700,4.76178662109375,0.06426070630550385,0.03318779915571213,0.020696379244327545
1761317116238769700,4.771769775390625,0.06520213186740875,0.048718392848968506,0.01747608557343483
1761317116248751900,4.781751953125,0.06617924571037292,0.049307215958833694,0.009218422695994377
1761317116258734600,4.791734619140625,0.06955737620592117,0.045923758298158646,-0.003327674698084593
1761317116268717800,4.8017177734375,0.07084634900093079,0.038521502166986465,-0.008490212261676788
1761317116278700800,4.81170068359375,0.06877719610929489,0.02033776417374611,-0.006790508516132832
1761317116288683800,4.821683837890625,0.06483252346515656,0.004880510736256838,-0.0024064132012426853
1761317116298665700,4.831665771484375,0.04995622858405113,-0.003017318667843938,0.0034656112547963858
1761317116308648700,4.841648681640625,0.041802164167165756,-0.002740616211667657,0.007254490628838539
1761317116318632000,4.8516318359375,0.03274989128112793,0.00821995735168457,0.009062187746167183
1761317116328614700,4.86161474609375,0.027796678245067596,0.025268182158470154,0.009846488945186138
1761317116338598000,4.871597900390625,0.018084419891238213,0.034455299377441406,0.005215958692133427
1761317116348580900,4.881580810546875,0.013874761760234833,0.027339067310094833,0.0020752924028784037
1761317116358562800,4.891562744140625,0.002139912685379386,0.020319215953350067,-0.01045476458966732
1761317116368545800,4.9015458984375,-0.00658353790640831,0.02268250286579132,-0.01261991448700428
1761317116378528800,4.91152880859375,-0.020044082775712013,0.017787519842386246,-0.009949855506420135
1761317116388512000,4.921511962890625,-0.0244742501527071,0.012975187040865421,-0.004855761304497719
1761317116398494700,4.93149462890625,-0.03235363960266113,0.014240005053579807,0.0008155588293448091
1761317116408477000,4.941476806640625,-0.03394647687673569,0.027141686528921127,-0.0040391176007688046
1761317116418460000,4.9514599609375,-0.034091826528310776,0.04211723059415817,-0.006264420226216316
1761317116428442600,4.961442626953125,-0.034759216010570526,0.03862423077225685,-0.012161191552877426
1761317116438425900,4.97142578125,-0.04257276654243469,0.022879648953676224,-0.01030295342206955
1761317116448408800,4.981408935546875,-0.050301793962717056,0.030468327924609184,-0.005961468443274498
1761317116458391600,4.9913916015625,-0.04436444863677025,0.04219965264201164,-0.01593031734228134
1761317116468373800,5.001373779296875,-0.037420522421598434,0.03352893143892288,-0.03139502555131912
1761317116478356700,5.011356689453125,-0.02707284688949585,0.015027374029159546,-0.04209759831428528
1761317116488340000,5.021340087890625,-0.026738086715340614,0.012983132153749466,-0.04343131184577942
1761317116498322700,5.03132275390625,-0.034965630620718,0.007812509313225746,-0.04172831401228905
1761317116508306400,5.041306396484375,-0.03139859437942505,-0.004800221882760525,-0.040927235037088394
1761317116518288600,5.05128857421875,-0.022211523726582527,-0.022851813584566116,-0.042934320867061615
1761317116528271400,5.061271240234375,-0.00673483032733202,-0.027230583131313324,-0.029757002368569374
1761317116538254600,5.071254638671875,-0.00046262191608548164,0.0015945886261761189,0.00026642601005733013
1761317116548237600,5.081237548828125,-0.0012115028221160173,0.040785934776067734,0.03581696376204491
1761317116558220500,5.091220458984375,-0.006239897571504116,0.057015277445316315,0.06947751343250275
1761317116568203500,5.10120361328125,-0.011884201318025589,0.05657266080379486,0.09063872694969177
1761317116578185500,5.111185546875,-0.01922396570444107,0.04303933307528496,0.09257148206233978
1761317116588168700,5.121168701171875,-0.0223435927182436,0.03018292412161827,0.07900188118219376
1761317116598151400,5.1311513671875,-0.02203872986137867,0.01859329082071781,0.04852467402815819
1761317116608134400,5.141134521484375,-0.029695851728320122,0.012132195755839348,0.017146248370409012
1761317116618117600,5.15111767578125,-0.03644660487771034,0.016152072697877884,-0.009059893898665905
1761317116628100600,5.1611005859375,-0.04222140461206436,0.020870395004749298,-0.03190608695149422
1761317116638082600,5.17108251953125,-0.0492456778883934,0.02291097491979599,-0.044742316007614136
1761317116648065500,5.1810654296875,-0.04924407973885536,0.020790033042430878,-0.04444670304656029
1761317116658048500,5.191048583984375,-0.04538695141673088,0.008483653888106346,-0.03674085810780525
1761317116668031500,5.201031494140625,-0.036754313856363297,-0.005568781867623329,-0.028818221762776375
1761317116678014500,5.211014404296875,-0.023196348920464516,-0.006349552888423204,-0.017347246408462524
1761317116687996700,5.22099658203125,-0.01599249802529812,-0.0032578890677541494,-0.011970057152211666
1761317116697979400,5.2309794921875,-0.00518550630658865,-0.00754968449473381,-0.011332832276821136
1761317116707962600,5.240962646484375,0.0027001136913895607,0.002205474302172661,-0.007886967621743679
1761317116717945600,5.250945556640625,0.0076883756555616856,0.017836015671491623,-0.005541108548641205
1761317116727928600,5.260928466796875,0.01299285888671875,0.03167779743671417,-0.00005206698551774025
1761317116737911600,5.27091162109375,0.013508795760571957,0.038123514503240585,0.009691051207482815
1761317116747893500,5.2808935546875,0.014804955571889877,0.05390221253037453,0.02636430412530899
1761317116757876700,5.290876708984375,0.010118880309164524,0.0658503845334053,0.04298366978764534
1761317116767859500,5.300859375,0.009167066775262356,0.06798810511827469,0.057816408574581146
1761317116777842400,5.310842529296875,0.004932110663503408,0.05338301137089729,0.05810829624533653
1761317116787825700,5.32082568359375,0.0035669743083417416,0.02953973039984703,0.04516426846385002
1761317116797807400,5.330807373046875,0.00004018296021968126,0.011340426281094551,0.024752328172326088
1761317116807790600,5.34079052734375,0.005214705131947994,0.003660402726382017,0.002378845354542136
1761317116817773600,5.350773681640625,0.009401299059391022,0.004093937110155821,-0.015192043036222458
1761317116827756500,5.360756591796875,0.01691673882305622,0.0029109609313309193,-0.021007854491472244
1761317116837739500,5.370739501953125,0.02009134367108345,0.009556029923260212,-0.013161311857402325
1761317116847722500,5.380722412109375,0.016970917582511902,0.022370893508195877,0.0017201662994921207
1761317116857704700,5.39070458984375,0.013346044346690178,0.02230173535645008,0.014757590368390083
1761317116867687400,5.4006875,0.010099915787577629,0.005750988610088825,0.02220778353512287
1761317116877670400,5.41067041015625,0.012284426018595695,-0.00461196806281805,0.022479217499494553
1761317116887653600,5.420653564453125,0.014528937637805939,-0.006024508737027645,0.017928672954440117
1761317116897636600,5.43063671875,0.022157710045576096,0.0027575776912271976,0.012143149971961975
1761317116907618600,5.44061865234375,0.02490502968430519,0.010961180552840233,0.0008910285541787744
1761317116917601500,5.4506015625,0.028620636090636253,0.024532604962587357,0.0007990229642018676
1761317116927584800,5.460584716796875,0.025973986834287643,0.0353759340941906,0.004137295298278332
1761317116937567500,5.4705673828125,0.022051069885492325,0.031122904270887375,0.0076276930049061775
1761317116947550500,5.480550537109375,0.024171212688088417,0.018360769376158714,0.00010346411727368832
1761317116957533700,5.49053369140625,0.023616036400198936,0.003200025763362646,-0.014091023243963718
1761317116967515400,5.500515380859375,0.022306295111775398,-0.01578058861196041,-0.041720785200595856
1761317116977498600,5.51049853515625,0.021064115688204765,-0.03214780241250992,-0.06961121410131454
1761317116987481600,5.520481689453125,0.024433813989162445,-0.04059562087059021,-0.09549900144338608
1761317116997464300,5.53046435546875,0.019601864740252495,-0.04188155755400658,-0.10431789606809616
1761317117007447600,5.540447509765625,0.020639698952436447,-0.0340673103928566,-0.10082436352968216
1761317117017429500,5.550429443359375,0.020739244297146797,-0.01634136773645878,-0.08411199599504471
1761317117027412700,5.560412841796875,0.016694966703653336,0.003107964526861906,-0.06488530337810516
1761317117037395500,5.5703955078125,0.019546587020158768,0.01343400590121746,-0.054720185697078705
1761317117047378400,5.58037841796875,0.018698636442422867,0.018867386505007744,-0.043098948895931244
1761317117057361700,5.590361572265625,0.01826411299407482,0.011664839461445808,-0.03731498122215271
1761317117067344400,5.600344482421875,0.019135499373078346,0.00678299879655242,-0.033191073685884476
1761317117077326600,5.61032666015625,0.019011743366718292,0.0077970908023417,-0.02143753692507744
1761317117087309600,5.6203095703125,0.022592628374695778,0.01885480247437954,-0.010528430342674255
1761317117097292500,5.63029248046875,0.025971682742238045,0.03768099844455719,0.009221430867910385
1761317117107275500,5.640275634765625,0.023973779752850533,0.059195611625909805,0.026004139333963394
1761317117117258500,5.650258544921875,0.025340503081679344,0.07094411551952362,0.04041215404868126
1761317117127240400,5.660240478515625,0.02193565107882023,0.06667453795671463,0.04457787051796913
1761317117137223400,5.670223388671875,0.01483517698943615,0.03315643593668938,0.03384621441364288
1761317117147206700,5.68020654296875,0.006753282621502876,-0.006479121744632721,0.01504482887685299
1761317117157189600,5.690189697265625,0.0009213411249220371,-0.043021418154239655,-0.010165652260184288
1761317117167172400,5.70017236328125,-0.0055296337231993675,-0.06248699501156807,-0.03178253397345543
1761317117177155600,5.710155517578125,-0.007953607477247715,-0.06139041855931282,-0.05323949083685875
1761317117187137500,5.720137451171875,-0.00466114142909646,-0.04472009837627411,-0.06086837872862816
1761317117197120500,5.73012060546875,-0.002360250800848007,-0.030044972896575928,-0.05660753324627876
1761317117207103500,5.740103515625,0.0011711010010913014,-0.02501053363084793,-0.04321875423192978
1761317117217086500,5.75008642578125,0.002930557355284691,0.0014275251887738705,-0.02112986147403717
1761317117227069700,5.760069580078125,0.0066001275554299355,0.02411925606429577,0.009541231207549572
1761317117237051400,5.770051513671875,0.016564149409532547,0.03892236575484276,0.03329821676015854
1761317117247034600,5.78003466796875,0.0239751935005188,0.033244241029024124,0.05092195048928261
1761317117257017600,5.790017578125,0.019722111523151398,0.01921616494655609,0.05188392847776413
1761317117267000300,5.800000244140625,0.0289374478161335,0.012379297986626625,0.05050414428114891
1761317117276983600,5.809983642578125,0.030827563256025314,0.007993267849087715,0.044803641736507416
1761317117286966500,5.819966552734375,0.03144914656877518,-0.00029475660994648933,0.0404384508728981
1761317117296948500,5.829948486328125,0.028607552871108055,-0.0038889585994184017,0.03219037503004074
1761317117306931500,5.839931396484375,0.020253483206033707,-0.007494612596929073,0.02822279743850231
1761317117316914400,5.84991455078125,0.009069942869246006,-0.01269868016242981,0.02912425436079502
1761317117326897700,5.859897705078125,0.0020176260732114315,-0.024649349972605705,0.026625143364071846
1761317117336880400,5.86988037109375,-0.005308092106133699,-0.031673625111579895,0.02128428965806961
1761317117346862600,5.879862548828125,-0.0057656229473650455,-0.02617526240646839,0.020586811006069183
1761317117356845600,5.889845458984375,0.00039246235974133015,-0.01989280804991722,0.01620248332619667
1761317117366828500,5.89982861328125,0.006593898870050907,-0.0033175612334161997,0.028029846027493477
1761317117376811500,5.9098115234375,0.012040190398693085,0.023272115737199783,0.04337180405855179
1761317117386794500,5.91979443359375,0.017142806202173233,0.03668193146586418,0.06193936616182327
1761317117396777700,5.92977783203125,0.017925752326846123,0.04141302406787872,0.0779045820236206
1761317117406759400,5.939759521484375,0.011902480386197567,0.038185276091098785,0.08751486241817474
1761317117416742700,5.94974267578125,0.0006708313012495637,0.020373743027448654,0.0833926871418953
1761317117426725600,5.9597255859375,-0.0100678326562047,-0.0014564553275704384,0.06847978383302689
1761317117436708400,5.969708251953125,-0.02172764018177986,-0.01627410016953945,0.04177715256810188
1761317117446691600,5.979691650390625,-0.021078627556562424,-0.022125598043203354,0.01055931206792593
1761317117456673500,5.989673583984375,-0.01962154172360897,-0.015130877494812012,-0.014095977880060673
1761317117466656500,5.999656494140625,-0.020792532712221146,-0.008707866072654724,-0.034475021064281464
1761317117476639500,6.009639404296875,-0.015394317917525768,-0.004580637440085411,-0.03558257967233658
1761317117486622500,6.01962255859375,-0.019423946738243103,0.007107443641871214,-0.02500104531645775
1761317117496605700,6.029605712890625,-0.017282230779528618,0.007782821077853441,-0.009999456815421581
1761317117506588400,6.03958837890625,-0.014490174129605293,-0.01311633549630642,-0.0010962437372654676
1761317117516570600,6.049570556640625,-0.0008387644193135202,-0.025312630459666252,0.004846947267651558
1761317117526553600,6.0595537109375,0.006150702014565468,-0.033399853855371475,0.0014503513230010867
1761317117536536600,6.06953662109375,0.011472566053271294,-0.03659891337156296,0.0020120013505220413
1761317117546519600,6.07951953125,0.017574135214090347,-0.032440654933452606,0.008903996087610722
1761317117556502500,6.08950244140625,0.019736794754862785,-0.026641827076673508,0.02236158400774002
1761317117566485800,6.09948583984375,0.02000950276851654,-0.01998472400009632,0.034292012453079224
1761317117576467500,6.109467529296875,0.011394037865102291,-0.013769719749689102,0.04165860638022423
1761317117586450700,6.11945068359375,0.0007307406049221754,-0.0065975612960755825,0.04095793142914772
1761317117596433700,6.12943359375,-0.006675081793218851,0.00017754873260855675,0.033299095928668976
1761317117606416400,6.13941650390625,-0.013011008501052856,0.007675146218389273,0.020255196839571
1761317117616399600,6.149399658203125,-0.01454276591539383,0.011186355724930763,0.011973993852734566
1761317117626381600,6.159381591796875,-0.014810946770012379,0.02946975640952587,0.012266408652067184
1761317117636364500,6.169364501953125,-0.013779294677078724,0.04172807186841965,0.021223919466137886
1761317117646347500,6.179347412109375,-0.01104928832501173,0.049702372401952744,0.03284089267253876
1761317117656330500,6.18933056640625,-0.007241872139275074,0.054564960300922394,0.04752890765666962
1761317117666313700,6.199313720703125,-0.0035139797255396843,0.04836378991603851,0.04575097933411598
1761317117676296400,6.20929638671875,-0.004092799033969641,0.0246917475014925,0.024524986743927002
1761317117686278700,6.219278564453125,-0.013279372826218605,-0.006569502409547567,-0.0028091652784496546
1761317117696261600,6.22926171875,-0.01295130793005228,-0.02984008938074112,-0.02676868811249733
1761317117706244400,6.239244384765625,-0.00870489701628685,-0.0394197441637516,-0.042990002781152725
1761317117716227600,6.2492275390625,-0.004985284060239792,-0.024863984435796738,-0.03836293891072273
1761317117726210600,6.25921044921875,0.00206570141017437,-0.0018747802823781967,-0.021700335666537285
1761317117736192500,6.269192626953125,0.010128967463970184,0.012221845798194408,0.0026188089977949858
1761317117746175500,6.279175537109375,0.025068236514925957,0.019023291766643524,0.027292730286717415
1761317117756158500,6.289158447265625,0.0332353375852108,0.014874214306473732,0.0477764792740345
1761317117766141700,6.2991416015625,0.044894393533468246,0.01540764607489109,0.06398288160562515
1761317117776124400,6.30912451171875,0.049923647195100784,0.018001580610871315,0.07289991527795792
1761317117786107600,6.319107666015625,0.05446167290210724,0.02561609074473381,0.07761211693286896
1761317117796089600,6.329089599609375,0.04800257831811905,0.028718795627355576,0.07999402284622192
1761317117806072600,6.339072509765625,0.04931498318910599,0.0330650731921196,0.08273494988679886
1761317117816055600,6.3490556640625,0.05275074020028114,0.03717756271362305,0.08030183613300323
1761317117826038500,6.35903857421875,0.05567196384072304,0.03612294793128967,0.07588817924261093
1761317117836021500,6.369021484375,0.053321920335292816,0.0519002303481102,0.05990496650338173
1761317117846003500,6.37900341796875,0.04890080541372299,0.06454890966415405,0.02891748957335949
1761317117855986700,6.388986572265625,0.031787995249032974,0.056074608117341995,-0.012775340117514133
1761317117865969400,6.398969482421875,0.020845063030719757,0.05320744961500168,-0.04700308293104172
1761317117875952400,6.408952392578125,0.019337598234415054,0.05455516278743744,-0.059133853763341904
1761317117885935600,6.418935546875,0.01888725720345974,0.05153380706906319,-0.05960310250520706
1761317117895918600,6.428918701171875,0.022801583632826805,0.041819799691438675,-0.04949405416846275
1761317117905900500,6.438900634765625,0.030010493472218513,0.03546895831823349,-0.027916591614484787
1761317117915883500,6.448883544921875,0.031805939972400665,0.02402902953326702,-0.016196588054299355
1761317117925866500,6.458866455078125,0.032885052263736725,0.013109270483255386,-0.00677885115146637
1761317117935849500,6.468849365234375,0.028796659782528877,0.011546626687049866,0.0020006869453936815
1761317117945832400,6.47883251953125,0.026187028735876083,0.012228662148118019,-0.005463887006044388
1761317117955814700,6.488814697265625,0.0284264013171196,0.02972567081451416,-0.025816770270466805
1761317117965797400,6.49879736328125,0.030039478093385696,0.053273074328899384,-0.059930529445409775
1761317117975780600,6.508780517578125,0.021022072061896324,0.06376785039901733,-0.09482136368751526
1761317117985763600,6.518763671875,0.009907368570566177,0.061598703265190125,-0.118758924305439
1761317117995746600,6.52874658203125,-0.00962535385042429,0.045438602566719055,-0.12523266673088074
1761317118005729500,6.5387294921875,-0.020875876769423485,0.01946159265935421,-0.11467056721448898
1761317118015711500,6.54871142578125,-0.020835597068071365,-0.006152336020022631,-0.08723336458206177
1761317118025694700,6.55869482421875,-0.01261495053768158,-0.01973392441868782,-0.05705495551228523
1761317118035677400,6.568677490234375,-0.004673333838582039,-0.021329229697585106,-0.03730655834078789
1761317118045660400,6.578660400390625,-0.0012514382833614945,-0.024316230788826942,-0.03420104831457138
1761317118055643600,6.5886435546875,0.0010841076727956533,-0.026766523718833923,-0.04043106362223625
1761317118065625300,6.598625244140625,-0.00031405186746269464,-0.028386522084474564,-0.042313653975725174
1761317118075608600,6.608608642578125,-0.002633746713399887,-0.026414787396788597,-0.044213227927684784
1761317118085591600,6.618591552734375,-0.007258858531713486,-0.011712273582816124,-0.04196498915553093
1761317118095574500,6.628574462890625,-0.0038376697339117527,0.001968217082321644,-0.04236723110079765
1761317118105557500,6.6385576171875,-0.0014070026809349656,-0.00003261584788560867,-0.049116745591163635
1761317118115540500,6.64854052734375,0.010699693113565445,-0.015281652100384235,-0.06488757580518723
1761317118125522700,6.658522705078125,0.01578020490705967,-0.035347238183021545,-0.08254806697368622
1761317118135505400,6.66850537109375,0.014840641990303993,-0.05413584038615227,-0.09738852828741074
1761317118145488400,6.67848828125,0.007763025816529989,-0.05414143204689026,-0.10879910737276077
1761317118155471600,6.6884716796875,0.00276237353682518,-0.051331840455532074,-0.10027872025966644
1761317118165454600,6.69845458984375,-0.010498303920030594,-0.03770151734352112,-0.0820871964097023
1761317118175436500,6.7084365234375,-0.027493959292769432,-0.012961473315954208,-0.05505865812301636
1761317118185419500,6.71841943359375,-0.030825840309262276,0.019649730995297432,-0.0305945947766304
1761317118195402500,6.728402587890625,-0.025595348328351974,0.04274782910943031,-0.015931420028209686
1761317118205385500,6.738385498046875,-0.008344722911715508,0.04279789701104164,-0.007171750999987125
1761317118215368400,6.748368408203125,-0.0015866381581872702,0.025121457874774933,-0.012839406728744507
1761317118225351700,6.7583515625,-0.000970116350799799,-0.001490977592766285,-0.015513487160205841
1761317118235333400,6.76833349609375,-0.0042593167163431644,-0.026978032663464546,-0.02756723016500473
1761317118245316600,6.778316650390625,-0.012427231296896935,-0.030411379411816597,-0.029001077637076378
1761317118255299600,6.788299560546875,-0.02243654988706112,-0.02788504771888256,-0.03025452233850956
1761317118265282600,6.798282470703125,-0.02857167460024357,-0.017542395740747452,-0.026794811710715294
1761317118275265500,6.808265625,-0.02947380207479,-0.009922560304403305,-0.03855912759900093
1761317118285247500,6.81824755859375,-0.02711743675172329,-0.016717882826924324,-0.05565528944134712
1761317118295230700,6.828230712890625,-0.02297036163508892,-0.0288563035428524,-0.07610437273979187
1761317118305213400,6.83821337890625,-0.022087257355451584,-0.03690331056714058,-0.08439186215400696
1761317118315196400,6.848196533203125,-0.014502945356070995,-0.028817927464842796,-0.07292281091213226
1761317118325179600,6.8581796875,-0.009987822733819485,-0.011404316872358322,-0.04524511098861694
1761317118335161300,6.868161376953125,-0.0013917065225541592,0.0009669801220297813,-0.009337836876511574
1761317118345144600,6.87814453125,-0.0019821294117718935,-0.002505515469238162,0.017118537798523903
1761317118355127600,6.88812744140625,-0.0024121033493429422,-0.018110433593392372,0.03508344665169716
1761317118365110500,6.898110595703125,-0.005648110061883926,-0.02117333561182022,0.03574284538626671
1761317118375093500,6.908093505859375,-0.003779068123549223,-0.02955974079668522,0.021492397412657738
1761317118385076500,6.918076416015625,-0.009663056582212448,-0.0284167118370533,-0.003587388899177313
1761317118395058700,6.92805859375,-0.013431023806333542,-0.009580850601196289,-0.02397657185792923
1761317118405041400,6.93804150390625,-0.01506753545254469,0.023944351822137833,-0.038209304213523865
1761317118415024600,6.948024658203125,-0.014656228944659233,0.04152281582355499,-0.04444316402077675
1761317118425007600,6.958007568359375,-0.011547520756721497,0.0347040593624115,-0.04163406416773796
1761317118434990600,6.967990478515625,-0.012374140322208405,0.005858946591615677,-0.036234594881534576
1761317118444972500,6.97797265625,-0.012330465018749237,-0.026938414201140404,-0.030570046976208687
1761317118454955500,6.98795556640625,-0.0044127278961241245,-0.04647928103804588,-0.015649275854229927
1761317118464938800,6.997938720703125,0.004248670767992735,-0.043187614530324936,-0.004589701071381569
1761317118474921500,7.00792138671875,0.014918974600732327,-0.02121875248849392,0.000771454768255353
1761317118484904400,7.017904541015625,0.022172093391418457,-0.006685882806777954,-0.008414853364229202
1761317118494887700,7.0278876953125,0.027051720768213272,0.008888481184840202,-0.026573028415441513
1761317118504869400,7.037869384765625,0.03198709338903427,0.015820691362023354,-0.048303887248039246
1761317118514851600,7.0478515625,0.026688778772950172,0.0055866120383143425,-0.05783739313483238
1761317118524834600,7.05783447265625,0.017079561948776245,-0.0037413763348013163,-0.06256024539470673
1761317118534817800,7.06781787109375,0.011980986222624779,0.002087134402245283,-0.060597945004701614
1761317118544800800,7.07780078125,0.01920401118695736,0.023035826161503792,-0.054106488823890686
1761317118554782700,7.08778271484375,0.026967022567987442,0.03904704377055168,-0.048316627740859985
1761317118564765700,7.097765625,0.03525957465171814,0.03344055637717247,-0.05009615048766136
1761317118574748700,7.107748779296875,0.0303838849067688,0.022975781932473183,-0.0524267740547657
1761317118584731600,7.117731689453125,0.03302227705717087,0.003329375758767128,-0.0701194778084755
1761317118594714600,7.127714599609375,0.027075760066509247,-0.015080304816365242,-0.08202244341373444
1761317118604696800,7.13769677734375,0.028579914942383766,-0.02938653901219368,-0.08731921017169952
1761317118614679600,7.147679443359375,0.02487538568675518,-0.03262567147612572,-0.08215000480413437
1761317118624662500,7.15766259765625,0.032069385051727295,-0.0359109491109848,-0.07329046726226807
1761317118634645800,7.167645751953125,0.03349286690354347,-0.043737273663282394,-0.07124418765306473
1761317118644628700,7.177628662109375,0.03978271782398224,-0.037721991539001465,-0.07228202372789383
1761317118654611700,7.18761181640625,0.04517197608947754,-0.010018657892942429,-0.07423949986696243
1761317118664593700,7.19759375,0.04215807467699051,0.005819693673402071,-0.0740317702293396
1761317118674576600,7.20757666015625,0.03936437517404556,0.005087674129754305,-0.06703706085681915
1761317118684559600,7.2175595703125,0.03441116213798523,0.004481805022805929,-0.055009160190820694
1761317118694542600,7.22754248046875,0.03198176622390747,0.0057639493606984615,-0.03762860968708992
1761317118704525800,7.23752587890625,0.03059505671262741,-0.009347092360258102,-0.030328087508678436
1761317118714507500,7.247507568359375,0.03101026639342308,-0.018994377925992012,-0.02227105014026165
1761317118724490800,7.25749072265625,0.027568131685256958,-0.01386912539601326,-0.01811545342206955
1761317118734473700,7.2674736328125,0.02520121820271015,-0.0022266122978180647,-0.023105302825570107
1761317118744456700,7.277456787109375,0.01850816234946251,0.001744959969073534,-0.025431308895349503
1761317118754439700,7.287439697265625,0.013065343722701073,0.016005542129278183,-0.018325001001358032
1761317118764422700,7.297422607421875,0.006748592481017113,0.025033125653862953,-0.008854532614350319
1761317118774404900,7.30740478515625,0.005410689860582352,0.01859326660633087,0.0018801265396177769
1761317118784387600,7.3173876953125,0.008267195895314217,-0.0025010998360812664,0.008794758468866348
1761317118794370600,7.32737060546875,0.009794751182198524,-0.020648721605539322,0.009887326508760452
1761317118804353800,7.337353759765625,0.011299703270196915,-0.0416988767683506,0.011726506054401398
1761317118814336800,7.347336669921875,-0.00596979632973671,-0.05211605504155159,-0.007826296612620354
1761317118824318700,7.357318603515625,-0.006899239495396614,-0.04633326828479767,-0.027282819151878357
1761317118834301700,7.3673017578125,-0.002365704858675599,-0.018306808546185493,-0.04497486725449562
1761317118844284700,7.37728466796875,0.0031920457258820534,0.004009416792541742,-0.05682779848575592
1761317118854267600,7.387267578125,0.009058525785803795,0.003927210811525583,-0.05859082564711571
1761317118864250600,7.397250732421875,0.012120362371206284,-0.002329620299860835,-0.05049987509846687
1761317118874233600,7.407233642578125,0.011643240228295326,-0.011396506801247597,-0.044329527765512466
1761317118884215600,7.417215576171875,0.009593138471245766,-0.022049948573112488,-0.04350661113858223
1761317118894198800,7.42719873046875,0.011701563373208046,-0.022160204127430916,-0.04018351808190346
1761317118904181800,7.437181640625,0.013672036118805408,-0.006831049453467131,-0.02588314190506935
1761317118914164500,7.44716455078125,0.01937614567577839,0.014863589778542519,-0.003998683765530586
1761317118924147700,7.457147705078125,0.022174594923853874,0.03501573204994202,0.015108166262507439
1761317118934129700,7.467129638671875,0.021834462881088257,0.03194055333733559,0.01725379005074501
1761317118944113000,7.47711279296875,0.025185251608490944,0.02017018012702465,0.013352792710065842
1761317118954095600,7.487095703125,0.014515066519379616,0.010700398124754429,0.0008525768062099814
1761317118964078600,7.49707861328125,0.003237377852201462,0.000760415568947792,-0.01595063880085945
1761317118974061800,7.507061767578125,-0.0037296717055141926,-0.00430313590914011,-0.019668597728013992
1761317118984043500,7.51704345703125,-0.007192580029368401,-0.004448811057955027,-0.02765967883169651
1761317118994026800,7.52702685546875,0.0022724326699972153,0.008443300612270832,-0.03920210897922516
1761317119004009700,7.537009765625,0.01006564125418663,0.010294729843735695,-0.05035915598273277
1761317119013992400,7.546992431640625,0.0159929096698761,0.008690189570188522,-0.04797538369894028
1761317119023975700,7.5569755859375,0.015967609360814095,-0.00010942714288830757,-0.03404305875301361
1761317119033958700,7.566958740234375,0.011807950213551521,-0.00865905825048685,-0.018861960619688034
1761317119043940600,7.576940673828125,0.0033558765426278114,-0.011355774477124214,-0.0016028122045099735
1761317119053923600,7.586923583984375,-0.0016808559885248542,-0.010821307078003883,0.01413019374012947
1761317119063906600,7.596906494140625,-0.010771555826067924,-0.0038052089512348175,0.028005797415971756
1761317119073889800,7.606889892578125,-0.018521180376410484,-0.0000039120204746723175,0.029086079448461533
1761317119083872500,7.61687255859375,-0.01443669106811285,0.006660648621618748,0.019661152735352516
1761317119093854700,7.626854736328125,-0.004933582618832588,-0.006483760196715593,0.0076211970299482346
1761317119103837700,7.636837646484375,-0.00018490036018192768,-0.017927896231412888,0.0030544085893779993
1761317119113820700,7.646820556640625,-0.0003553901333361864,-0.011068418622016907,0.0009229969000443816
1761317119123803600,7.6568037109375,-0.0025495686568319798,0.005302831064909697,0.005707099102437496
1761317119133786600,7.66678662109375,-0.005057153292000294,0.016624221578240395,0.011920072138309479
1761317119143769900,7.676769775390625,-0.014345726929605007,0.01948339305818081,0.021691475063562393
1761317119153751600,7.68675146484375,-0.021355153992772102,0.009638623334467411,0.021367324516177177
1761317119163734800,7.69673486328125,-0.024924322962760925,-0.00854490790516138,0.014533918350934982
1761317119173717800,7.7067177734375,-0.01710030436515808,-0.027429983019828796,0.011030320078134537
1761317119183700500,7.716700439453125,-0.014898136258125305,-0.03381224721670151,0.002978252712637186
1761317119193683700,7.72668359375,-0.013517925515770912,-0.03832719102501869,-0.010180012322962284
1761317119203665700,7.736665771484375,-0.013647088780999184,-0.027518220245838165,-0.018984155729413033
1761317119213648600,7.746648681640625,-0.009850485250353813,-0.0076983291655778885,-0.031143080443143845
1761317119223631600,7.756631591796875,-0.01010508369654417,0.0022690840996801853,-0.03377295285463333
1761317119233614600,7.766614501953125,-0.00956042017787695,0.0025198697112500668,-0.03646080195903778
1761317119243597800,7.776597900390625,-0.01377620454877615,-0.0025846112985163927,-0.036902885884046555
1761317119253579500,7.78657958984375,-0.005235226824879646,0.0012911711819469929,-0.03453781455755234
1761317119263562800,7.796562744140625,0.00040321785490959883,-0.0017807851545512676,-0.021874748170375824
1761317119273545700,7.806545654296875,0.005551953800022602,-0.009019874036312103,-0.006600639782845974
1761317119283528400,7.816528564453125,0.009832452051341534,-0.0031143140513449907,0.015758993104100227
1761317119293511700,7.82651171875,0.023039160296320915,0.0039551458321511745,0.03556188568472862
1761317119303494700,7.83649462890625,0.03232746571302414,0.0001526842825114727,0.05806586518883705
1761317119313476600,7.8464765625,0.033351004123687744,0.0032478789798915386,0.07091876119375229
1761317119323459600,7.85645947265625,0.032154977321624756,-0.00032981159165501595,0.06710511445999146
1761317119333442600,7.866442626953125,0.029057081788778305,0.0066082836128771305,0.04337117075920105
1761317119343425800,7.87642578125,0.025203755125403404,0.009449077770113945,0.007028874941170216
1761317119353408500,7.886408447265625,0.020649343729019165,0.018170539289712906,-0.03596890717744827
1761317119363390700,7.896390625,0.02013269066810608,0.024424172937870026,-0.06454089283943176
1761317119373373700,7.906373779296875,0.02258855290710926,0.021528813987970352,-0.07714708149433136
1761317119383356700,7.916356689453125,0.030014242976903915,0.015078105032444,-0.0777106061577797
1761317119393339600,7.926339599609375,0.038833048194646835,-0.003610755316913128,-0.05939822643995285
1761317119403322600,7.936322509765625,0.047185517847537994,-0.014104409143328667,-0.02443411760032177
1761317119413305900,7.946305908203125,0.04015958309173584,-0.03339434415102005,0.0027362063992768526
1761317119423287600,7.95628759765625,0.037482306361198425,-0.05850156024098396,0.013639986515045166
1761317119433270800,7.966270751953125,0.03681185841560364,-0.06897921860218048,0.009968262165784836
1761317119443253800,7.976253662109375,0.03244400769472122,-0.08022841811180115,-0.013159427791833878
1761317119453236500,7.986236572265625,0.03388120234012604,-0.07461820542812347,-0.04781148210167885
1761317119463219700,7.9962197265625,0.03438800200819969,-0.07097313553094864,-0.0826520174741745
1761317119473201700,8.00620166015625,0.03814437985420227,-0.06576545536518097,-0.11314862966537476
1761317119483184600,8.0161845703125,0.03959101065993309,-0.057679835706949234,-0.12631316483020782
1761317119493167600,8.026167724609374,0.0339164137840271,-0.028908181935548782,-0.11404479295015335
1761317119503150600,8.036150634765624,0.018352635204792023,0.00184200843796134,-0.07944633811712265
1761317119513134000,8.046134033203124,0.011409297585487366,0.020980229601264,-0.03675876557826996
1761317119523116000,8.056115966796876,0.011054032482206821,0.024436747655272484,-0.0027635120786726475
1761317119533099000,8.06609912109375,0.016311760991811752,0.02590346150100231,0.012660522013902664
1761317119543082000,8.07608203125,0.019773870706558228,0.02546643652021885,0.01665686070919037
1761317119553065000,8.08606494140625,0.030504535883665085,0.014660628512501717,0.0072311838157474995
1761317119563048200,8.096048095703125,0.035799697041511536,0.004378164652734995,-0.004552238620817661
1761317119573031000,8.106031005859375,0.03342708572745323,0.010238874703645706,-0.0214364156126976
1761317119583013000,8.11601318359375,0.03226248547434807,0.016475731506943703,-0.03491094708442688
1761317119592996000,8.12599609375,0.029752111062407494,0.02059142105281353,-0.042308881878852844
1761317119602979000,8.13597900390625,0.02454243414103985,0.023432215675711632,-0.036182813346385956
1761317119612962000,8.145962158203124,0.02387618087232113,0.022989794611930847,-0.0179902371019125
1761317119622945000,8.155945068359374,0.021526208147406578,0.016372371464967728,-0.0000945942010730505
1761317119632928300,8.16592822265625,0.01946035958826542,0.00851014256477356,0.013944132253527641
1761317119642910000,8.175909912109375,0.02109261229634285,0.00625790748745203,0.0218230951577425
1761317119652893200,8.18589306640625,0.02408771589398384,0.009606302715837955,0.014970581978559494
1761317119662876200,8.195876220703125,0.023814210668206215,0.022565778344869614,-0.0011098501272499561
1761317119672859000,8.20585888671875,0.0215983334928751,0.02362637035548687,-0.008868193253874779
1761317119682842000,8.215842041015625,0.02207530476152897,0.013375066220760345,-0.008127834647893906
1761317119692824000,8.225823974609375,0.019348492845892906,-0.005317771341651678,0.000742886564694345
1761317119702807000,8.23580712890625,0.0185394249856472,-0.020058101043105125,0.006960834842175245
1761317119712790000,8.2457900390625,0.016791649162769318,-0.022400561720132828,-0.0029562090057879686
1761317119722773000,8.25577294921875,0.012491976842284203,-0.01753043942153454,-0.016832076013088226
1761317119732756200,8.265756103515624,-0.01298633310943842,-0.015659304335713387,-0.00470304349437356
1761317119742738000,8.275738037109376,-0.030983708798885345,-0.031161565333604813,0.004115748219192028
1761317119752721200,8.28572119140625,-0.016850082203745842,-0.04519844055175781,0.006164122372865677
1761317119762704100,8.2957041015625,-0.007679221220314503,-0.0340144969522953,0.0059444112703204155
1761317119772686800,8.305686767578125,-0.0029417243786156178,-0.01623869314789772,0.00039704679511487484
1761317119782670000,8.315670166015625,0.006759106647223234,-0.006308831740170717,-0.00903879851102829
1761317119792653000,8.325653076171875,0.017822086811065674,-0.0001857476308941841,-0.01918068341910839
1761317119802635000,8.335635009765625,0.018562711775302887,0.0033658440224826336,-0.022232400253415108
1761317119812618000,8.345617919921875,0.014644784852862358,0.015457507222890854,-0.023142332211136818
1761317119822601000,8.35560107421875,0.01663070358335972,0.02559136599302292,-0.014013015665113926
1761317119832584200,8.365584228515624,0.015399711206555367,0.02649608440697193,-0.011587350629270077
1761317119842567000,8.37556689453125,0.010628657415509224,0.019666939973831177,-0.012453409843146801
1761317119852549000,8.385549072265626,0.00902295671403408,0.021799903362989426,-0.010370226576924324
1761317119862532000,8.395531982421875,0.010424044914543629,0.022862769663333893,-0.006715836934745312
1761317119872515000,8.40551513671875,0.006989064626395702,0.01766839250922203,-0.0013728656340390444
1761317119882498000,8.415498046875,0.004571447614580393,0.013115985319018364,-0.0010234590154141188
1761317119892481000,8.42548095703125,0.004425760358572006,0.013801075518131256,-0.004818949848413467
1761317119902463000,8.435462890625,-0.005681468639522791,0.012666570022702217,-0.019550226628780365
1761317119912446000,8.445446044921875,-0.01286596991121769,0.005278062541037798,-0.045106079429388046
1761317119922429200,8.45542919921875,-0.02027887850999832,-0.0011529386974871159,-0.07001728564500809
1761317119932412200,8.465412109375,-0.01946515589952469,-0.011331822723150253,-0.08818428218364716
1761317119942395000,8.475394775390624,-0.02447269856929779,-0.016419792547822,-0.09750375151634216
1761317119952378000,8.485378173828124,-0.023076670244336128,-0.016311775892972946,-0.09688989818096161
1761317119962360000,8.495360107421876,-0.01743183471262455,-0.017855877056717873,-0.08693340420722961
1761317119972343000,8.505343017578125,-0.012813831679522991,-0.01836405135691166,-0.07327117770910263
1761317119982326000,8.515325927734375,-0.015603226609528065,-0.0015081064775586128,-0.05918119102716446
1761317119992309000,8.52530908203125,-0.02078220620751381,0.017237015068531036,-0.0572701171040535
1761317120002292000,8.5352919921875,-0.02998689003288746,0.02152550406754017,-0.051106229424476624
1761317120012274000,8.54527392578125,-0.024242056533694267,0.02847634069621563,-0.0406104251742363
1761317120022257200,8.555257080078125,-0.019464345648884773,0.025881091132760048,-0.02960570901632309
1761317120032240000,8.565240234375,-0.013970674015581608,0.01991851255297661,-0.019371332600712776
1761317120042223000,8.57522314453125,-0.001817071344703436,0.016583701595664024,-0.005825428292155266
1761317120052206000,8.5852060546875,0.00405573146417737,0.02552206814289093,0.0006290081655606627
1761317120062189000,8.59518896484375,0.001445567118935287,0.029222264885902405,-0.005721032619476318
1761317120072171000,8.6051708984375,-0.005609725136309862,0.03144102543592453,-0.019155962392687798
1761317120082154000,8.615154052734376,-0.019511159509420395,0.03453961759805679,-0.045924991369247437
1761317120092137200,8.62513720703125,-0.026965809985995293,0.03051747754216194,-0.062182266265153885
1761317120102120000,8.635119873046875,-0.030603421851992607,0.02580101788043976,-0.070939801633358
1761317120112103000,8.64510302734375,-0.02739636041224003,0.012320859357714653,-0.08018475770950317
1761317120122085000,8.655085205078125,-0.01952618733048439,0.010067292489111423,-0.08206841349601746
1761317120132067800,8.66506787109375,-0.0018765060231089592,0.04877953976392746,-0.0762496069073677
1761317120142051000,8.675051025390625,0.01861172541975975,0.08361075818538666,-0.06917385011911392
1761317120152034000,8.685033935546874,0.023469017818570137,0.06957278400659561,-0.04023309797048569
1761317120162017000,8.69501708984375,-0.03567126393318176,0.012827213853597641,0.08918561041355133
1761317120171999000,8.7049990234375,-0.015002312138676643,-0.23582066595554352,0.04624495282769203
1761317120181982000,8.71498193359375,0.029203498736023903,-0.22971802949905396,-0.013273768126964569
1761317120191965200,8.724965087890626,0.04181024432182312,-0.1294480264186859,-0.06768430024385452
1761317120201948000,8.734947998046875,0.021967295557260513,-0.06243356689810753,-0.10132322460412979
1761317120211931000,8.744930908203125,0.0041639613918960094,-0.005684506148099899,-0.130048468708992
1761317120221914000,8.7549140625,-0.008241042494773865,0.038450732827186584,-0.12396153062582016
1761317120231895800,8.764895751953125,-0.016672009602189064,0.05808550864458084,-0.07298997789621353
