time,seconds_elapsed,z,y,x
1761317040797334000,0.072333984375,-0.07224632104337216,-0.005188782548438757,0.011110245019290596
1761317040807316700,0.082316650390625,-0.07314297762215137,-0.001954860394820571,0.00862910029462073
1761317040817300000,0.092300048828125,-0.07448913153409957,-0.0006510477872565388,0.0071890895201824605
1761317040827282000,0.102281982421875,-0.0735907213896513,0.005147582888370379,0.005600902446708642
1761317040837265000,0.112264892578125,-0.08361760988533497,0.011566446087881922,-0.003352237603929825
1761317040847248000,0.122247802734375,-0.08630991770923137,0.010179941899236291,-0.0011821635558502748
1761317040857230800,0.13223095703125,-0.07882920656502246,0.005372349821263924,0.004016478232899681
1761317040867214000,0.142214111328125,-0.07314356214404105,-0.0007064495026133954,0.00953008598864544
1761317040877196800,0.15219677734375,-0.06850362738370895,-0.007010554615501314,0.004747979978378862
1761317040887179000,0.162178955078125,-0.07837795566618443,-0.009054015742382035,0.005017490235297009
1761317040897162000,0.172161865234375,-0.07448737796843051,-0.011451094346214085,0.0002483030721079558
1761317040907144700,0.182144775390625,-0.06820259861052036,-0.00666022507417947,0.00042864177480805664
1761317040917128000,0.1921279296875,-0.06490823324024676,-0.011436024641245603,0.010149281899491325
1761317040927111000,0.20211083984375,-0.07328443191945552,-0.0031329094645567235,0.008123182899365202
1761317040937094000,0.212093994140625,-0.08166179964244365,0.003546997557627037,0.0069446634721709415
1761317040947075800,0.222075927734375,-0.07792085954844952,-0.000521229128818959,0.008638411545660345
1761317040957058800,0.232058837890625,-0.07612579282522201,0.0010225662470795213,-0.002431117870751768
1761317040967042000,0.2420419921875,-0.08240998766124248,0.0019740491524804383,-0.0020341224763775244
1761317040977024800,0.252024658203125,-0.0740302818506956,-0.005949912247201428,0.00010382113407831638
1761317040987007700,0.2620078125,-0.07642506803274154,-0.009086237511551007,0.0044481659147422754
1761317040996991000,0.271990966796875,-0.07448094822764396,-0.011301593739772214,0.01643697930027265
1761317041006972700,0.28197265625,-0.07388356685638427,-0.004800842676777392,0.007604004163737408
1761317041016956000,0.291955810546875,-0.08032090642750263,0.002199519338272512,0.0012470317858736962
1761317041026939000,0.30193896484375,-0.08376081774830818,0.0016235369480680673,0.001554220871790312
1761317041036921900,0.311921875,-0.07567980262339115,0.0011805424209218472,-0.0036390049563255157
1761317041046904800,0.32190478515625,-0.07912146750986576,-0.003608774214843288,0.006298648053058423
1761317041056887800,0.3318876953125,-0.07747662291228771,-0.006537548542581499,0.0069415399333229285
1761317041066871000,0.34187109375,-0.07239011342823505,-0.004244122109469026,0.001230103483959101
1761317041076852700,0.351852783203125,-0.07149345684945584,-0.007703459649952128,0.010393671414884738
1761317041086836000,0.3618359375,-0.07732990791797638,-0.015578412542445585,0.015282489202637225
1761317041096819000,0.37181884765625,-0.07703180175423621,-0.002897191879386082,0.013708636615192516
1761317041106802000,0.381802001953125,-0.0679044924467802,-0.006776617995463311,0.005447428918047808
1761317041116785000,0.391784912109375,-0.0667062225729227,-0.00009532273379154503,0.0041249709755182265
1761317041126767900,0.401767822265625,-0.08226970240771769,-0.0019152773031033575,0.002938135811127722
1761317041136750000,0.41175,-0.08002396930754184,-0.003621250103926286,0.0005845949549227953
1761317041146732800,0.42173291015625,-0.0821171421945095,-0.003749360862467438,-0.002099136836873367
1761317041156715800,0.4317158203125,-0.07927344320118426,-0.00031134010464884337,0.004009701432241127
1761317041166699000,0.441698974609375,-0.07717793222665786,-0.002427327611623332,0.015760431745578535
1761317041176682000,0.451681884765625,-0.06715221277475357,-0.0018568981793709099,0.006745574403228238
1761317041186664700,0.461664794921875,-0.07628010660409927,-0.0030714890003670004,0.0055395230817142874
1761317041196647000,0.47164697265625,-0.07553016501963138,-0.0007776241758372635,-0.00008570095549803227
1761317041206630000,0.4816298828125,-0.07358546069264411,-0.0041418490450829265,0.0009173249074723571
1761317041216612900,0.49161279296875,-0.06760171010792256,0.00031737711979076263,0.004153955041407607
1761317041226595800,0.501595947265625,-0.07568097166717053,-0.005902666438836604,0.00928206147775054
1761317041236578800,0.511578857421875,-0.07822305736541747,-0.002434816798334941,0.010025518522504717
1761317041246562000,0.52156201171875,-0.07343465404510498,-0.004552749667223543,0.009074706903961487
1761317041256544000,0.5315439453125,-0.07657762824594974,0.001906335944822058,0.006042604632489383
1761317041266527000,0.54152685546875,-0.08136486252248287,-0.0050601512000896035,0.006751204992993734
1761317041276510000,0.551510009765625,-0.08002046217620372,-0.0024953696128446608,0.0021260796427261083
1761317041286493000,0.561492919921875,-0.06894727949798107,-0.0066669288096018135,0.00929379301473964
1761317041296476000,0.571475830078125,-0.07523205885589122,-0.005319130929838866,0.009905102446652016
1761317041306459000,0.581458984375,-0.08675532338917255,-0.004646474098972976,0.00825324358639773
1761317041316440800,0.59144091796875,-0.08092062588632107,-0.0044136608569417144,0.009488110010442323
1761317041326423800,0.601423828125,-0.07957388745248317,0.0017552279031835495,0.01100235506487079
1761317041336407000,0.611406982421875,-0.07089256834685802,-0.0006041125061456114,0.005240636033262126
1761317041346390000,0.62139013671875,-0.06789806270599365,-0.0010423760592471808,0.00030691052470356226
1761317041356372700,0.631372802734375,-0.07373334473073483,0.0010090309120714665,0.0035108256991254164
1761317041366356000,0.64135595703125,-0.07223638417124748,-0.00889781140051782,0.003339999176864512
1761317041376339000,0.6513388671875,-0.07882102325856685,-0.0032837709110230206,0.005206966659100726
1761317041386321000,0.66132080078125,-0.08241407931447028,-0.009109974580164997,0.015019271689187734
1761317041396304000,0.671303955078125,-0.07493453721404075,-0.008825778210768475,0.0055621413388988
1761317041406286800,0.681286865234375,-0.07717851674854755,-0.00768089162511751,0.004668220139900222
1761317041416269800,0.691269775390625,-0.07134148115813732,-0.00947828730274923,-0.0021001734499121083
1761317041426252800,0.701252685546875,-0.07747837647795677,-0.010539660323411226,0.01029414743001107
1761317041436235500,0.711235595703125,-0.08227087145149707,-0.0002941058420576155,0.01741963366207201
1761317041446217500,0.721217529296875,-0.0798772543132305,-0.0009818049784284084,0.0034197544487658887
1761317041456200400,0.731200439453125,-0.07628595182299613,0.0014018113556317985,0.008565396541799417
1761317041466183400,0.741183349609375,-0.08391863865852356,0.0007097831040155143,0.01082671993675176
1761317041476166400,0.75116650390625,-0.08152677508592605,0.0077495912134647365,0.0024393331432482224
1761317041486149600,0.761149658203125,-0.0716518622815609,0.0004937383336946368,0.014537735249940306
1761317041496132400,0.77113232421875,-0.06626549306809902,0.0021552600714378057,0.011337445937865414
1761317041506114600,0.781114501953125,-0.07599018374681472,0.0052311969180591405,0.011911062841047532
1761317041516097500,0.79109765625,-0.07973053931891917,0.0031016832092311234,0.005580645109969191
1761317041526080300,0.801080322265625,-0.08302373564541339,0.004080410314584151,0.005694270685431547
1761317041536063500,0.8110634765625,-0.07060498357713223,0.010388853675872087,-0.006125743738142773
1761317041546046500,0.82104638671875,-0.06896013897955418,-0.007795804975368082,0.012180901891528628
1761317041556029400,0.831029541015625,-0.07404606394171714,-0.0011739574165083467,-0.003552303920406848
1761317041566011400,0.841011474609375,-0.076888593891263,0.0023504538499750194,0.0034277231260901315
1761317041575994400,0.850994384765625,-0.07883388274013996,-0.0021500724396668375,0.00983896014157217
1761317041585977600,0.8609775390625,-0.0780827721118927,-0.000733200512221083,-0.0017602237387094645
1761317041595960300,0.870960205078125,-0.07509118908047675,0.0025185221595689653,-0.002459841641737148
1761317041605943600,0.880943603515625,-0.0845177735954523,0.0017396010757889597,0.004512929113488644
1761317041615926500,0.890926513671875,-0.08002923000454902,0.0004327379946131259,0.00917738639372401
1761317041625908500,0.900908447265625,-0.07479191387295722,0.004793718816246837,0.006369311269628815
1761317041635891500,0.910891357421875,-0.08227554762661457,-0.00044624593015760183,0.005715765564609319
1761317041645874400,0.92087451171875,-0.08841068938076496,-0.004797445143293589,-0.005329282431094907
1761317041655857700,0.930857666015625,-0.07389642633795737,-0.0038102333373855797,0.015409472016594372
1761317041665840400,0.94084033203125,-0.08107903131842613,-0.0037249936061911283,0.010333707688841969
1761317041675823400,0.9508232421875,-0.0782353323251009,-0.009885936521878465,0.00881748987303581
1761317041685806600,0.960806640625,-0.07539338689744472,-0.0057301320166792714,0.009353898304677567
1761317041695788300,0.970788330078125,-0.07659165677130222,-0.004123993727983907,0.007752641687076538
1761317041705771500,0.980771484375,-0.07524550285935401,0.00010860234047286212,0.011918862555013038
1761317041715754500,0.99075439453125,-0.07090718139410018,0.0040767387864645566,0.013316477226139977
1761317041725737500,1.000737548828125,-0.08452595690190792,0.0026066297012846914,0.004758220527891535
1761317041735720400,1.010720458984375,-0.08033844208419323,-0.005603108103526756,0.006189015949412714
1761317041745703400,1.020703369140625,-0.07869184392094612,-0.0011865794360637664,0.0025677407293114808
1761317041755685600,1.030685546875,-0.06776888336837292,-0.010760116407368332,0.004993810248898807
1761317041765668400,1.04066845703125,-0.0688151775509119,0.0022080497046001253,0.002564507592609152
1761317041775651300,1.0506513671875,-0.06941372796595097,0.0057945024897810065,0.002212853743880987
1761317041785634600,1.060634521484375,-0.07016308502852917,-0.0018891656143125146,0.01186732873059809
1761317041795617500,1.070617431640625,-0.07599836705327033,-0.005357216184213757,0.0076970436088973655
1761317041805600500,1.0806005859375,-0.0770458302795887,0.0019231226828414945,0.0014259046172723172
1761317041815582500,1.09058251953125,-0.07599836705327033,-0.0022536058793775735,0.003811320182774216
1761317041825565700,1.100565673828125,-0.07076163544356823,-0.011968149623414501,0.0012586811244720592
1761317041835548400,1.11054833984375,-0.09051555270552634,-0.0010965447987429796,0.00665070832716301
1761317041845531400,1.120531494140625,-0.07525017903447151,0.005127179421158507,-0.00003118058955296874
1761317041855514600,1.1305146484375,-0.0788408970028162,0.008883846807247027,0.008162286500469781
1761317041865497600,1.14049755859375,-0.0849754542350769,-0.0023715149043127895,0.009594310331274754
1761317041875479600,1.1504794921875,-0.0762964732170105,-0.0034306777015794066,0.004389553895569406
1761317041885462500,1.160462646484375,-0.0749497347831726,-0.0014684925168287008,0.00324079941897653
1761317041895445500,1.170445556640625,-0.07330372114181519,0.0039147348914761095,0.013460858699469827
1761317041905428500,1.180428466796875,-0.07435176889002322,-0.003794451246364042,0.009804955123981926
1761317041915411500,1.190411376953125,-0.07090893495976924,-0.004795499781379476,-0.00725951984131243
1761317041925394400,1.20039453125,-0.08018412830531596,-0.007937752463016659,0.003927192514250054
1761317041935376400,1.21037646484375,-0.0789846893876791,0.003756694785552099,0.0018302362180198542
1761317041945359400,1.220359375,-0.07180149988532065,0.005051629966916516,-0.00599466927095782
1761317041955342600,1.230342529296875,-0.06985738008022307,-0.007765044510923326,0.0038088633642066267
1761317041965325600,1.24032568359375,-0.07269991002976894,-0.0027426680379547177,0.009777073886501602
1761317041975308500,1.25030859375,-0.08137830652594566,0.004723923249356448,0.017755948377773164
1761317041985291500,1.26029150390625,-0.07434709271490574,-0.0010070398843847214,0.013551425343041773
1761317041995274500,1.2702744140625,-0.07225333530604838,-0.0024110157976392657,0.0067414393675164315
1761317042005256400,1.28025634765625,-0.0821300016760826,0.010196408976847305,0.01002106610967312
1761317042015239400,1.290239501953125,-0.07375263395309448,-0.0007280859456863254,0.007272310824226588
1761317042025222700,1.30022265625,-0.08048924873173237,-0.0033947752711363135,0.0033872632515383884
1761317042035205400,1.310205322265625,-0.06986322529911995,-0.0022215119743719696,0.008298671897011809
1761317042045188400,1.320188232421875,-0.07285656189620494,-0.0026639311127830295,0.006145366320642642
1761317042055171600,1.330171630859375,-0.06762158385217189,-0.010022860774537548,-0.0007534121831879019
1761317042065153300,1.3401533203125,-0.06432955656945705,-0.005339543530205265,0.00432521082193125
1761317042075136500,1.350136474609375,-0.0767535693347454,-0.004328777318773791,0.006564596379711293
1761317042085119500,1.360119384765625,-0.07196633505821227,-0.00667284709373489,0.0068975957603193815
1761317042095102500,1.3701025390625,-0.07376198630332946,-0.0014210092464461922,0.012212269710749388
1761317042105085400,1.38008544921875,-0.07675649194419383,-0.0008295918250922113,0.0095704819311155
1761317042115068400,1.390068359375,-0.07227145548462867,0.0005917370817624032,0.00958510411151219
1761317042125050600,1.400050537109375,-0.07017828259766101,0.001597799718612805,0.010837469659629277
1761317042135033300,1.410033447265625,-0.07376958508789538,0.008029869459569454,0.0026138311936287207
1761317042145016300,1.420016357421875,-0.06479191338419914,0.0021013653265777974,0.00037156869217287746
1761317042154999600,1.42999951171875,-0.06778466545939445,0.0026915954378433525,0.0009673745942767709
1761317042164982500,1.439982421875,-0.07377075413167476,-0.0023189809994772076,0.0010536829045508056
1761317042174965500,1.449965576171875,-0.08110416575968266,-0.00015543715688399968,0.001501965528167784
1761317042184947500,1.459947509765625,-0.07152852816283703,0.0014135565923526882,-0.0006328088776674122
1761317042194930400,1.469930419921875,-0.08065583747029303,-0.003522383706178516,-0.0053213822524296114
1761317042204913400,1.479913330078125,-0.08619359785318374,-0.005516681062243878,0.0064197993478504935
1761317042214896400,1.489896484375,-0.06404957058429718,-0.00009708543261513113,0.003297479775967076
1761317042224879600,1.499879638671875,-0.08125731049478054,-0.0023534769241232425,0.009374479868402704
1761317042234862600,1.509862548828125,-0.07916238404214382,-0.012221768191456794,0.004645236556534655
1761317042244845300,1.51984521484375,-0.08140870166420935,0.00030433497512713075,0.0014399331426247954
1761317042254827500,1.52982763671875,-0.0838034878462553,0.006456464396696537,0.003844930191431194
1761317042264810500,1.539810546875,-0.06988777521848678,0.004695838799187914,0.008319952147058211
1761317042274793500,1.54979345703125,-0.0731803870230913,0.0030862481780815866,0.0019352332457434386
1761317042284776400,1.5597763671875,-0.07647299882769584,-0.005290681153489276,0.00854446791820228
1761317042294759400,1.569759521484375,-0.0770715492427349,-0.003227519812295213,0.011590320153813808
1761317042304741400,1.579741455078125,-0.07333236271440982,0.0020755093661136924,0.0030606890451395884
1761317042314724400,1.589724365234375,-0.07123977434933185,-0.0021174579448532314,0.009806076218700036
1761317042324707600,1.59970751953125,-0.07812135055661201,-0.0031167163815815,0.008043212998332456
1761317042334690600,1.609690673828125,-0.08276011627316475,-0.001092982868477702,0.012044740257272497
1761317042344673300,1.61967333984375,-0.07707271828651428,0.008374773907102643,0.009223399226227775
1761317042354656500,1.629656494140625,-0.06659867054522037,0.006265590600250288,0.0020188335757004095
1761317042364639500,1.639639404296875,-0.08740005103349685,0.0005130275560542941,-0.006943535527586937
1761317042374621400,1.649621337890625,-0.07887012309730053,0.002984431771421805,0.010232119611045346
1761317042384604400,1.6596044921875,-0.07258592826128006,-0.0018834665258880704,0.004598876664158888
1761317042394587400,1.66958740234375,-0.0657043520539999,-0.0020721848978661,0.009642569919792003
1761317042404570600,1.679570556640625,-0.07228840661942959,-0.0010483217428438364,0.011228784231888129
1761317042414553300,1.68955322265625,-0.0805184748262167,-0.009265749663766473,0.0047636753044324
1761317042424536600,1.69953662109375,-0.08111760976314544,-0.0023520795514807105,0.0114883210840635
1761317042434518500,1.7095185546875,-0.0722878220975399,0.001328554323175922,0.008872375565161928
1761317042444501800,1.719501708984375,-0.0661526803433895,0.004233070992492139,0.003241625969461165
1761317042454484700,1.729484619140625,-0.07258885087072849,0.0007725096093025058,0.016271057281992397
1761317042464467500,1.739467529296875,-0.06720189713537693,0.007022117189131677,-0.00037631793252658095
1761317042474450700,1.74945068359375,-0.06720072809159755,0.006338847632706165,0.0009239647108130156
1761317042484433700,1.75943359375,-0.07318740128576755,-0.003503176682209596,0.00137682761142496
1761317042494415600,1.76941552734375,-0.07229016018509864,-0.002085007846821099,0.0027194241596851495
1761317042504398600,1.779398681640625,-0.06840192057490349,0.0027976587613578884,0.004958919315319508
1761317042514381600,1.789381591796875,-0.07603285384476184,-0.0008546806005761027,0.0053037643973482766
1761317042524364800,1.79936474609375,-0.07259001991450786,0.00010432802415452897,0.010525070109055377
1761317042534347500,1.809347412109375,-0.07154138764441013,0.011423347822763025,0.010731004477315582
1761317042544330500,1.81933056640625,-0.08216624203324317,0.0008322039072867482,0.013316806019702926
1761317042554312700,1.829312744140625,-0.06810322988927364,0.0011893102492671458,0.00837094254877884
1761317042564295400,1.83929541015625,-0.07663315782546996,-0.0015993980206549167,0.005523544627870433
1761317042574278700,1.849278564453125,-0.08201835799515247,-0.0016044395219534636,0.0036098336607683448
1761317042584261600,1.85926171875,-0.06136953772008419,0.003978584774769842,-0.002232416960876435
1761317042594244600,1.86924462890625,-0.06810322988927364,0.0015935893343761562,-0.0011108701516175641
1761317042604227600,1.8792275390625,-0.0821697491645813,-0.0006171181181911379,-0.0019687016905052587
1761317042614210600,1.88921044921875,-0.07827800242304801,0.0008407068741507828,-0.000561889932770282
1761317042624192800,1.89919287109375,-0.07034779394567012,0.002360655583580956,0.002801371388672851
1761317042634175500,1.909175537109375,-0.07468786897659302,0.0007668379203416407,-0.0006871283142128959
1761317042644158700,1.91915869140625,-0.08127133902013302,0.00023826573528349399,0.007363423173781484
1761317042654141700,1.9291416015625,-0.07319149293899535,0.0026437468412797895,0.001981903665373102
1761317042664124400,1.93912451171875,-0.07289397129714488,0.0008246507884934544,0.008979306538356468
1761317042674107600,1.949107666015625,-0.07454173850417137,0.009486616739677265,0.010160095554450526
1761317042684089600,1.959089599609375,-0.08037877409458159,0.0002881692916154861,-0.00383553674200084
1761317042694072600,1.969072509765625,-0.07170154664218426,0.005241745711537077,0.0037188150271540506
1761317042704055600,1.9790556640625,-0.06481938591301441,0.005451799132488668,0.002107160313124768
1761317042714038500,1.98903857421875,-0.06826221984326838,-0.007734658505814149,-0.0012101292750099674
1761317042724021800,1.999021728515625,-0.07828677025139331,-0.011717681993683799,0.005444634172762744
1761317042734004500,2.00900439453125,-0.07469371419548988,-0.017203885719273237,0.016643831550562753
1761317042743986700,2.018986572265625,-0.07035422368645668,-0.006996644821157679,0.006860044795484282
1761317042753969700,2.0289697265625,-0.07319733815789223,-0.002941761673474684,-0.0032806154061341655
1761317042763952400,2.038952392578125,-0.0754419022142887,-0.0007239212272223084,-0.003941033809934743
1761317042773935600,2.048935546875,-0.07349719788730144,-0.0015786109609529375,0.002663497287943028
1761317042783918600,2.058918701171875,-0.07364800453484058,0.007774250730685889,0.002026263396907598
1761317042793901600,2.068901611328125,-0.07454699920117855,0.008625195871060714,-0.006215760109154507
1761317042803883500,2.078883544921875,-0.07439853064119815,0.006275545738684013,0.008911858192179352
1761317042813866500,2.088866455078125,-0.0684141955345869,0.010519001127872615,0.006568240508367307
1761317042823849700,2.098849609375,-0.07589899833202361,0.006911532954126596,0.008847094993432983
1761317042833832400,2.10883251953125,-0.0782920309484005,0.0029710882326588034,0.0006153919519856572
1761317042843815700,2.118815673828125,-0.07919102561473845,0.0054383368627168235,0.006426777077908627
1761317042853798700,2.128798583984375,-0.08472761695384978,0.003584891015756875,0.003156468436657451
1761317042863780600,2.138780517578125,-0.06991290965974331,0.00771562501178123,0.009044576627179049
1761317042873763600,2.148763671875,-0.07829261547029018,-0.010569562271330504,0.007582427086168899
1761317042883746600,2.15874658203125,-0.08218319316804408,-0.009357729663001373,0.0100500501755625
1761317042893729800,2.168729736328125,-0.08053717952668667,0.0020123079367913303,0.005507579873758368
1761317042903712500,2.17871240234375,-0.08053834857046603,0.0016232355539686977,0.008779272187920286
1761317042913695500,2.188695556640625,-0.07201017419993877,0.007825789121678098,-0.003972652790904976
1761317042923677700,2.198677734375,-0.0715595078229904,0.0032168157551903274,0.004579149050381965
1761317042933660400,2.208660400390625,-0.07365443427562714,0.006358401716547086,0.00683613419693429
1761317042943643600,2.2186435546875,-0.0733551590681076,0.009374370270548387,0.004433374770986848
1761317042953626600,2.228626708984375,-0.07604688237011432,0.0023823833581991492,0.00746753200222738
1761317042963609600,2.238609619140625,-0.06482464661002159,-0.005076819207100197,0.0008962684197118505
1761317042973592600,2.248592529296875,-0.080087097671628,-0.004768940568016842,0.007520673261838965
1761317042983575600,2.258575439453125,-0.07215630467236042,-0.002046283271629363,-0.0010105150496819988
1761317042993557800,2.268557861328125,-0.08337970947623252,0.0030484003857243805,-0.0019209444254869594
1761317043003540500,2.27854052734375,-0.08861702560782432,0.0062503656316548585,0.0051605702341068534
1761317043013523500,2.2885234375,-0.07664601730704307,0.0122776722303126,-0.0021778189631178973
1761317043023506700,2.298506591796875,-0.07993804458975791,0.001256320204026997,0.006142827303684316
1761317043033489700,2.30848974609375,-0.07649637970328331,0.001743044275045395,0.005416800884343684
1761317043043472600,2.31847265625,-0.06991057157218455,0.0013207728755194692,0.008179685159842484
1761317043053454600,2.32845458984375,-0.09430150098502635,0.0005761193875223398,0.013427440487057902
1761317043063437800,2.338437744140625,-0.07918868752717971,0.0006853153830394149,0.006851103437202982
1761317043073420500,2.348420654296875,-0.07979016055166721,-0.002861289448942989,0.0003923785847611725
1761317043083403500,2.358403564453125,-0.0841302355825901,-0.00027426863042637705,0.004322014217847027
1761317043093386800,2.36838671875,-0.07470306654572487,0.006589972849562763,0.010928540909988805
1761317043103369700,2.37836962890625,-0.0762006116271019,0.008761526468675583,-0.006239812271599658
1761317043113351700,2.3883515625,-0.07530453957021235,0.004622280372632667,0.012693267293879762
1761317043123334700,2.398334716796875,-0.07799860095977783,-0.0040308629512786865,0.013055040677823126
1761317043133317600,2.408317626953125,-0.07814999212920665,0.0029493239254225045,0.009390567920100875
1761317043143300600,2.418300537109375,-0.08817571158111095,-0.00033317747712135315,0.010781551921041682
1761317043153283600,2.42828369140625,-0.08787877446115017,-0.0019601302249822763,0.014789097928814589
1761317043163266600,2.4382666015625,-0.07575988212227822,0.0005702102365437895,0.00538061075953301
1761317043173248500,2.44824853515625,-0.07800619974434375,0.004004011476971209,0.001426776833529584
1761317043183231500,2.4582314453125,-0.0700742377012968,0.006827708861883729,0.0035616608372190965
1761317043193214700,2.468214599609375,-0.07710778959989548,0.005806649585301056,0.011695995318260974
1761317043203197700,2.47819775390625,-0.07755377980172634,0.00041000557299703357,0.004258968052151613
1761317043213180400,2.488180419921875,-0.06663023472726344,0.003194640456000343,0.009528807347011751
1761317043223163600,2.49816357421875,-0.08204349243640899,0.0010366495713591574,0.012476035213470458
1761317043233145600,2.5081455078125,-0.07171849777698516,-0.007305254112603143,-0.0026704065193422135
1761317043243128600,2.518128662109375,-0.07680559178292751,0.0005686028013471514,0.008112615839578211
1761317043253111600,2.528111572265625,-0.06887479878365993,0.0031442893750965595,0.008884650524845347
1761317043263094800,2.5380947265625,-0.06947334919869899,0.0017942538724746555,0.005619657379528507
1761317043273077500,2.548077392578125,-0.07994622789621353,0.003055451181018725,0.007952383776567876
1761317043283060500,2.558060546875,-0.0809931066006422,-0.005244467391585931,0.008711316951666959
1761317043293043700,2.568043701171875,-0.07321428929269314,-0.001972048991639167,0.010038177074678242
1761317043303025400,2.578025390625,-0.07037292838692664,0.0042834586060140276,0.010442145632533355
1761317043313008600,2.588008544921875,-0.07546236048042773,0.00862843814091757,0.010392703300504945
1761317043322991600,2.59799169921875,-0.06723404583930968,0.004225554406316951,0.0004393869311083108
1761317043332974600,2.607974609375,-0.06813245598375797,0.0026254439996089784,-0.0054296649324940514
1761317043342957600,2.61795751953125,-0.07277297526597976,0.01155502964472398,0.0013539901585318146
1761317043352940500,2.6279404296875,-0.07830956660509109,0.010648865452082826,0.005176895747822709
1761317043362922800,2.6379228515625,-0.07232523149847984,0.0022950886672362682,-0.0003893783434992656
1761317043372905500,2.647905517578125,-0.07352408589422703,0.004177249152027071,0.00007448087516240776
1761317043382888400,2.657888427734375,-0.0705313338190317,-0.0026782153664622454,0.010767952653951942
1761317043392871700,2.66787158203125,-0.07876081750392913,-0.002591395599534735,0.009204552961862646
1761317043402854700,2.677854736328125,-0.07546879022121429,0.006226866025058553,0.00973445858748164
1761317043412837600,2.687837646484375,-0.07292728904485703,0.014309077593218535,0.014651803783397189
1761317043422819600,2.697819580078125,-0.0724789607554674,0.005366194075113162,-0.002124243878666311
1761317043432802600,2.707802490234375,-0.08025894710719585,0.005164963281434029,0.00572437812932767
1761317043442785800,2.717785888671875,-0.06888707374334335,-0.0000329524215310812,0.0029946974371094256
1761317043452768800,2.727768798828125,-0.0739741677492857,-0.006960879388032481,0.007727685342333279
1761317043462751700,2.737751708984375,-0.07427052034735679,0.001105769284814596,-0.00047089174764696504
1761317043472735000,2.74773486328125,-0.08055413066148757,0.005539066423987969,-0.00032082031904719766
1761317043482716700,2.757716552734375,-0.07307049690783024,-0.0015922284943517297,-0.0006807396726217121
1761317043492700000,2.767699951171875,-0.07845628159940242,0.0013336780228652059,0.00783716446564067
1761317043502683000,2.777682861328125,-0.07680909891426563,0.0014009254396427423,0.004274640545318834
1761317043512665900,2.787665771484375,-0.0760609108954668,-0.0008512100018560886,-0.0022187948609003797
1761317043522648800,2.79764892578125,-0.07366787827908992,0.0028150848201941698,0.01117747416975908
1761317043532631800,2.8076318359375,-0.07860708824694156,-0.0034873854580335316,0.013177744608884677
1761317043542613800,2.81761376953125,-0.07411737561225891,0.003699932230170816,0.008462100564106368
1761317043552596700,2.8275966796875,-0.07755845597684383,0.005329159133508801,0.0011486220458522438
1761317043562580000,2.837580078125,-0.0711240390151739,0.005521749963006004,0.0038777456156443802
1761317043572563000,2.84756298828125,-0.07651099275052547,0.010880025593144818,0.0060589210130507125
1761317043582545700,2.857545654296875,-0.07800678426623343,0.00676037011356093,0.009255319601297378
1761317043592529000,2.86752880859375,-0.07651040822863578,0.0006251278947107493,0.0057243187638232485
1761317043602512000,2.877511962890625,-0.07157119826078415,0.0074240307872183615,0.00960735704251565
1761317043612493800,2.887493896484375,-0.08264554998278617,0.0013527206500526516,0.0076734755036421114
1761317043622476800,2.897476806640625,-0.07800503070056437,-0.004111179912183433,0.010595386265753768
1761317043632459800,2.907459716796875,-0.06902677447497844,-0.002961635417724028,0.006243698428850621
1761317043642443000,2.917443115234375,-0.07965045982003212,-0.008159779449552297,-0.0013323993812315166
1761317043652425700,2.92742578125,-0.07815583734810352,0.003329308819491416,0.003424964913423173
1761317043662408700,2.93740869140625,-0.07261983053088188,0.003174976774305105,0.006783107101754285
1761317043672391000,2.947390869140625,-0.07815583734810352,0.001880169457104057,0.008267413675645366
1761317043682374000,2.957373779296875,-0.08159574866890906,0.008007155304262414,0.0036419777981238437
1761317043692356900,2.96735693359375,-0.07710486699044704,0.004906431076256558,0.007811756029748357
1761317043702339800,2.97733984375,-0.08114508229196071,0.006822384232794866,0.00162055040653795
1761317043712323000,2.987322998046875,-0.07650807014107704,0.004860820102551951,0.008935956020397134
1761317043722305800,2.997305908203125,-0.08264379641711711,0.004742317422572523,0.010285133006493561
1761317043732288000,3.0072880859375,-0.07875380324125289,0.005093669877201319,0.0037131479047704486
1761317043742271000,3.01727099609375,-0.07755787145495414,0.0008087590996176003,0.00017687267055734992
1761317043752253700,3.027253662109375,-0.08429273266792296,-0.0013320888539776205,0.0005260651341406628
1761317043762237000,3.03723681640625,-0.07441723534166812,-0.0013234762892592698,0.0021346922074444593
1761317043772220000,3.047219970703125,-0.06873100639879703,0.006161490904958918,0.0077214017320191486
1761317043782203000,3.057202880859375,-0.07037760456204414,0.010424061986571177,0.0006836485823383554
1761317043792184800,3.067184814453125,-0.07606324898302555,-0.0008279661235865205,0.0048294796827947715
1761317043802167800,3.077167724609375,-0.07621288658678531,0.005153400707803666,0.012270068879169411
1761317043812151000,3.087151123046875,-0.07800795331001281,0.004964344409108161,0.00503298919852823
1761317043822133800,3.0971337890625,-0.07381751588284968,0.008324541557207703,0.007124536383990198
1761317043832116700,3.10711669921875,-0.0742658441722393,0.003941732496256008,0.0018738675804808734
1761317043842100000,3.117099853515625,-0.07516483883857726,-0.0016725637215655295,-0.009190976527659222
1761317043852083000,3.1270830078125,-0.08100012086331844,0.002741763855656609,0.008111807555402629
1761317043862065000,3.13706494140625,-0.07441606629788876,0.003641370443347841,0.01397110977654811
1761317043872047900,3.1470478515625,-0.07726034981310367,0.0014240962526760994,0.017102156077581455
1761317043882030800,3.15703076171875,-0.07322130355536938,-0.0016645722113549709,-0.0023478189348941666
1761317043892013800,3.167013916015625,-0.06948094798326492,-0.002706098887231201,0.0028328853383660316
1761317043901996800,3.176996826171875,-0.07217325580716133,0.007554507032781839,0.0005076435614610091
1761317043911980000,3.18697998046875,-0.0756160897374153,-0.002257907595159486,-0.00515835087755695
1761317043921961700,3.196961669921875,-0.06963175463080405,-0.0011626871038228272,-0.000940436355001293
1761317043931945000,3.206945068359375,-0.0783130737364292,-0.002218050508806482,0.0017961809680797159
1761317043941928000,3.216927978515625,-0.08160568554103374,0.0046929801218211645,0.0037248703086050225
1761317043951910700,3.22691064453125,-0.0765180070132017,0.0038910069560166446,0.008830066226818598
1761317043961894000,3.236893798828125,-0.0682879388064146,0.005947345830779522,0.010499611440813168
1761317043971876900,3.246876953125,-0.07217676293849945,0.004930405606888235,0.00597593717102427
1761317043981859000,3.256859130859375,-0.07546645213365555,-0.004809172113705427,0.007789119506254792
1761317043991841800,3.266841796875,-0.07367080088853836,-0.000643467268999666,0.005193883415241725
1761317044001824800,3.27682470703125,-0.08773439755439758,0.0020978764615487305,0.008003839969169348
1761317044011808000,3.28680810546875,-0.08084989873766898,0.0037902225958183406,-0.0034257275318261234
1761317044021790700,3.296790771484375,-0.07800678426623343,0.00005663469121791422,-0.0011392605624627322
1761317044031773700,3.306773681640625,-0.08024842571318148,0.013768915435066446,-0.005859772578603588
1761317044041756000,3.316755859375,-0.07052139694690704,0.0067147774061653755,0.0015761998081579803
1761317044051738600,3.326738525390625,-0.07949965317249298,0.009526090233540162,0.010921946772420778
1761317044061721900,3.336721923828125,-0.07785363953113555,0.00264587486628443,0.01006041630594991
1761317044071704800,3.346704833984375,-0.07261690792143344,-0.0000126768184825778,0.008920667119720019
1761317044081687800,3.356687744140625,-0.08219429908394812,0.002717131737899035,0.012897187801566906
1761317044091670800,3.3666708984375,-0.08219429908394812,0.002437036154884845,0.005520252125663682
1761317044101652700,3.37665283203125,-0.06812836433053017,0.005773907226324081,-0.004224440161464736
1761317044111636000,3.386635986328125,-0.07560907547473907,-0.00046271300776861606,-0.0010420061664888635
1761317044121618700,3.39661865234375,-0.0775549488455057,0.0034544695691205557,-0.007635340016917325
1761317044131602000,3.406601806640625,-0.07157061373889446,0.004127263397304341,-0.0006712548916460946
1761317044141585000,3.4165849609375,-0.06109481243193149,0.0028351412275340404,0.00764897581662517
1761317044151568000,3.42656787109375,-0.0693248806387186,0.003384418273903429,0.011596334336069412
1761317044161550800,3.43655078125,-0.07485913389027118,0.012657593192299827,0.0028798023531679063
1761317044171532800,3.44653271484375,-0.07411153039336205,0.011502477473579346,0.0030415231203660366
1761317044181516000,3.45651611328125,-0.07455985868275165,0.006073611692106351,0.005602304385928437
1761317044191498800,3.466498779296875,-0.06797580411732196,-0.0017240290473215282,0.005882664830423891
1761317044201481700,3.476481689453125,-0.07530687765777111,0.0012107548960950225,0.007655971812992356
1761317044211465000,3.48646484375,-0.0745581051170826,0.00039481713701970873,0.003975826562102884
1761317044221448000,3.496447998046875,-0.0705190588593483,0.0013289835814386606,0.0007330224157078191
1761317044231430000,3.506429931640625,-0.07081716502308845,0.0006539429972413927,-0.002268812581663951
1761317044241412900,3.516412841796875,-0.07365969497263432,-0.0013930983262136578,0.009670316443243064
1761317044251395800,3.526395751953125,-0.07575403690338134,0.004854299030220136,0.004305108748818748
1761317044261378800,3.53637890625,-0.07620178067088126,0.004298473512055352,0.0021918748879339546
1761317044271361800,3.54636181640625,-0.08158756536245346,-0.0013196312312036753,-0.0005451762599870563
1761317044281344800,3.5563447265625,-0.07156184591054916,-0.00042245406261645255,0.004937104775733314
1761317044291326700,3.56632666015625,-0.06617430765330791,0.0028591066250111905,0.0114495051773265
1761317044301309700,3.576309814453125,-0.07290683077871798,-0.0014593045633751898,0.003631625367468223
1761317044311293000,3.58629296875,-0.0832324099600315,0.0005802384402137249,0.005488733609393239
1761317044321276000,3.59627587890625,-0.07410510065257549,0.001508431801572442,-0.0025126175751676782
1761317044331259000,3.6062587890625,-0.07829495355784892,0.0028745507893152534,-0.004923934766906313
1761317044341241900,3.616241943359375,-0.07275777769684791,0.0007673311106860637,0.0011964249766431747
1761317044351224000,3.62622412109375,-0.07604688237011432,0.006495545164914802,-0.00033786278539337216
1761317044361206800,3.636206787109375,-0.07559680051505566,0.0025350897018797695,0.009416958170104772
1761317044371189800,3.646189697265625,-0.07155775425732136,0.007687677558930591,0.00986182042735163
1761317044381173000,3.656173095703125,-0.07350479667186736,0.003743442578334361,0.01611273404827807
1761317044391156000,3.666156005859375,-0.07604922045767307,0.0026000081642530855,0.012504644820024259
1761317044401138700,3.676138671875,-0.07590133641958237,-0.004437178729847073,0.005493519382365047
1761317044411121000,3.686120849609375,-0.07829729164540768,0.002532642016466707,0.005728711811150424
1761317044421103900,3.696103759765625,-0.08637772224843501,-0.0013805676382035016,-0.0033444561562733723
1761317044431086800,3.7060869140625,-0.07725099746286869,0.002711679244646802,-0.00411991577448789
1761317044441069800,3.71606982421875,-0.08832476466298103,0.004676074652792885,-0.0010616972476476803
1761317044451052500,3.726052490234375,-0.07201426585316657,0.0019455080445855855,-0.0058478583785239605
1761317044461035800,3.736035888671875,-0.070666942897439,-0.0010957136816810815,-0.0010490752280922606
1761317044471017700,3.746017822265625,-0.07455752059519291,0.0000608450754545629,0.0026259737225715067
1761317044481000700,3.756000732421875,-0.06812193458974361,0.0035277357347309585,0.0027604731227038426
1761317044490983700,3.765983642578125,-0.07336217333078383,-0.0018308230231981724,0.008328943737689404
1761317044500967000,3.775966796875,-0.07276479195952415,0.0012492146098054945,0.0056387411059113214
1761317044510949600,3.78594970703125,-0.08324000874459743,-0.0068042092552874234,0.00291422521257773
1761317044520932600,3.7959326171875,-0.07949965317249298,0.004947913864115252,0.006364982154383324
1761317044530915800,3.805915771484375,-0.07501344766914844,0.010198911461187525,0.002009220930561423
1761317044540897800,3.815897705078125,-0.07935469174385071,0.0030108174548484383,-0.0024889170391717923
1761317044550880800,3.825880859375,-0.07935644530951977,0.004582669881451874,0.006262284398311749
1761317044560863700,3.83586376953125,-0.07935586078763007,0.0008354370439890772,0.0041889121903572225
1761317044570846700,3.8458466796875,-0.07277239074409007,0.0076566522330045695,0.0023781684073852375
1761317044580829700,3.85582958984375,-0.08204816861152649,0.006361607453785836,-0.010658217802317812
1761317044590812700,3.865812744140625,-0.08084989873766898,-0.004938844641670584,0.000477074893261306
1761317044600795000,3.875794921875,-0.07486322554349899,-0.00019133958732709286,0.007169229475664906
1761317044610777600,3.885777587890625,-0.07650865466296672,-0.0015155647952575235,0.012598492549359798
1761317044620760600,3.895760498046875,-0.0673819298774004,-0.0020199432539753613,-0.00042588812871836125
1761317044630743800,3.905743896484375,-0.07800619974434375,-0.003803173408936709,-0.001411967423465103
1761317044640726800,3.915726806640625,-0.07920388509631157,-0.000045117783360183234,0.006941453168354928
1761317044650709500,3.92570947265625,-0.07007657578885555,-0.002825030825473368,0.011754305943334474
1761317044660691700,3.935691650390625,-0.07845628159940242,0.000770573380542919,0.0011141398209379985
1761317044670674700,3.9456748046875,-0.08803250371813774,-0.003927713104058057,0.001061299955425784
1761317044680657700,3.95565771484375,-0.07531447644233703,0.001073364852555096,-0.003949102951958775
1761317044690640600,3.965640625,-0.07995441120266913,0.006968231577426195,-0.0033717688548844304
1761317044700624000,3.975623779296875,-0.07741115646064281,0.011048714957246556,-0.008891217262949794
1761317044710606800,3.98560693359375,-0.06993102983832358,0.006366164897894487,-0.0004511321678292006
1761317044720588800,3.9955888671875,-0.07307400403916835,-0.0019961605195887386,-0.0019042581521673126
1761317044730571800,4.00557177734375,-0.07127952183783054,0.006737327164690941,0.0011758205800317227
1761317044740554800,4.0155546875,-0.06619125878810882,-0.005588997379783541,0.0017285088596167041
1761317044750537700,4.025537841796875,-0.06798632551133632,0.0016786920682527124,-0.0008812489470932632
1761317044760520700,4.035520751953125,-0.06798574098944664,0.005217962977150455,-0.0013917283530347048
1761317044770503700,4.045503662109375,-0.07741232550442219,0.01487020947416313,-0.006245858419896103
1761317044780485600,4.055485595703125,-0.06992752270698548,0.005698613500408828,-0.01120743548318278
1761317044790468600,4.065468505859375,-0.06573708527982235,0.0040069888853468,-0.0015132358408533036
1761317044800451800,4.075451904296875,-0.07306874334216118,-0.005483198917750269,0.010624183101975358
1761317044810434800,4.085434814453125,-0.08967734831571579,-0.009742518596351146,0.016602143266727216
1761317044820417500,4.09541748046875,-0.0748626410216093,-0.012153616592381148,0.028624721924541515
1761317044830400800,4.10540087890625,-0.0862345143854618,-0.004423268935503438,0.01475882152155973
1761317044840382700,4.1153828125,-0.08204524600207805,-0.0020855010371655224,0.0013926508016418664
1761317044850365700,4.12536572265625,-0.08009820358753204,0.016516058718739075,-0.004746833767485805
1761317044860348700,4.1353486328125,-0.079050155839324,0.017893110092449933,-0.006527561438106931
1761317044870331600,4.14533154296875,-0.0711199473619461,0.015698166464595122,-0.006644264886644669
1761317044880315000,4.15531494140625,-0.08189385483264923,0.0009155165428761392,-0.00015098017747513948
1761317044890297600,4.165297607421875,-0.07695698295235634,0.004141127525875345,-0.0027645328098908064
1761317044900280800,4.17528076171875,-0.06752922939360141,0.007449411823647096,-0.002200533118424937
1761317044910262800,4.1852626953125,-0.07097030975818634,0.0012587039573583752,0.010249577635922468
1761317044920245800,4.195245849609375,-0.07605798828601837,0.00023286804095841942,0.0152454496944556
1761317044930228700,4.205228759765625,-0.08847966296374797,-0.007864011373370885,0.01991254645634908
1761317044940211700,4.215211669921875,-0.06962298680245876,-0.005480020579975098,0.019458541911421344
1761317044950195000,4.22519482421875,-0.08054653187692165,0.004475985503429546,0.006592566665448248
1761317044960177700,4.235177734375,-0.0693248806387186,0.005904219075106084,0.005877815125370398
1761317044970159900,4.245159912109375,-0.08189385483264923,-0.006893595438636839,-0.00901241879009176
1761317044980142800,4.255142822265625,-0.06797638863921165,0.004373876835824921,-0.01017674986172933
1761317044990125600,4.26512548828125,-0.0814461110651493,0.011800547104701398,-0.005253038857108913
1761317045000108800,4.27510888671875,-0.08174947792589664,0.008889920355007052,-0.00038237321397755294
1761317045010091800,4.285091796875,-0.09043079703152179,0.01066060155564919,-0.003433171052765101
1761317045020074800,4.29507470703125,-0.07696341269314289,0.006644826575648039,0.010938573680236003
1761317045030056700,4.305056640625,-0.07322597973048686,-0.0014852244559209792,0.014248748540994711
1761317045040039700,4.315039794921875,-0.08235562712550162,-0.006897641426092014,0.02292009880845435
1761317045050023000,4.32502294921875,-0.07846446490585804,-0.007509900706075131,0.016008113763178698
1761317045060005600,4.335005615234375,-0.08205810548365115,-0.008517716908594593,0.013948505219095386
1761317045069988600,4.344988525390625,-0.07861644059717655,-0.007032081460719927,0.0049244599232915786
1761317045079971800,4.354971923828125,-0.08624620482325554,0.006873913490632548,-0.008876522017316892
1761317045089953500,4.36495361328125,-0.07711714195013046,0.013384893686696887,-0.0006650397799909115
1761317045099936800,4.374936767578125,-0.07352700850367545,0.015691517528099937,-0.013143714475119486
1761317045109919700,4.384919677734375,-0.0857943694025278,0.012797147793462499,-0.01568302369439043
1761317045119902700,4.39490283203125,-0.0823521199941635,0.009592689196346328,-0.008210870315972715
1761317045129885700,4.4048857421875,-0.07591594946682453,0.000651933703245595,0.0034115209099603817
1761317045139868700,4.41486865234375,-0.06214870539903641,-0.009592944924673065,0.010712002949323505
1761317045149851000,4.424850830078125,-0.07397124513983726,-0.013100268059037625,0.013429668976762331
1761317045159833600,4.43483349609375,-0.07801262948513031,-0.011650772503623738,0.013159140373114496
1761317045169816800,4.44481689453125,-0.07681494413316249,-0.007048913864511996,0.005176461922982707
1761317045179799800,4.4547998046875,-0.06469663631618022,0.00008155906992033124,-0.00946232711521443
1761317045189782500,4.464782470703125,-0.07427285843491553,0.014216321275848895,-0.004782457636715844
1761317045199765800,4.474765869140625,-0.07128069088160992,0.014569208100438116,-0.012712711779866367
1761317045209747700,4.484747802734375,-0.07547054378688335,0.004120422664564103,-0.018519667325844057
1761317045219730700,4.494730712890625,-0.08160510101914405,0.008655134351598098,-0.005356672761519439
1761317045229713700,4.504713623046875,-0.08190437622666358,-0.00231133654913865,-0.00281788869863376
1761317045239696600,4.514696533203125,-0.07756547023952007,-0.000023992796940729022,0.016430115734646096
1761317045249680000,4.524679931640625,-0.07158171965479851,-0.009839439632184803,0.013064087067381477
1761317045259662600,4.53466259765625,-0.07607260133326053,-0.009913783510029315,0.006022173765813932
1761317045269645600,4.5446455078125,-0.0706844785541296,-0.008810297513846307,0.01012715226607397
1761317045279627800,4.554627685546875,-0.06918751799464225,0.007559667265089228,-0.0026181922749150544
1761317045289610800,4.56461083984375,-0.0732248106867075,0.012287444705655797,-0.015527750934287906
1761317045299593700,4.57459375,-0.07412555891871452,0.008135777519457042,-0.006936745027196593
1761317045309576700,4.58457666015625,-0.08519991064071655,0.005963009190792217,-0.0015216429095948115
1761317045319560000,4.594559814453125,-0.07831833443343639,0.0020143537634052335,-0.005359691269090399
1761317045329542700,4.604542724609375,-0.07293196521997451,0.0014483173784799873,-0.010512617052858695
1761317045339524900,4.61452490234375,-0.08819441628158092,-0.006345122109865769,0.0019839951577596366
1761317045349507800,4.6245078125,-0.07981587951481342,-0.006470273726340383,0.0008452460519503801
1761317045359490600,4.634490478515625,-0.0862479583889246,0.007591067050350829,0.010365034408867359
1761317045369473800,4.644473876953125,-0.07726853311955928,-0.006836056565120816,0.004472747800149955
1761317045379456800,4.654456787109375,-0.07547171283066273,-0.010669424182921647,0.011255110549810342
1761317045389439700,4.664439697265625,-0.07337503281235694,-0.008766019980702549,-0.000921928017353639
1761317045399421700,4.674421630859375,-0.07367489254176617,-0.0019285112440120427,-0.0008001191354356706
1761317045409404700,4.68440478515625,-0.06918693347275257,0.0057944750903174275,-0.006134096007957123
1761317045419388000,4.694387939453125,-0.07936229052841663,-0.002422231311397627,0.004736257574544288
1761317045429370600,4.70437060546875,-0.07711772647202014,0.0021495153172407296,-0.005264213271671906
1761317045439353900,4.714353759765625,-0.0754728818744421,0.004890146661736071,0.0025844407023629173
1761317045449336800,4.7243369140625,-0.0658954907119274,-0.0011597736275289208,0.011647256239131092
1761317045459318800,4.73431884765625,-0.07532324427068234,-0.003509670355077833,0.003751899879425764
1761317045469302000,4.744302001953125,-0.08370119651556014,-0.000858260797150433,0.01445170093430206
1761317045479284700,4.75428466796875,-0.06649170303940773,-0.0008830573116894811,0.00967956832877826
1761317045489267700,4.764267822265625,-0.07098083115220069,0.0060032224701717495,0.006297447043238208
1761317045499251000,4.7742509765625,-0.07472235576808452,0.0028814097883645444,0.005286356604821048
1761317045509234000,4.78423388671875,-0.07457388720810412,0.0022174933863803744,-0.005612962777260691
1761317045519215900,4.7942158203125,-0.07607026324570179,0.0007082396009005606,-0.007639285539672709
1761317045529198800,4.80419873046875,-0.08055997588038444,-0.005736278629675507,-0.0028049378855153915
1761317045539181800,4.814181884765625,-0.07023731930851936,-0.00007929404759779572,-0.002503630551113747
1761317045549164800,4.824164794921875,-0.06904138752222061,0.0003922415874432772,-0.004292820089403539
1761317045559147800,4.834147705078125,-0.07592471729516982,0.002979518134286627,0.001038969392608851
1761317045569131000,4.844131103515625,-0.0778688371002674,0.0030968791699502616,0.00866448213525582
1761317045579112700,4.85411279296875,-0.0735293465912342,0.0017701240782160312,0.01799381682083476
1761317045589096000,4.864095947265625,-0.07457739433944224,-0.00044785336535423993,0.01979963326693978
1761317045599079000,4.874078857421875,-0.07966741095483303,0.00704266678681597,0.026393428341671823
1761317045609062000,4.884061767578125,-0.07068915472924708,0.015162205557525158,0.005649705457920208
1761317045619044900,4.894044921875,-0.07263502810001372,0.009353318349365144,0.004697816127142869
1761317045629027800,4.90402783203125,-0.07637596819400787,-0.0030404088755138217,-0.009968080113688483
1761317045639010000,4.914010009765625,-0.0813157626837492,-0.00020437259883619843,-0.022654013484483582
1761317045648992800,4.92399267578125,-0.08445756784081458,0.002933861494809389,-0.011007378299860282
1761317045658975700,4.933975830078125,-0.0702402419179678,0.0010536281056236474,0.0007723726119846105
1761317045668959000,4.943958984375,-0.06949146937727928,-0.0031967136820778247,0.007888753088982776
1761317045678942000,4.95394189453125,-0.08206278165876865,-0.0028002525772433725,0.016626770817907525
1761317045688924700,4.963924560546875,-0.07787292875349522,0.0070642940967343745,0.021603961008857003
1761317045698908000,4.973907958984375,-0.08131342459619045,-0.002121777926944196,0.011725294477981514
1761317045708889900,4.983889892578125,-0.07966799547672271,0.0010436455677263437,0.01040139349703677
1761317045718872800,4.993872802734375,-0.0862520500421524,0.004852718994487077,0.002933002978283912
1761317045728855800,5.003855712890625,-0.08296002275943756,0.0009481127713806927,-0.004680348969111219
1761317045738838800,5.0138388671875,-0.07817161943912505,0.001297547263558954,-0.00956562309290748
1761317045748821800,5.02382177734375,-0.07832242608666419,0.005075421834457665,-0.017170814566733316
1761317045758804700,5.0338046875,-0.07817571109235286,0.0028261816029436886,-0.012022076334315351
1761317045768787000,5.043786865234375,-0.06755085670351982,-0.0021425193208735433,0.0035961019629379733
1761317045778770000,5.05377001953125,-0.07652911292910576,-0.006709827236412093,0.0022562453610356897
1761317045788753000,5.0637529296875,-0.0732370856463909,0.008062849280564114,0.01910439014493022
1761317045798736000,5.07373583984375,-0.07278992640078068,0.0036849447235930708,0.007984674044395797
1761317045808718800,5.08371875,-0.07204115386009216,0.003881837268872186,0.00815795738522429
1761317045818701800,5.093701904296875,-0.08475918113589287,0.002618466269550845,0.0019808990183752028
1761317045828683800,5.103683837890625,-0.07697685669660567,0.009283705445565282,-0.0024062300246674565
1761317045838667000,5.1136669921875,-0.07233809098005295,-0.0013496884427499024,-0.005565748934936709
1761317045848649700,5.123649658203125,-0.07907061410546302,-0.0013996102653909474,-0.007296203156467527
1761317045858632700,5.1336328125,-0.0837117179095745,-0.000622141353180632,-0.007884629469714128
1761317045868616000,5.143615966796875,-0.07742869211733341,-0.0026430618546903132,-0.004195469795307144
1761317045878599000,5.153598876953125,-0.07652911292910576,0.0015690576813183724,-0.0033332360759377477
1761317045888580900,5.163580810546875,-0.08401157763898372,0.007271890699118376,0.001982611484848894
1761317045898563800,5.173563720703125,-0.07458440860211848,0.005118265462340787,0.0030845539779169482
1761317045908546800,5.183546875,-0.0681482380747795,0.007701569086965173,0.010624406864261254
1761317045918529800,5.19352978515625,-0.07413374222517014,0.012647610654402524,0.007852156538795679
1761317045928512800,5.2035126953125,-0.07817337300479411,0.005105542978085577,-0.00046932541164569554
1761317045938496000,5.21349609375,-0.07578034038841724,0.0024635953682474792,-0.003132923164288513
1761317045948477700,5.223477783203125,-0.07607669298648834,0.001067126908013597,0.0017078998964279888
1761317045958461000,5.2334609375,-0.08086217369735241,-0.00010576192941516638,-0.01509594908801373
1761317045968444000,5.24344384765625,-0.07607201681137085,0.004757597190095111,-0.010014946896140462
1761317045978427000,5.253427001953125,-0.07652326771020888,0.0044258444850798695,0.0007899402347160502
1761317045988409900,5.263409912109375,-0.07547814257144927,-0.0075260207238141445,0.0014517971103545277
1761317045998392800,5.273392822265625,-0.0793681357473135,-0.0021463278463110325,0.005307819517957978
1761317046008375000,5.283375,-0.07637479915022849,0.0038338516749907283,0.00904453552798368
1761317046018357800,5.293357666015625,-0.08505611825585364,-0.0003923237858340144,0.012523267322103493
1761317046028340700,5.3033408203125,-0.0694949765086174,0.005072042567282915,0.007320369483344256
1761317046038324000,5.313323974609375,-0.06665069299340248,0.01083054216192104,-0.0013908926693955435
1761317046048307000,5.323306884765625,-0.07188800912499427,0.009305414953874424,-0.0017251843913691116
1761317046058289700,5.33328955078125,-0.0666495239496231,0.006794254116853699,-0.00543019465545658
1761317046068273000,5.34327294921875,-0.06859481279850006,-0.001721206902572885,-0.00843757804420311
1761317046078254800,5.3532548828125,-0.06994038218855858,-0.0016848204149398952,-0.004615316342306323
1761317046088237800,5.36323779296875,-0.07712298716902732,-0.004423424199130386,0.0007946620756061748
1761317046098220800,5.373220703125,-0.07891863841414451,-0.0023492848061956464,0.0062612751847365864
1761317046108203800,5.383203857421875,-0.083110244885087,0.005237681457772851,0.0004580048666102811
1761317046118187000,5.39318701171875,-0.08176350645124912,0.012693705685297027,-0.00036730807558633385
1761317046128169700,5.403169677734375,-0.0810147339105606,0.012198679576814173,0.011037033652607352
1761317046138152000,5.41315185546875,-0.07323416303694248,0.007180613952782005,0.016154244235600343
1761317046148135000,5.423135009765625,-0.06949205389916896,0.007141825445508584,0.01221468999669887
1761317046158118000,5.433117919921875,-0.07293430330753325,0.00660918900668621,0.008707371428911573
1761317046168100900,5.443100830078125,-0.07906944506168365,-0.00399727120893076,-0.0023975078620947898
1761317046178083800,5.453083740234375,-0.07712474073469638,-0.008118990781437605,-0.007572549579548649
1761317046188067000,5.463067138671875,-0.06844517519474029,-0.0025643340626731515,-0.020274297007406128
1761317046198048800,5.473048828125,-0.08340776652693747,0.006315859482763335,-0.01786713083439972
1761317046208032000,5.483031982421875,-0.08655074072778224,0.00842709774938412,-0.011062971811462194
1761317046218015000,5.493014892578125,-0.07562661113142967,-0.002560333740990609,0.0026633876900887116
1761317046227997700,5.502997802734375,-0.07457739433944224,0.0069572078599128865,0.007921394983259961
1761317046237981000,5.51298095703125,-0.08819441628158092,0.007840730962483212,0.012977650892944075
1761317046247964000,5.5229638671875,-0.07846914108097552,0.012694043612014502,0.018897359798126852
1761317046257945900,5.53294580078125,-0.07308277186751365,0.011686674934066832,0.007690718899387865
1761317046267928800,5.5429287109375,-0.07442834125757217,-0.0027384119879454373,0.0018329693145118652
1761317046277911800,5.552911865234375,-0.0747276164650917,0.003421389283426106,-0.0032951645212946456
1761317046287895000,5.56289501953125,-0.07188157938420772,0.0026389793346170334,-0.005910297189443372
1761317046297877800,5.572877685546875,-0.07382803727686404,-0.00257019754787907,-0.008930156467272899
1761317046307860700,5.58286083984375,-0.07113514493107795,0.0025119006225373594,0.0014682504882337524
1761317046317843000,5.592843017578125,-0.0718827484279871,-0.0008072247296571731,0.00788699039015919
1761317046327825700,5.60282568359375,-0.07816694326400757,-0.0022125340834725647,0.0024061432596994563
1761317046337809000,5.612808837890625,-0.07277940500676632,-0.0058545347144827245,0.009129921389650552
1761317046347792000,5.6227919921875,-0.07816518969833851,-0.0057776244202163065,0.01982365802992135
1761317046357774800,5.63277490234375,-0.07756605476140975,0.007039442783268168,0.014372909210203214
1761317046367757800,5.6427578125,-0.08594459152817725,0.0015370733741670846,0.008407438634266145
1761317046377740000,5.652739990234375,-0.07741466359198093,0.004465701571432873,0.008342762200487778
1761317046387723000,5.662722900390625,-0.08474690617620945,0.007346791699388996,-0.005346092002000659
1761317046397705700,5.672705810546875,-0.07217617841660975,0.001599151425482705,0.00043910380331799387
1761317046407689000,5.68268896484375,-0.07202478724718094,0.000727766285277903,-0.0014585282452404499
1761317046417672000,5.692671875,-0.07636486227810382,-0.0026716120957396925,0.003963044712343253
1761317046427654700,5.702654541015625,-0.07950549839138984,-0.008569355764286591,-0.004917441094038077
1761317046437636400,5.71263623046875,-0.08145020271837711,-0.0028854831752832977,-0.00195178252174519
1761317046447619300,5.722619384765625,-0.0810018744289875,-0.005554537987755611,-0.0015599062604829668
1761317046457602600,5.7326025390625,-0.0745668729454279,0.0007281681440770625,0.009956777834962122
1761317046467585500,5.74258544921875,-0.08115151203274726,0.0072972900018561625,0.01151168369334191
1761317046477568500,5.752568603515625,-0.07710837412178516,0.002921157276863232,0.002260505977622233
1761317046487551500,5.762551513671875,-0.07964870625436306,0.007955890907905995,0.00814046282772906
1761317046497533400,5.772533447265625,-0.07291384504139423,0.001459569424856454,0.004464646692085079
1761317046507516400,5.782516357421875,-0.08428630292713642,0.0032412926093209533,-0.0025517348760040475
1761317046517499400,5.79249951171875,-0.07441255916655064,-0.0032216928597074,-0.005336296693771146
1761317046527482600,5.802482666015625,-0.07201835750639438,-0.0014262790766078979,-0.004498571794573217
1761317046537465600,5.812465576171875,-0.08279168045520782,0.000924467034311965,-0.002063741296506487
1761317046547448300,5.8224482421875,-0.08219196099638938,-0.0005295494325924664,0.005592773939180187
1761317046557430500,5.832430419921875,-0.07515840909779072,-0.002256099230563268,0.010353275472414679
1761317046567413500,5.84241357421875,-0.07590659711658954,0.0011634451556485146,0.013738798858015797
1761317046577396500,5.852396484375,-0.08294014901518822,0.011820466514723375,0.007305030350317247
1761317046587379500,5.86237939453125,-0.07710428246855736,0.01106385772745125,0.014659681129176169
1761317046597362400,5.872362548828125,-0.07635609444975852,-0.00167148600933142,0.013660619055270216
1761317046607345700,5.882345703125,-0.07935118461251259,0.006500075209559872,0.00227476283183787
1761317046617327400,5.892327392578125,-0.07695639843046664,0.0014791052423883228,-0.005412220607348717
1761317046627310600,5.902310546875,-0.07770517097115516,-0.00315077391481027,-0.0011362877206644042
1761317046637293600,5.91229345703125,-0.07126958496570587,0.002594172078510746,-0.005644207298895343
1761317046647276300,5.9222763671875,-0.07336626498401165,-0.005349590000184252,-0.0002313793367706239
1761317046657259500,5.932259521484375,-0.07980302003324032,-0.009377840869268402,-0.0032979501334251832
1761317046667242500,5.942242431640625,-0.0786053346812725,0.0011919314646162092,0.0021834952186560257
1761317046677224400,5.952224365234375,-0.07201894202828407,0.0035475272805895654,0.010741763333347625
1761317046687207400,5.96220751953125,-0.07994973502755165,-0.006438179821334779,0.00695041279294528
1761317046697190400,5.9721904296875,-0.07620704136788845,0.005131006212905049,-0.0029198740686522794
1761317046707173600,5.982173583984375,-0.0705190588593483,0.006078351799305528,0.003738191014481708
1761317046717156400,5.99215625,-0.06842237884104252,0.008226542809139937,0.006981442685448564
1761317046727139600,6.0021396484375,-0.07695172225534916,0.0009020634062588214,-0.011831978856003842
1761317046737122600,6.01212255859375,-0.07201485037505627,0.004744737708522006,-0.003737743489909917
1761317046747104500,6.0221044921875,-0.07919745535552501,0.004285595764173195,0.0011119889630470425
1761317046757087500,6.03208740234375,-0.0796422765135765,0.0013384911953005939,0.0015743412112118676
1761317046767070500,6.042070556640625,-0.07485328867137432,-0.002274666933715343,-0.0014864163325866684
1761317046777053700,6.0520537109375,-0.08083937734365462,0.0021034933515824378,-0.0002812737599480897
1761317046787036400,6.062036376953125,-0.07260930913686751,-0.002562352168140933,0.005092898125643842
1761317046797019400,6.072019287109375,-0.07485328867137432,0.0017872396097984163,0.0038294997268589212
1761317046807001600,6.082001708984375,-0.07335632811188697,-0.0030275676602497695,0.010071001632045953
1761317046816984300,6.091984375,-0.07275777769684791,0.005823847315274178,0.015805476463702506
1761317046826967600,6.101967529296875,-0.0787450354129076,0.00039653417007066305,0.0008215500825317576
1761317046836950500,6.111950439453125,-0.08308277235627173,0.011948540740646421,-0.006355716569116339
1761317046846933200,6.121933349609375,-0.07260697104930877,0.006648269774904474,-0.005402219803142361
1761317046856916500,6.13191650390625,-0.07335632811188697,-0.0024107326698489485,0.002618178575183265
1761317046866898400,6.1418984375,-0.07650047135651111,0.011305840656626969,0.009113536510430276
1761317046876881400,6.15188134765625,-0.08203998530507087,-0.004954626732692122,0.007006768922950141
1761317046886864400,6.161864501953125,-0.07530570861399173,-0.006316498803580179,0.002566621917882003
1761317046896847400,6.171847412109375,-0.08353694586455822,0.0010674465684220194,-0.004506430874043144
1761317046906830600,6.18183056640625,-0.0814414348900318,-0.005721957843378186,0.009661123923212288
1761317046916813300,6.191813232421875,-0.07964461460113526,0.0012739563254173844,0.01081731735416688
1761317046926795500,6.20179541015625,-0.06902034473419189,0.00037407574309036135,0.009404272218467668
1761317046936778500,6.211778564453125,-0.0803916335761547,0.0023950967092998326,0.0007379497525747865
1761317046946761500,6.221761474609375,-0.0678214903384447,0.002196514530433342,0.003682693401002325
1761317046956744400,6.231744384765625,-0.06826806506216526,0.0011869904280174524,-0.005172630564658902
1761317046966727400,6.2417275390625,-0.0691641371190548,0.0010669533780775964,-0.008336926114745437
1761317046976710700,6.251710693359375,-0.06826514245271682,0.012210470479307695,-0.006802980846003629
1761317046986692400,6.2616923828125,-0.07260346391797065,0.008260189350415021,-0.004045827624970116
1761317046996675600,6.271675537109375,-0.07664251017570495,0.004301816246611997,0.011337080611684359
1761317047006658600,6.281658447265625,-0.06781213798820972,-0.0026731464657001195,0.01873155194427818
1761317047016641300,6.291641357421875,-0.07813421003818512,-0.008298201539553702,0.017871167688700368
1761317047026624500,6.30162451171875,-0.08531447693109512,-0.013081554225413128,0.008329048768966459
1761317047036607500,6.311607421875,-0.08157061422765255,-0.009865204261103645,-0.009913304019416681
1761317047046589400,6.32158935546875,-0.07902443687617779,-0.0013418156635481863,-0.013467242774483747
1761317047056572400,6.331572509765625,-0.08725216699540615,0.008187909565493465,-0.01473950033315923
1761317047066555400,6.341555419921875,-0.07363163792192935,0.004046051387256011,-0.011591434398666023
1761317047076538600,6.35153857421875,-0.07542319751381873,0.008702690687216817,-0.004326265701279044
1761317047086521300,6.361521240234375,-0.06943769336342812,0.016851601682882755,-0.0006280916033545509
1761317047096504600,6.371504638671875,-0.0832025993436575,0.018243138239672406,0.007599734413996338
1761317047106486500,6.381486572265625,-0.08260229536294937,0.024461117705376817,0.017495849836594423
1761317047116469500,6.391469482421875,-0.0661404053837061,0.02154239898077212,0.007518504137638956
1761317047126452500,6.401452392578125,-0.08469254564046859,0.014120103492913767,0.007859426529798656
1761317047136435500,6.411435546875,-0.06523731906414032,0.011416205695923417,0.0033385698381811378
1761317047146418700,6.421418701171875,-0.07526186947226524,0.0020092300637159495,0.010467257240903563
1761317047156401400,6.4314013671875,-0.06807809544801711,-0.01875820248918608,-0.000418248244957067
1761317047166383600,6.441383544921875,-0.06613105303347111,-0.030260031508794052,-0.0017503873312845826
1761317047176366600,6.45136669921875,-0.0692728581905365,-0.027754779822751877,-0.002685115464706905
1761317047186349300,6.461349365234375,-0.06493278315961361,-0.03825050967289135,-0.009975153741869143
1761317047196332500,6.47133251953125,-0.06777706667482852,-0.027422780522564423,-0.0009407331825233995
1761317047206315500,6.4813154296875,-0.0707715723156929,-0.02255968626453541,-0.0044819448867579915
1761317047216298500,6.491298583984375,-0.07166764437258243,-0.00473784217685461,-0.006010387429897673
1761317047226280400,6.501280517578125,-0.0677776511967182,0.012051425726385786,0.0056952433663886035
1761317047236263400,6.511263427734375,-0.07675415385663509,0.015845785641204566,0.007147734596487134
1761317047246246700,6.52124658203125,-0.06912263606488704,0.005200655649323016,0.007274785909103229
1761317047256229400,6.5312294921875,-0.071067924913764,-0.00009217179547995328,0.007788343188120052
1761317047266212400,6.54121240234375,-0.08752981489300728,-0.0021813169613014907,0.00535490549611859
1761317047276195600,6.551195556640625,-0.07541033803224563,-0.011050203661434351,0.0008606902162544428
1761317047286177300,6.56117724609375,-0.06523556549847126,-0.02385160750490613,-0.008769403814454563
1761317047296160500,6.571160400390625,-0.08019874135255813,0.0007841817807871848,-0.011809155102842486
1761317047306143500,6.5811435546875,-0.08289338726401328,-0.001235021687671542,-0.023260295114829202
1761317047316126500,6.59112646484375,-0.07645897030234336,-0.012772954067122191,-0.01174938317304477
1761317047326109400,6.601109375,-0.08259528110027313,-0.03524961082385853,0.015160817318037152
1761317047336092400,6.611092529296875,-0.08977671703696251,-0.005757887673284858,0.014350368584832176
1761317047346074600,6.62107470703125,-0.07241817047894,0.0209830937307328,0.013746886266348882
1761317047356057300,6.631057373046875,-0.07840484367311,0.03080084212091751,0.019597059899545275
1761317047366040600,6.64104052734375,-0.07601064201295375,0.04202762619196437,0.018124430063716133
1761317047376023600,6.6510234375,-0.07630991722047328,0.02233606097595766,0.004849558923020959
1761317047386006500,6.661006591796875,-0.07616261770427227,-0.014005455004144459,-0.0048675877700559795
1761317047395989500,6.670989501953125,-0.07646130838990212,-0.03217398450449109,-0.01419735171389766
1761317047405971500,6.680971435546875,-0.07975392019450664,-0.05339777338961139,-0.00979770111599937
1761317047415954700,6.69095458984375,-0.07526537660360336,-0.047271472529042506,-0.007702007478382438
1761317047425937400,6.7009375,-0.07077800205647945,-0.0300201857377775,-0.00786611656548921
1761317047435920400,6.71092041015625,-0.07407061386108398,0.0028023623359389603,0.0020618918327149002
1761317047445903600,6.720903564453125,-0.07571779654622078,0.016156102832546457,0.01609292423611041
1761317047455886600,6.730886474609375,-0.0811065038472414,0.0318184399319347,0.0158289030050626
1761317047465868500,6.74086865234375,-0.07272738255858421,0.037843271445715795,0.014887087543727829
1761317047475851500,6.7508515625,-0.06988485260903834,0.021914593294030053,0.021008013542857952
1761317047485834500,6.76083447265625,-0.07452478736937046,0.012127532303053886,0.017563289049617015
1761317047495817500,6.7708173828125,-0.06210369721353054,-0.009048627181211485,0.007919636851013637
1761317047505800400,6.780800537109375,-0.0844002846956253,-0.024501066123275086,-0.008114953927136957
1761317047515783400,6.790783447265625,-0.07721709519326686,-0.029919218714488667,-0.01645164257986471
1761317047525765400,6.800765380859375,-0.06689326957762241,-0.032058925023768094,-0.017995789582212453
1761317047535748600,6.81074853515625,-0.06749006642699241,-0.02288330132886767,-0.020422701635304838
1761317047545731600,6.820731689453125,-0.07332651749551296,-0.010762052636127919,-0.006487110696709714
1761317047555714600,6.830714599609375,-0.061958735784888266,0.008971598155936227,0.00497651890409179
1761317047565697500,6.840697509765625,0.1379401517033577,0.036703408095054325,0.008103437019279226
1761317047575680500,6.850680419921875,-0.20861586242914198,0.028125439766049382,-0.03208064823180903
1761317047585662700,6.860662841796875,-0.4758668691784143,0.011219431881653145,0.012360030451253987
1761317047595645400,6.8706455078125,0.2883341267883777,-0.003723066510586068,0.036078211701684626
1761317047605628400,6.88062841796875,-0.1384317346125841,-0.023235320503776892,0.039664710152638144
1761317047615611600,6.890611572265625,-0.13050094161331652,-0.02483591496767476,0.017950575900729744
1761317047625594600,6.9005947265625,0.0352963543087244,-0.042835490242438386,0.009317594015435315
1761317047635577300,6.910577392578125,-0.12840835324823854,-0.013418156635481864,0.004100918813073076
1761317047645559600,6.9205595703125,-0.12107552614212036,-0.0005830057860352098,-0.008724706156202591
1761317047655542500,6.93054248046875,0.03529401622116565,0.01734769637044519,-0.012900658400286919
1761317047665525500,6.940525390625,-0.20592530817091464,0.0205955922504887,-0.004845882828324101
1761317047675508500,6.950508544921875,0.03783317930996418,0.018374609999079257,0.0007036456241738051
1761317047685491500,6.960491455078125,-0.13440087166130543,0.018613916913978755,0.009160499191004782
1761317047695474700,6.970474609375,-0.0989355905264616,0.012823378213262186,0.02222776459616143
1761317047705456400,6.980456298828125,-0.014090484672784804,-0.0007053809235338122,0.00975500361858867
1761317047715439600,6.990439697265625,-0.13619593838453292,-0.011234739048639312,0.006461957989144139
1761317047725422600,7.000422607421875,-0.03713409112989902,-0.018563511034147814,0.0021931398298358543
1761317047735405600,7.010405517578125,-0.0742442168623209,-0.027560654623294246,0.0026286817028885706
1761317047745388500,7.020388427734375,-0.10402385357618331,-0.027114426959445697,0.008064949906105175
1761317047755371500,7.03037158203125,-0.023220716589689255,-0.01774158192570321,0.006452596505754627
1761317047765353500,7.040353515625,-0.13006138115227223,-0.013467713131941854,-0.0003059104442829266
1761317047775336400,7.05033642578125,-0.05629004249870777,-0.0018072777508292347,0.0027603543916950002
1761317047785319700,7.060319580078125,-0.07110474979281425,0.016669952372508123,-0.0013456835544900967
1761317047795302700,7.070302734375,-0.09534487255811691,0.026774810608383267,0.0009966098219156266
1761317047805285400,7.080285400390625,-0.03593757482171058,0.023012791193742305,-0.002341306995716877
1761317047815268600,7.0902685546875,-0.09504501282870768,0.020696413143305108,0.0030304446039255708
1761317047825250600,7.10025048828125,-0.08307225096225739,0.0047479251794517036,0.003232570446748286
1761317047835233500,7.110233642578125,-0.0640659371972084,-0.009897535628126933,0.0010836168185109271
1761317047845216500,7.120216552734375,-0.09384323582351208,-0.009016560675669461,-0.006117679162696003
1761317047855199500,7.130199462890625,-0.05463876816034317,0.0004567947236355394,-0.02195949644825887
1761317047865182500,7.140182373046875,-0.08785773167312144,0.0038326186991296707,-0.02432321163860615
1761317047875165400,7.15016552734375,-0.07558920173048973,0.006263015050673857,-0.011530507124820724
1761317047885147600,7.160147705078125,-0.07005319491326809,0.012415875124605371,-0.00974028097349219
1761317047895130600,7.170130615234375,-0.09190086958408356,0.014005911661870776,0.004883223730605095
1761317047905113300,7.18011328125,-0.0663145929068327,-0.00042582419663667677,0.018628959219483657
1761317047915096600,7.1900966796875,-0.07754033579826354,0.0092033062862698,0.021101509645744226
1761317047925079600,7.20007958984375,-0.0672165101826191,-0.016761402648780493,0.03259605040804017
1761317047935062500,7.2100625,-0.07604454428255558,-0.02348832715046592,0.027482342389808036
1761317047945044500,7.22004443359375,-0.08218143960237502,-0.025474231137521564,0.019841883239778688
1761317047955027500,7.23002734375,-0.07245557987987995,-0.017685148163884876,0.006296675291680731
1761317047965010400,7.240010498046875,-0.07829319999217986,-0.001554371568839997,-0.02488434808612801
1761317047974993400,7.249993408203125,-0.07156067686676978,0.010783040625229477,-0.039344095329567785
1761317047984976600,7.2599765625,-0.0762006116271019,0.029393258611625058,-0.04563069218522869
1761317047994959600,7.269959716796875,-0.07934241678416729,0.03730791332684457,-0.03764094924007077
1761317048004941600,7.279941650390625,-0.07036299151480198,0.03916916802092455,-0.022523176479316315
1761317048014924500,7.289924560546875,-0.07365501879751682,0.02075585171296261,0.010226342890807427
1761317048024907500,7.299907470703125,-0.07694704608023166,0.009090301765315233,0.03115527244862169
1761317048034890500,7.309890380859375,-0.07216039632558822,-0.006208946775877848,0.04892360538393259
1761317048044873500,7.31987353515625,-0.08622516203522682,-0.01393626222545281,0.046550113151664844
1761317048054856400,7.3298564453125,-0.0730547148168087,-0.020169786320161073,0.037995977789396417
1761317048064838400,7.33983837890625,-0.07919102561473845,-0.028896734665799884,0.009206612488208338
1761317048074821400,7.3498212890625,-0.07889116588532924,-0.02205316151450388,-0.022284189224825238
1761317048084804600,7.3598046875,-0.07290449269115924,-0.0012781484433449803,-0.03523148607870098
1761317048094787600,7.36978759765625,-0.06931494376659393,-0.001630880004307255,-0.033901127957506105
1761317048104770300,7.379770263671875,-0.06856500218212604,0.005436912090610713,-0.029516716027935035
1761317048114753500,7.38975341796875,-0.07664251017570495,0.008430550081795081,-0.007380301243346184
1761317048124735500,7.399735595703125,-0.0748451053649187,0.017899859493644907,0.0022017112953588366
1761317048134718500,7.409718505859375,-0.07170563829541206,0.0138560274629388,0.016773896804172544
1761317048144701400,7.419701416015625,-0.07365209618806838,0.010941710918815805,0.03433657849901356
1761317048154684400,7.429684326171875,-0.07245557987987995,0.0014181505690794437,0.03397023397122975
1761317048164667600,7.439667724609375,-0.08218202412426472,-0.005418746246257797,0.019848427144996822
1761317048174650400,7.449650390625,-0.08367898468375205,-0.0043191601070575415,0.01786069196045864
1761317048184632600,7.459632568359375,-0.06631926908195018,0.0011090754867531358,0.0021750744501827283
1761317048194615600,7.469615478515625,-0.06916179903149604,-0.005656363527569919,-0.02132935445171315
1761317048204598500,7.4795986328125,-0.07948796273469924,0.0001990479697473347,-0.019056011825404128
1761317048214581500,7.48958154296875,-0.07410159352123737,-0.0006710219962056726,-0.01784997877019923
1761317048224564500,7.499564453125,-0.07350362762808799,0.010965073528094216,-0.010973238568240775
1761317048234547700,7.509547607421875,-0.07485211962759494,0.012159516610205173,0.004048339242464862
1761317048244529400,7.519529296875,-0.08098667685985565,0.013311727985786273,0.015222306280885823
1761317048254512600,7.5295126953125,-0.06991407870352268,0.010634827793575823,0.01543950182867702
1761317048264495600,7.53949560546875,-0.07694646155834198,-0.0012410130370408296,0.027673467348003758
1761317048274478300,7.549478271484375,-0.08502864572703837,-0.019514783876994624,0.020126038509979842
1761317048284461600,7.559461669921875,-0.06826923410594463,-0.021249790976056827,0.016673637600359507
1761317048294444500,7.569444580078125,-0.0763484956651926,-0.010128047315217555,0.006311356837581843
1761317048304426500,7.579426513671875,-0.07799450930655003,-0.009955248031578958,-0.014938004880212246
1761317048314409500,7.589409423828125,-0.07679390134513378,-0.0003305288623087108,-0.01897507380999159
1761317048324392400,7.599392333984375,-0.0805354259610176,0.020802750461455435,-0.01922250466584228
1761317048334375700,7.609375732421875,-0.06392448289990425,0.02049967586165294,-0.014114354172139429
1761317048344358400,7.6193583984375,-0.0757476071625948,0.01824954058099538,-0.003408872295147739
1761317048354341600,7.629341552734375,-0.07814239334464072,0.013518922729371115,0.0038942400927189733
1761317048364323600,7.639323486328125,-0.06617196956574917,0.00040324703864753246,0.024531283165025522
1761317048374306600,7.649306640625,-0.06961421897411346,-0.01529882841608487,0.02328070314861834
1761317048384289500,7.65928955078125,-0.07140870117545127,-0.009396317240875213,0.019696373821864836
1761317048394272500,7.6692724609375,-0.07799392478466033,-0.010800923341792076,0.016988028178620152
1761317048404255700,7.679255859375,-0.06886603095531463,-0.016605189173761754,0.0033126271127490326
1761317048414238500,7.689238525390625,-0.06916764425039292,-0.0004757460192777216,-0.016374129497399553
1761317048424220700,7.699220703125,-0.0744055449038744,0.004187204290460795,-0.02380008281364571
1761317048434203600,7.70920361328125,-0.07725158198475837,0.006136255999002606,-0.017096082529821432
1761317048444186400,7.719186279296875,-0.08039455618560314,0.011115377852134406,-0.016193809061008504
1761317048454169600,7.729169677734375,-0.07740472671985625,0.01175311863324605,0.004280202636425383
1761317048464152600,7.739152587890625,-0.07875204967558383,0.0029675993676297366,0.017986674693995154
1761317048474135600,7.749135498046875,-0.08279284949898719,0.0043317090613767505,0.014246401320281437
1761317048484117500,7.759117431640625,-0.07650923918485641,0.0022760825726669282,0.00889382934514433
1761317048494100500,7.7691005859375,-0.0759130268573761,-0.0014445453856606035,0.015712473551160656
1761317048504083700,7.779083740234375,-0.07531389192044735,-0.005093633344583213,0.009192794025409966
1761317048514066400,7.78906640625,-0.08309621635973453,0.0017003559107892214,0.0069968229176709425
1761317048524049400,7.79904931640625,-0.07202361820340156,-0.0018404767675325273,0.00455856748665683
1761317048534032600,7.80903271484375,-0.07875906393826007,-0.0032079565952997653,-0.006899034232157282
1761317048544014300,7.819014404296875,-0.07786182283759116,0.001794938859064132,-0.006298990546353161
1761317048553997600,7.82899755859375,-0.07367138541042804,0.006044312532385811,-0.004265256229043007
1761317048563980500,7.83898046875,-0.07995499572455883,0.008053524329792708,0.0009692514575319365
1761317048573963500,7.848963623046875,-0.07262099957466125,0.005736963616264984,0.009093480103090405
1761317048583946500,7.858946533203125,-0.07546236048042773,0.0139897003125865,0.02176770476978272
1761317048593929500,7.868929443359375,-0.07905307844877242,0.0026465963854920118,0.019828242873493582
1761317048603911400,7.878911376953125,-0.07710545151233672,0.007322661905130371,0.012272996055195107
1761317048613894400,7.888894287109375,-0.07845043638050556,-0.006643502268241718,0.012611050636833532
1761317048623877600,7.898877685546875,-0.0771025289028883,-0.014337353839632123,0.005226228481996804
1761317048633860600,7.908860595703125,-0.07276303839385509,-0.007895739952195436,-0.006588365414366125
1761317048643843300,7.91884326171875,-0.07440671394765376,-0.002774204820534214,-0.007783036825340241
1761317048653826600,7.92882666015625,-0.08502923024892807,0.005352768337959423,-0.005161670779227279
1761317048663808500,7.93880859375,-0.07934124774038791,0.01076452772100456,-0.0008263175891945138
1761317048673791500,7.94879150390625,-0.0794897163003683,0.011568564979732037,0.0063154393576551225
1761317048683774500,7.9587744140625,-0.08592413326203822,0.016362375127524136,0.012857079553464427
1761317048693757400,7.96875732421875,-0.079490300822258,0.005308700867369771,0.02421978779674973
1761317048703740700,7.97874072265625,-0.06991349418163299,-0.0025153438217937947,0.02005885045870673
1761317048713723400,7.988723388671875,-0.08158756536245346,-0.007732064689928666,0.013670834488607942
1761317048723705600,7.99870556640625,-0.0732072750300169,-0.01118322805711068,0.0032147790617309507
1761317048733688600,8.0086884765625,-0.0806879861742258,-0.005877952122688293,-0.0033810572730377316
1761317048743671300,8.01867138671875,-0.0802396578848362,-0.0012745225809980183,-0.009514317597355692
1761317048753654500,8.028654541015625,-0.07994096719920635,0.0024790760651696472,-0.011091677316138521
1761317048763637500,8.038637451171875,-0.08068915521800518,0.0024679244834929703,-0.012815126408147625
1761317048773619500,8.048619384765624,-0.0787444508910179,0.004268589830445126,-0.015196701482171192
1761317048783602400,8.0586025390625,-0.07665010896027087,0.005331186693813651,0.002045945344911888
1761317048793585700,8.068585693359376,-0.07231061845123768,0.005479326460231095,0.013540673336875624
1761317048803568600,8.078568603515626,-0.07261047818064689,-0.004676503911055624,0.020499127872381357
1761317048813551400,8.08855126953125,-0.07859656685292721,-0.005529138685017824,0.013789921690477058
1761317048823534600,8.09853466796875,-0.07710077533721924,0.0027601123631000517,0.019451303886459208
1761317048833517600,8.108517578125,-0.07650222492218017,0.003697658074693754,0.00565118959553074
1761317048843499500,8.11849951171875,-0.07216390345692635,-0.002514914563531056,0.001179994431650266
1761317048853482500,8.128482421875,-0.0724620096206665,-0.0002749627501703799,-0.005246371654304675
1761317048863465500,8.138465576171875,-0.08936988980174064,-0.0012528313389979302,-0.008380372530827298
1761317048873448700,8.14844873046875,-0.07964403007924556,0.000921644889563322,-0.003546709863259457
1761317048883431400,8.158431396484374,-0.07649988683462143,-0.00245745788840577,-0.0017033150528557599
1761317048893413600,8.16841357421875,-0.07185995207428932,0.0038931258478667585,0.005696467209095135
1761317048903396600,8.178396728515626,-0.07111001048982143,0.004983414435759187,0.009882781016989611
1761317048913379300,8.18837939453125,-0.07365443427562714,-0.002348161428188905,0.014849970403732732
1761317048923362600,8.198362548828126,-0.0751502257913351,-0.0013318787914235145,0.009615038025472313
1761317048933345500,8.208345458984375,-0.0790413880109787,0.0009734664083458482,0.007568649722565896
1761317048943328500,8.21832861328125,-0.07320669050812721,-0.0002931468608323484,0.012681745819444767
1761317048953310500,8.228310546875,-0.08203355556428432,-0.00038652423270978033,0.005140815220866352
1761317048963293400,8.23829345703125,-0.07724632128775119,-0.00283827389953658,0.000506269021704793
1761317048973276700,8.248276611328125,-0.07874152828156948,0.00498748782267794,-0.00838871566748712
1761317048983259400,8.25825927734375,-0.06677110450267791,0.0033466344136279073,-0.0058651200405787675
1761317048993242600,8.26824267578125,-0.07111059501171112,0.008151760539878159,0.005793232981301844
1761317049003225600,8.2782255859375,-0.07425181564688682,0.0071305642659775905,0.005729963053320534
1761317049013207600,8.28820751953125,-0.07350421214997768,0.0023688845558092,0.006142585275089368
1761317049023190500,8.2981904296875,-0.07919044109284877,0.005371829231455922,0.015040588471852242
1761317049033173500,8.308173583984376,-0.0751502257913351,-0.000645202568359673,0.016062351001333443
1761317049043156700,8.31815673828125,-0.07485095058381556,-0.014111792322294786,0.009100672462279908
1761317049053139500,8.328139404296875,-0.0744008687287569,-0.001067382636340335,0.009963038612389936
1761317049063122400,8.338122314453125,-0.07484744345247744,0.001773101486591622,0.007719488336145878
1761317049073104600,8.348104736328125,-0.08083294760286808,-0.0012160338594112544,-0.011042477012705058
1761317049083087400,8.35808740234375,-0.07978723794221877,0.006661914707766846,-0.00912110332895536
1761317049093070600,8.368070556640625,-0.07888765875399112,0.0019081443094182758,-0.0004730334723833948
1761317049103053600,8.378053466796874,-0.08038228122591971,0.006602713600127026,-0.0008345191619591787
1761317049113036500,8.38803662109375,-0.08038345026969909,0.0023434304541442544,0.0014965176014928147
1761317049123019500,8.39801953125,-0.07409691734611988,0.004630052687134593,0.005427112215803936
1761317049133001500,8.40800146484375,-0.07708966942131519,0.0037771987174637614,0.012867126023443415
1761317049142984700,8.417984619140626,-0.0721522130191326,0.005297430554684251,0.013668231539567931
1761317049152967400,8.427967529296875,-0.08981237287223338,-0.0009404043889604508,0.01389132253860589
1761317049162950400,8.437950439453125,-0.084274027967453,0.0021148549958132207,0.010229982452886179
1761317049172933600,8.44793359375,-0.07409925543367862,0.004917281263833865,0.002315661097806878
1761317049182916400,8.457916259765625,-0.07110650335848331,-0.00004022241253405809,0.006927146081789396
1761317049192898600,8.467898681640625,-0.07409808638989925,-0.00031912155230529607,0.00128805334942881
1761317049202881500,8.477881591796875,-0.08112988472282887,-0.007625636040233075,-0.006206896382686682
1761317049212864500,8.487864501953124,-0.07858487641513347,-0.0015616963587701319,-0.0005335223548114299
1761317049222847500,8.497847412109374,-0.0676607468187809,-0.0060867908340878785,0.005200728714559227
1761317049232830500,8.50783056640625,-0.06795943750441073,0.003236132377013564,0.01043678903740365
1761317049242813700,8.517813720703124,-0.0728980629503727,0.003101856739167124,0.008569049803609959
1761317049252795400,8.52779541015625,-0.07723930702507495,0.0008242945954669267,0.0038839972599176687
1761317049262778600,8.537778564453125,-0.07320201433300971,-0.0003498637504409998,0.0038079043829813597
1761317049272761600,8.54776171875,-0.07978782246410847,0.009360889734467491,0.0014731869582552462
1761317049282744300,8.557744384765625,-0.0738040718793869,0.004912760352343321,-0.0046603930264711374
1761317049292727600,8.5677275390625,-0.07634966470897198,0.00026564693255349994,-0.0016511510407784952
1761317049302709500,8.57770947265625,-0.08173603392243385,-0.00009553279634565114,-0.004264927435480058
1761317049312692500,8.5876923828125,-0.0745534289419651,0.001816374372737482,0.0032687605715589598
1761317049322675500,8.597675537109374,-0.06871697787344455,-0.00570942715536803,0.0059086623547831545
1761317049332658400,8.607658447265624,-0.07350538119375705,-0.003460661847889423,-0.00007637600472662598
1761317049342641700,8.6176416015625,-0.07934124774038791,-0.0013547299440484493,0.007038995258696377
1761317049352624400,8.627624267578126,-0.0711111795336008,-0.006915277547482401,0.005924837171449326
1761317049362607400,8.637607421875,-0.08412848201692104,-0.0035473537506535645,-0.0019591073116753247
1761317049372589600,8.647589599609375,-0.08203121747672558,0.0020041063640266654,0.010385456142388283
1761317049382572300,8.657572265625,-0.07664426374137401,-0.0027510979395825416,0.002328150686621666
1761317049392555500,8.667555419921875,-0.08338380112946032,0.006773147396743297,0.002640422373032197
1761317049402538500,8.67753857421875,-0.09192717306911945,0.014336677986197173,-0.011374307349533774
1761317049412521700,8.687521728515625,-0.07412965057194232,0.017816583390673622,-0.00779248050712049
1761317049422503400,8.69750341796875,-0.07129121227562427,0.004024250547401607,0.0035920742417918515
1761317049432486700,8.707486572265625,-0.06769698717594147,0.0018141915488056838,0.004607306565786712
1761317049442470000,8.717469970703124,-0.06679214729070664,-0.010400507581047713,0.0008096632819157094
1761317049452452600,8.72745263671875,-0.08459317691922187,-0.01445911705577746,0.009400418027257546
1761317049462435800,8.737435791015624,-0.08054653187692165,-0.012749673656234518,0.007938378084101715
1761317049472418800,8.747418701171876,-0.07994388980865479,-0.011136758566880598,0.0075197279803454874
1761317049482400800,8.75740087890625,-0.08024199597239494,-0.004211005291156471,0.005834035349148325
1761317049492383700,8.7673837890625,-0.07859715137481689,0.004983423568913713,-0.0012179792213253676
