time,seconds_elapsed,z,y,x
1761316153748832300,0.071832275390625,-0.2808990083515644,-0.554022414265573,-0.58463265658468
1761316153758814200,0.081814208984375,-0.3996171577125788,-0.6852905408591031,-0.7136395602479577
1761316153768796200,0.091796142578125,-0.5408773937493563,-0.7730163167156279,-0.8691207754693925
1761316153778779100,0.101779052734375,-0.6177250711083412,-0.766008337649703,-1.0222696022205053
1761316153788761000,0.111760986328125,-0.764238405367732,-0.628849253321439,-1.0097131952472032
1761316153798743300,0.121743408203125,-0.8570078744798898,-0.3361019862659275,-0.7899934627406299
1761316153808725000,0.13172509765625,-0.7032301021754741,0.4070798948086798,-0.46819399646297094
1761316153818707200,0.141707275390625,-0.597814501979947,0.893894566719979,0.14090703868493437
1761316153828690200,0.151690185546875,-0.730127461451292,0.4358231742121279,0.653325157603994
1761316153838672100,0.161672119140625,-0.7631640541344881,0.17259499323815106,0.5026017313688993
1761316153848654000,0.171654052734375,-0.6981120285093784,0.35275194616317745,0.18138401050195097
1761316153858636000,0.181635986328125,-0.3827893570303917,0.5228897555075586,-0.07843896513842046
1761316153868618200,0.1916181640625,0.02789163101017475,0.41692222051769495,0.11769099827036261
1761316153878601000,0.20160107421875,0.7510480844050645,0.5890234388895332,-0.26392697689309713
1761316153888583200,0.211583251953125,1.2738596601098775,0.8936449758730828,-0.474986469614692
1761316153898565000,0.221565185546875,1.7106845587104558,1.0002639605090022,-0.5393211772833019
1761316153908547000,0.231547119140625,1.9343238027483223,0.9669732469342649,-0.7388526196986437
1761316153918529000,0.241529052734375,1.8094804485052822,0.8182480818443,-0.742887866564095
1761316153928512000,0.251511962890625,1.8937983156144618,0.6929555225290358,-0.3452790529992431
1761316153938494200,0.261494140625,1.977542182227969,0.6531053043082357,-0.17476267439974472
1761316153948476200,0.27147607421875,1.3316881642222405,0.6898296455934644,-0.22200327686648816
1761316153958458000,0.2814580078125,0.49932256356775756,0.7893878980629145,-0.478910693853721
1761316153968440000,0.291440185546875,-0.38556934313774105,0.8487165776051581,-0.7967633952669799
1761316153978423000,0.301423095703125,-1.1539847419291733,0.8062523774936795,-0.9414339512038975
1761316153988405200,0.3114052734375,-1.6054741256982088,0.4055871720328927,-0.8114150940191001
1761316153998387200,0.32138720703125,-1.7362439473807811,-0.24343057070076465,-0.41854160188045353
1761316154008369200,0.331369140625,-1.4066314692646265,-0.9627154433593154,0.20811828817054628
1761316154018351000,0.34135107421875,-0.996519221022725,-1.3231915540337562,0.8451325816385448
1761316154028334000,0.351333984375,-0.8258990349888801,-1.0985726513087748,1.4113470996096729
1761316154038316300,0.36131640625,-0.6462889022916555,-0.5118813086286187,1.8001736909776924
1761316154048298200,0.37129833984375,-0.190538353946805,0.025996464913338423,1.8965943760737776
1761316154058280200,0.3812802734375,0.3324421485841274,0.3083184918053448,1.8378209923267363
1761316154068263200,0.39126318359375,0.7785983546316623,0.011990735914558171,1.9616078232541678
1761316154078245000,0.4012451171875,0.9088239864349364,-0.2570046302840113,2.092672828491032
1761316154088227000,0.41122705078125,0.7155155832529068,-0.2802436131827533,2.1212202930614352
1761316154098209000,0.421208984375,0.4546931482464075,-0.19678543164283036,2.054973066302389
1761316154108191200,0.431191162109375,0.09046879095435142,0.17337898322269318,1.763485151658207
1761316154118174000,0.441174072265625,-0.3052718175858259,0.5605111917629838,1.3943364897064863
1761316154128156200,0.45115625,-0.5810995140224695,0.5936947186361998,1.2857964738801122
1761316154138138000,0.46113818359375,-0.760444858303666,0.13062931723333895,1.2113936323899774
1761316154148120000,0.4711201171875,-0.6648515639424324,-0.5132346959989518,0.7436917302928865
1761316154158102000,0.48110205078125,-0.3201069831460714,-0.9187184807226061,0.2326638966884464
1761316154168085000,0.4910849609375,0.07800678426623343,-1.063907580640912,0.05159801222495734
1761316154178067200,0.501067138671875,0.39890170291960236,-1.1352550531484187,0.0034052053336054086
1761316154188049200,0.511049072265625,0.7911088766366243,-1.2685467945240436,0.03288103679530322
1761316154198031000,0.521031005859375,1.2813549843013285,-1.2877630977779626,0.07822510319203138
1761316154208013000,0.531012939453125,1.7134131068915128,-1.2343247914485633,0.1565127502262592
1761316154217996000,0.54099609375,1.9373568868339062,-1.3133069966182112,0.11041158185191452
1761316154227978200,0.550978271484375,2.0755641650408507,-1.3542635686457156,0.10471885010302066
1761316154237960200,0.560960205078125,2.2394529969930645,-1.3570860787205397,0.2887186691265553
1761316154247942100,0.570942138671875,2.3740771560162304,-1.4517419461011887,0.4576217855768278
1761316154257924000,0.580924072265625,2.5977538094550368,-1.5933382822245359,0.5599591473707929
1761316154267907000,0.590906982421875,2.938938651943207,-1.6307945910461246,0.6924369785476475
1761316154277889300,0.60088916015625,3.1179864745825525,-1.6219323624156414,0.7554612246721982
1761316154287871200,0.610871337890625,2.986818593493104,-1.4073049846120178,0.9267984729342162
1761316154297853200,0.620853271484375,2.70325182723701,-1.0492378347754479,0.9664956925503909
1761316154307835100,0.630835205078125,2.6772990553349256,-0.6330815571289509,1.0034794884894043
1761316154317818000,0.640818115234375,2.9066520008444785,-0.4972993871770799,1.5582079321324824
1761316154327800000,0.650800048828125,2.9238842906743288,-0.40141021514181047,1.8560818945519626
1761316154337782300,0.6607822265625,2.4078414784520863,-0.5309835205161944,1.3576343602530658
1761316154347764200,0.67076416015625,1.7181413044571876,-0.7777179185353219,1.233177228848636
1761316154357747200,0.680747314453125,1.1442863547354936,-0.4095609710346907,0.6640659665226936
1761316154367729200,0.690729248046875,0.5689689312458038,-0.4162994855094701,0.07793956424891949
1761316154377711000,0.700711181640625,0.054283378851413724,-0.6127289433214813,-0.25060747659280896
1761316154387693000,0.710693115234375,-0.43991058965623375,-0.5119506475377827,-0.43350404708217827
1761316154397675000,0.720675048828125,-1.1381062047958372,-0.23553696790672837,-0.48925300497412677
1761316154407658000,0.730657958984375,-2.476962945473194,0.29171989676915105,-0.5088349266700446
1761316154417640200,0.74064013671875,-4.547538216185569,0.8822096818841993,-0.9717070705231279
1761316154427622100,0.7506220703125,-6.759505824881792,1.3611235175430774,-1.6500843979276716
1761316154437604000,0.76060400390625,-8.797285910451413,1.808197715218365,-1.9162816578403115
1761316154447586000,0.7705859375,-10.561990228641033,2.283932336319238,-1.4707713484808802
1761316154457569000,0.780569091796875,-12.089960843420029,2.871258323641121,-0.9077197515200823
1761316154467551200,0.79055126953125,-13.087093227905035,3.2208018291518092,-1.1200668363668025
1761316154477533200,0.800533203125,-13.541667718207835,2.955133123157918,-1.9214282269485294
1761316154487515100,0.81051513671875,-13.991550835824011,2.4382126513183113,-2.739234702505171
1761316154497497000,0.8204970703125,-14.149888463389873,1.8132832017891107,-3.250140151838958
1761316154507480000,0.83047998046875,-13.866481856131553,1.813802403357625,-3.1333751823723315
1761316154517462300,0.840462158203125,-13.021536759889125,2.3504347068831324,-2.80713247295022
1761316154527444200,0.8504443359375,-11.63287992325425,2.4727599408254024,-2.648778186510503
1761316154537426200,0.86042626953125,-9.911913039982318,2.0848175849460064,-2.5392946062237023
1761316154547408100,0.870408203125,-7.900486708331107,1.4694960678480564,-2.4391116459846494
1761316154557391000,0.88039111328125,-5.867768582326174,0.9019787967152894,-2.3573401023574174
1761316154567373000,0.890373046875,-3.967078169110417,0.3211699362024665,-2.2350189600683747
1761316154577355800,0.900355712890625,-2.264726554459333,-0.3629709962300956,-1.988838944528997
1761316154587338000,0.910337890625,-0.7289256844460964,-0.983828812406212,-1.6744555997267365
1761316154597320000,0.92031982421875,0.6223229202926158,-1.2712000855118035,-1.4647503346256912
1761316154607303000,0.930302978515625,1.5798194599598645,-1.2341698931477962,-1.2118990246288477
1761316154617285000,0.94028515625,2.1576994274139403,-1.1386004180535674,-0.9721545950949192
1761316154627266800,0.950266845703125,2.4852555575221777,-0.9249872587937861,-0.7516432738192379
1761316154637249000,0.9602490234375,2.552471483182907,-0.5993142390184104,-0.44654136944022027
1761316154647231000,0.97023095703125,2.625511000430584,-0.2950375699497759,-0.5420192207282408
1761316154657214000,0.9802138671875,3.052515346762538,0.020387100598961115,-0.9047156743332743
1761316154667196000,0.99019580078125,3.747267543449998,0.1661360628897324,-1.0659529688633977
1761316154677177900,1.000177734375,4.457647517380118,-0.016415968478284776,-1.0174420359335838
1761316154687160000,1.01016015625,5.233492189389467,-0.3665206150030717,-0.8312468988228588
1761316154697141800,1.020141845703125,6.203330324235558,-0.5847773257523775,-0.6161670280113816
1761316154707125000,1.030125,7.305498369687795,-0.5985949848331511,-0.35576084565557536
1761316154717107000,1.04010693359375,8.476105745115875,-0.4348766871422529,-0.00508672867976129
1761316154727089000,1.0500888671875,9.572155599948763,-0.16764993805140255,0.3474114253854379
1761316154737070800,1.06007080078125,10.501852278542518,0.09063669486716389,0.7831419894106686
1761316154747053800,1.0700537109375,11.174261710518598,0.3198369340330362,1.0542619465477765
1761316154757036000,1.0800361328125,11.576883895266056,0.5541171068117022,1.1460815675891936
1761316154767017700,1.090017822265625,11.694958486026525,0.6609345366291701,1.1748229472965002
1761316154777000000,1.1,11.655571063011884,0.5605585380360484,1.1135201912023127
1761316154786982000,1.10998193359375,11.39647238305807,0.5944836039915681,1.023489061012864
1761316154796964900,1.11996484375,11.02364094094038,0.7783532938294112,1.0182233225043862
1761316154806947000,1.129947021484375,10.617439144140482,0.8942444030709564,1.0925046565067023
1761316154816928800,1.1399287109375,10.168910948264598,1.0929973353944717,1.2058234310422091
1761316154826911000,1.149910888671875,9.758691732516883,1.3280907242521642,1.2614682344399393
1761316154836893000,1.159892822265625,9.582198855057358,1.4171503790609539,1.1500367349557579
1761316154846876000,1.1698759765625,9.465041963663698,1.444048907380551,0.9730831081166863
1761316154856858000,1.179858154296875,9.28655528203845,1.525177769190073,0.803893101016432
1761316154866839800,1.18983984375,9.052994363445043,1.6124693914130328,0.7205217209771275
1761316154876822000,1.199822021484375,8.661631239336728,1.5927473305940627,0.6367204981531948
1761316154886804000,1.209803955078125,8.046929899963736,1.5159570825107396,0.6452492570456116
1761316154896787000,1.219786865234375,7.183188917836547,1.5096329940557478,0.7052091471634805
1761316154906769000,1.229768798828125,6.04075432844758,1.631934262600541,0.6767129013236611
1761316154916750800,1.239750732421875,4.695256250059605,1.8067596452392636,0.405632326348871
1761316154926732800,1.24973291015625,3.3744624048173426,1.8894043184392153,-0.061470203349273646
1761316154936715000,1.259715087890625,1.735800295266509,1.3862752021953462,-0.08820576879265718
1761316154946698000,1.269697998046875,-1.3313491415262222,0.1789051992982626,0.5795541842766105
1761316154956680000,1.279679931640625,-4.747938038933277,-1.067412520021945,1.9783387394331395
1761316154966662000,1.289661865234375,-7.382766318285465,-2.569575178197026,3.681742055094242
1761316154976643800,1.299643798828125,-9.39573169607222,-3.838090262408554,4.0775218266010285
1761316154986625800,1.309625732421875,-11.35589136634469,-4.192154167953134,2.722953722050786
1761316154996609000,1.319609130859375,-15.163510210382938,-3.844619956438243,1.0991953132517636
1761316155006590700,1.3295908203125,-21.543480127072332,-1.7516063516855238,-0.3421270917743444
1761316155016573000,1.339572998046875,-29.852692597723006,1.5569249065846205,-2.2873951901242138
1761316155026555000,1.349554931640625,-37.68563429456949,4.009352837999165,-4.085075602981448
1761316155036536800,1.359536865234375,-40.298108118772504,5.265735001346469,-4.130044333259761
1761316155046520000,1.36952001953125,-36.069541159701345,5.288349568736553,-2.855482370099425
1761316155056501800,1.379501708984375,-26.981055796158312,3.9109289963871237,-1.8008790627680717
1761316155066484000,1.38948388671875,-16.7835243180871,1.8554726766124368,-1.6901377375051378
1761316155076466000,1.3994658203125,-8.362040389996766,-0.4965794023394584,-2.4466926026329396
1761316155086447900,1.40944775390625,-2.9484359636068342,-2.5784143182128667,-3.5542782892197367
1761316155096430800,1.419430908203125,-0.009620645782351493,-3.7697733897686003,-4.276781539402902
1761316155106412800,1.429412841796875,1.2063836222082376,-3.8878503186166284,-4.034894398751855
1761316155116395000,1.43939501953125,1.3626643172442912,-3.217093914544582,-2.9666680781289934
1761316155126377000,1.449376953125,1.3221528586357831,-2.537146488279104,-1.915257429359108
1761316155136359000,1.45935888671875,1.6407476836532353,-1.9274866502046584,-1.4708591728948055
1761316155146342000,1.469341796875,2.2680267650485035,-1.4120793594069778,-1.4249004086658357
1761316155156323800,1.47932373046875,2.9416689536899328,-1.0874755032330752,-1.3444088218465446
1761316155166305800,1.489305908203125,3.6098721661478277,-0.6837194921500981,-1.2125629684302954
1761316155176288000,1.4992880859375,4.374688079142571,-0.3031939883984625,-1.3038983861513436
1761316155186270000,1.50927001953125,5.329449640887975,-0.04607932186871767,-1.6271286158844827
1761316155196253000,1.5192529296875,6.446334193956852,0.25071181375011803,-1.9219918521806596
1761316155206235000,1.52923486328125,7.759886982029676,0.7047571656122803,-1.9837885292716324
1761316155216216800,1.539216796875,9.097040425920486,1.1749249463662506,-1.6883381407372653
1761316155226198800,1.54919873046875,10.25486606118679,1.2663508919149637,-1.0413022194705903
1761316155236180700,1.5591806640625,11.129476812374591,1.4467907534345983,-0.11832430947152897
1761316155246164000,1.5691640625,11.71081890298128,1.8145441616356373,0.9751184864018112
1761316155256146000,1.57914599609375,12.054779639923572,2.3032924319580195,1.785235941825807
1761316155266128000,1.5891279296875,12.413234181642531,2.6476529818728562,2.236817826183885
1761316155276109800,1.59910986328125,12.78359192712307,2.553933372429013,2.311525422774255
1761316155286091800,1.609091796875,13.03713881816864,2.2517793946027753,1.9195017889305948
1761316155296074800,1.61907470703125,13.153448152822255,1.966309425073862,1.3415654151141643
1761316155306057000,1.629056884765625,13.11487321523428,1.825096827571094,0.818164568279311
1761316155316039000,1.639038818359375,12.950702059209346,1.8249483590111135,0.5562602563202381
1761316155326020900,1.649020751953125,12.61458560602665,1.8149515733927488,0.4448707693468779
1761316155336002800,1.6590029296875,12.076410456973314,1.8511957299455999,0.4716865512864664
1761316155345985800,1.66898583984375,11.477597007083892,1.8451807074397801,0.6211387520093471
1761316155355968000,1.678968017578125,10.831851125627756,1.8848323343485593,0.8731240928266197
1761316155365950000,1.688949951171875,10.123993948173522,2.024060772296786,1.1360371434368193
1761316155375932000,1.698931884765625,9.444457440796494,2.1705466340273616,1.307659199989587
1761316155385913900,1.708913818359375,8.91291836875677,2.2811086572006345,1.2526669422164558
1761316155395896800,1.718896728515625,8.588779938137531,2.3590002906545995,1.0883433721087872
1761316155405878800,1.728878662109375,8.334104335322976,2.249895188291371,0.9897656551092863
1761316155415861000,1.738861083984375,7.908281892251968,2.045609756281972,0.9864815188720821
1761316155425843000,1.748843017578125,7.265776600152254,1.9843799192935228,1.0008291201110928
1761316155435825000,1.758824951171875,6.0113809344470495,1.949832045264542,1.0936518537804483
1761316155445807900,1.768807861328125,3.7236575352817773,1.5018702510997652,1.3711778785675763
1761316155455789800,1.778789794921875,-0.05208966819941997,0.7311041975289583,2.1905393284812567
1761316155465772000,1.78877197265625,-4.614318088516593,-0.2907803508967161,3.733622464457154
1761316155475753700,1.798753662109375,-8.719085064917802,-2.042951935249567,5.607098707532883
1761316155485736000,1.80873583984375,-11.653317146605252,-3.6696854143366218,6.455170995885133
1761316155495719000,1.818718994140625,-14.045616772532462,-3.874365398621559,5.4366217293620105
1761316155505700900,1.828700927734375,-17.949089023172853,-3.7034307398110626,2.8807734632223845
1761316155515682800,1.838682861328125,-25.738158845067023,-2.0238322242379185,-0.8216041873391717
1761316155525664800,1.848664794921875,-35.40408636916876,2.0010984143823385,-4.132123477621376
1761316155535647000,1.85864697265625,-42.198356048917766,4.693609651896358,-5.106325360634923
1761316155545630000,1.8686298828125,-42.19018677098751,5.140412339153886,-3.576068680745363
1761316155555612000,1.87861181640625,-34.97507302110195,4.730466679650545,-1.2109018302850425
1761316155565593900,1.88859375,-24.844261209607122,3.493747540411353,0.051911462088301774
1761316155575575800,1.898575927734375,-15.500636717391012,1.5574800562493503,0.31146475394181905
1761316155585557800,1.908557861328125,-8.713648426821827,-0.5152886328540742,-0.32671427245661616
1761316155595540700,1.918540771484375,-4.661628705745935,-1.9729919715777038,-1.219014921048656
1761316155605522700,1.928522705078125,-2.586287828066945,-2.4506340337350965,-1.7651999927520752
1761316155615504600,1.938504638671875,-1.5143728820592164,-2.2549781906440853,-1.9127958615511655
1761316155625486600,1.948486572265625,-0.5237567476004362,-1.9217213646762072,-1.8697250738486646
1761316155635468800,1.95846875,0.6611153000235557,-1.697534277497232,-1.9193501055002211
1761316155645451500,1.968451416015625,2.089903071516752,-1.55088752611652,-2.1980746924221513
1761316155655433700,1.978433837890625,3.466171551221609,-1.4047886178769171,-2.521521049124002
1761316155665415700,1.988415771484375,4.510234613707661,-1.1778306046798825,-2.624466167552769
1761316155675397600,1.998397705078125,5.367820580336451,-1.1687639395184815,-2.5716908551767466
1761316155685379800,2.0083798828125,6.199759480011463,-1.3756709522031247,-2.620554547066986
1761316155695362600,2.018362548828125,7.022858070626855,-1.3889488053187726,-2.681037657341361
1761316155705344800,2.0283447265625,8.043562469357251,-1.2887756358213722,-2.8058278200924396
1761316155715326500,2.038326416015625,9.306907749715448,-1.2609082624696195,-2.962914278553426
1761316155725308700,2.04830859375,10.461955152440071,-1.071928974533081,-2.8775018942058086
1761316155735290600,2.05829052734375,11.473248164224623,-0.8714926191672683,-2.5737761370182035
1761316155745273600,2.068273681640625,12.168008544218539,-0.7183151508435607,-2.27859930472821
1761316155755255800,2.078255859375,12.286650121212006,0.32447964527234435,-1.2080287590667604
1761316155765237500,2.088237548828125,12.579133184373378,0.9622203533187508,0.112696350054536
1761316155775219700,2.0982197265625,12.805919494265318,0.8719862479031085,0.8308962587542832
1761316155785201700,2.10820166015625,12.998890043795107,0.7465764919489621,1.3119998595423996
1761316155795184600,2.1181845703125,13.337889358937739,0.8805449635423719,1.5313140799880027
1761316155805166800,2.128166748046875,13.62155549391508,0.9577360475115477,1.4363902093209326
1761316155815148500,2.1381484375,13.674779719102382,0.8200817270122468,1.1858588667042553
1761316155825130800,2.148130859375,13.54829853452444,0.624433921097219,0.9333135539166629
1761316155835112400,2.158112548828125,13.387504745978116,0.5381691577039659,0.6500671056561171
1761316155845095700,2.168095703125,13.132746725577116,0.3601005553603172,0.4515622663421556
1761316155855077600,2.17807763671875,12.667421708679198,0.1751990382567048,0.3529734799593687
1761316155865059600,2.1880595703125,12.0948988843441,0.10370996532142161,0.3026720651498995
1761316155875041800,2.198041748046875,11.425523120975493,0.1325172498717904,0.3873525367600843
1761316155885023500,2.2080234375,10.774455752235651,0.22966741828620432,0.617857392251119
1761316155895006700,2.2180068359375,10.159867225587368,0.23774974858537315,0.7747961128044873
1761316155904988400,2.227988525390625,9.309054114094376,0.2529557932846248,0.865958512046188
1761316155914970600,2.237970703125,8.047778625747561,0.33448519871905447,1.144028288321197
1761316155924952800,2.247952880859375,6.6989896891206495,0.4165210923708975,1.2791123199410737
1761316155934934500,2.2579345703125,5.184990901070833,0.27445626195296646,1.2277397139698267
1761316155944917800,2.267917724609375,3.4407635537207124,-0.02357720187716186,1.399192843696475
1761316155954899500,2.2778994140625,1.3117629820466041,-0.5531122406180947,1.914179863255471
1761316155964881700,2.287881591796875,-1.9175608839958904,-1.198720028777793,2.510581137436628
1761316155974863600,2.297863525390625,-7.399618084365129,-2.09418732470721,2.429461627977341
1761316155984845600,2.307845458984375,-12.93706165639162,-2.999813684144616,2.2176552989438174
1761316155994828800,2.317828857421875,-16.70950046597719,-3.04158244933784,2.8969430922567843
1761316156004810500,2.327810546875,-19.50001965777874,-1.6073250142619013,4.0767470428362484
1761316156014792700,2.337792724609375,-23.313372661554812,0.5403898294281214,4.629907287314534
1761316156024774700,2.347774658203125,-29.281857872605322,3.4325665110006924,3.583323474179208
1761316156034756600,2.357756591796875,-35.723532258057595,6.075342826747894,1.2866072057411073
1761316156044739800,2.36773974609375,-39.439085397338864,7.079237544974684,-0.9601270343013107
1761316156054721500,2.377721435546875,-37.6919588214159,7.173280687284469,-2.139910234353691
1761316156064703700,2.387703857421875,-31.026604275393485,6.609643764716386,-2.2995304490759967
1761316156074685700,2.397685791015625,-22.678581889355183,5.152817062696815,-2.3453856068000194
1761316156084667600,2.407667724609375,-14.604535434406994,3.187222507894039,-2.781639135253429
1761316156094650600,2.417650634765625,-8.10566908918023,1.2387180579714476,-3.2841572799921033
1761316156104632600,2.427632568359375,-3.7093583762943743,-0.24087474873811004,-3.5753052951574325
1761316156114614800,2.43761474609375,-1.0610726494759322,-1.2757101102821529,-3.5384298549637196
1761316156124596500,2.447596435546875,0.4239835372060537,-1.7185704896546898,-3.03349705029875
1761316156134578700,2.45757861328125,1.206834288585186,-1.726537815272063,-2.20352360547781
1761316156144561400,2.4675615234375,1.7569138104438782,-1.5790291863650083,-1.385565008099377
1761316156154543600,2.477543701171875,2.2389847949594257,-1.306234135622531,-0.896970393968746
1761316156164525800,2.48752587890625,2.566601130822301,-0.9881718100465834,-0.774738829659298
1761316156174507500,2.497507568359375,2.752567939069867,-0.5567563692741095,-0.7738256603371352
1761316156184489700,2.50748974609375,2.8419828370571136,-0.25460063788220283,-0.7612582935784011
1761316156194472400,2.517472412109375,2.934225651946664,-0.006754150435328483,-0.788723004413396
1761316156204454700,2.52745458984375,3.2748557831615206,0.12792422299310563,-0.9354882676072418
1761316156214436600,2.5374365234375,4.003076534208655,0.21155023538060486,-1.25377811832875
1761316156224418600,2.54741845703125,5.217590271380543,0.3164445881810039,-1.4438603990711272
1761316156234400800,2.55740087890625,6.850085090473294,0.33694391698278486,-1.3194149581044912
1761316156244382700,2.5673828125,8.518493518990278,0.27728037946298717,-1.0836413318976759
1761316156254365700,2.57736572265625,10.038661935585736,0.3094133013047278,-0.79533416618146
1761316156264347600,2.58734765625,11.35480766276121,0.5321833612926304,-0.404692780476436
1761316156274329600,2.59732958984375,12.409126161801815,0.7829030660882592,0.11077219532523304
1761316156284311600,2.6073115234375,13.131331013560294,0.9385137529082596,0.49879784557390955
1761316156294293800,2.617293701171875,13.550664679133892,1.1310049944885074,0.5401520020842552
1761316156304276700,2.62727685546875,13.78347507162094,1.268590925926715,0.2807225192734972
1761316156314258700,2.6372587890625,13.79287535265088,1.3822928545609117,0.06735023783119395
1761316156324240600,2.64724072265625,13.63806122303605,1.5142917796470223,0.06060249887034297
1761316156334222600,2.65722265625,13.475889131873846,1.6023087935350835,0.24947361372467128
1761316156344204500,2.66720458984375,13.227816872847079,1.5664416536010801,0.6127515935447067
1761316156354187800,2.677187744140625,12.817096721839905,1.56441350877434,1.0655559323698283
1761316156364169500,2.68716943359375,12.239034968078135,1.7696264308921992,1.4543682029515503
1761316156374151700,2.697151611328125,11.421319239544868,2.006249951926619,1.5267873963437975
1761316156384133600,2.707133544921875,10.422352625370024,2.222447501656413,1.2922941653363407
1761316156394115600,2.717115478515625,9.445586152565479,2.4044281628772617,1.1023236744053662
1761316156404098800,2.727098876953125,8.723856517103314,2.3479034348398446,0.9939503934480249
1761316156414080500,2.73708056640625,8.43340992820561,2.4070395144194365,1.2049288933552802
1761316156424062700,2.747062744140625,8.669693549761176,2.3601237417265772,1.7821956973470747
1761316156434044700,2.757044677734375,8.929283228102326,2.18224291703999,2.6393074705928563
1761316156444026600,2.767026611328125,8.626310919630527,1.9144523965865372,3.802184544029832
1761316156454009600,2.777009521484375,7.4963815915495156,1.315142395351827,4.70865524533689
1761316156463991600,2.786991455078125,5.995560849502683,0.25122253975123165,5.083977335226535
1761316156473973800,2.796973876953125,4.0623908929646015,-1.0005489149302245,4.867910864530503
1761316156483955700,2.806955810546875,1.7127835768163202,-2.9725846086964007,4.3964390154406425
1761316156493937700,2.816937744140625,-0.8389110767751932,-4.888001174139976,3.8496120656371113
1761316156503920600,2.826920654296875,-4.052699520033598,-5.451824559190869,2.796507034039497
1761316156513902600,2.836902587890625,-9.895321970665455,-4.971286775591969,0.9260538651119917
1761316156523884500,2.846884521484375,-17.951994096964597,-4.199928309085965,-1.675676081432402
1761316156533866800,2.85686669921875,-26.79491363134384,-2.391900543607026,-4.889295597864687
1761316156543848700,2.8668486328125,-34.70254553525448,0.052257425981760024,-7.660304325771332
1761316156553831700,2.876831787109375,-40.09438587360382,2.186305636434257,-8.833463723769784
1761316156563813600,2.886813720703125,-40.842578568577764,3.545305001430213,-8.76222804107368
1761316156573795600,2.896795654296875,-36.202063962531085,3.5646766413763165,-7.831758624541759
1761316156583777500,2.906777587890625,-28.183943392944336,2.5600106465160843,-6.501181051909923
1761316156593759200,2.91675927734375,-19.529106636053324,1.4069891966611145,-5.519893302288651
1761316156603741400,2.926741455078125,-12.110449504697321,0.1783031417518854,-4.927018010276556
1761316156613724400,2.936724365234375,-6.489214719784259,-1.297020463205874,-4.179119037552177
1761316156623706400,2.946706298828125,-2.559043847310543,-2.5000173655852675,-3.36262408298552
1761316156633688600,2.9566884765625,-0.16834698040485382,-3.2770255284160372,-2.9124200628519055
1761316156643670300,2.966670166015625,0.9094026631057262,-3.629865152862668,-2.864738566483557
1761316156653652500,2.976652587890625,1.4165584045171737,-3.553259467566013,-3.033786973156035
1761316156663635200,2.98663525390625,1.812286153575778,-3.1263065591603514,-3.079930300171673
1761316156673617400,2.996617431640625,2.0975304976552724,-2.6700685195595026,-3.0878219302043317
1761316156683599400,3.006599365234375,2.31706522898376,-2.3437292178951203,-3.2102149686858055
1761316156693581300,3.016581298828125,2.665048061048984,-2.0825861726321278,-3.4181808427736162
1761316156703563500,3.0265634765625,2.9981004504859445,-1.8364105410069227,-3.5743127769887444
1761316156713546200,3.036546142578125,3.253618349343538,-1.5761623987570403,-3.6446252073600887
1761316156723528400,3.046528564453125,3.8982138917207716,-1.199357742159441,-3.4999905264541504
1761316156733510100,3.05651025390625,5.044824890011549,-0.9158842802099884,-3.173807146003842
1761316156743492400,3.066492431640625,6.451891243562102,-0.7488157222431152,-2.7027479693681
1761316156753474300,3.076474365234375,7.876231972518563,-0.5264367804646491,-1.9232422906331716
1761316156763457300,3.086457275390625,9.216125655028224,-0.362686261004582,-1.0748581598527729
1761316156773439500,3.096439453125,10.317826082968711,0.002511106038093567,-0.3475065197903663
1761316156783421200,3.106421142578125,11.142018314039706,0.408906744909659,0.012800608117383672
1761316156793403400,3.1164033203125,11.704435923945903,0.6563511543616652,0.029514629102125763
1761316156803385300,3.12638525390625,12.061001290917396,0.8820445544503629,-0.035735357647342605
1761316156813368300,3.136368408203125,12.338410703587531,1.144438622687757,-0.1262141859385185
1761316156823350500,3.1463505859375,12.617600569933652,1.3850246176123617,-0.12913622913137077
1761316156833332200,3.156332275390625,12.910122211539745,1.4971812165006995,0.02819726289324462
1761316156843314400,3.166314453125,13.164770341825484,1.523492738712579,0.3101053752221167
1761316156853296400,3.17629638671875,13.320731303387879,1.7283521712176502,0.7881710696190595
1761316156863279400,3.186279296875,13.346217626821995,1.887795421937853,1.4757644805930554
1761316156873261600,3.196261474609375,13.144233749753235,1.845940001374483,2.223321654142439
1761316156883243300,3.2062431640625,12.743524120628834,1.8227612242303788,2.891511130335927
1761316156893225500,3.2162255859375,12.044980714964867,1.8576633185245095,3.2843867048338056
1761316156903207400,3.22620751953125,11.166979736816883,1.7520388978838919,3.381052596862614
1761316156913190400,3.2361904296875,10.23981579157114,1.4224517003394663,3.257534646004438
1761316156923172400,3.24617236328125,9.238629163259267,0.9930814285937696,2.7033275228217244
1761316156933154300,3.256154296875,7.926912358441949,0.6093417120359838,2.0288670035347343
1761316156943136500,3.266136474609375,6.3374909574002025,0.3123663789566606,1.416621240620315
1761316156953118200,3.2761181640625,4.670099596971273,0.1417167476326227,0.9768278476029634
1761316156963100400,3.286100341796875,2.9358225657492873,-0.048615854609012604,0.9056479136820882
1761316156973083100,3.296083251953125,1.3805068479269742,-0.3905530498344451,1.2646871964864432
1761316156983065300,3.3060654296875,-0.19614216530323028,-1.1215157930660993,1.9177306876048446
1761316156993047300,3.31604736328125,-2.072387288570404,-2.2887325762078166,2.208909390169382
1761316157003029200,3.326029296875,-4.4751831740707155,-3.517386774674058,2.541614865864813
1761316157013011500,3.336011474609375,-7.54206489983797,-4.633335215936601,3.1931048439308998
1761316157022994200,3.345994140625,-12.20898352868557,-5.656140678599477,3.4916339092582462
1761316157032976400,3.355976318359375,-18.26515988267064,-5.469487057131529,2.3215188473917543
1761316157042958300,3.365958251953125,-25.012594161486625,-3.8296839608520266,-0.22338241973258555
1761316157052940300,3.375940185546875,-32.20371445684433,-1.9529902170345186,-3.7345617911338804
1761316157062922200,3.385922119140625,-37.91088798806667,0.3027163609493524,-6.8028603979617355
1761316157072905200,3.3959052734375,-40.265449711751934,2.350503534335643,-8.82237534352243
1761316157082887400,3.405887451171875,-37.949564632463456,3.4013965889722106,-9.841174200892448
1761316157092869400,3.415869384765625,-30.945996368718145,3.159827428229153,-10.009798244673012
1761316157102851300,3.425851318359375,-21.88043595368862,2.084466287290305,-9.58769745247364
1761316157112833300,3.435833251953125,-13.573856169629096,0.78033248494789,-8.799231783822178
1761316157122816300,3.445816162109375,-7.298376554983854,-0.3914484643042087,-7.53624539990425
1761316157132798500,3.455798583984375,-3.0405326480239627,-1.0942498196735977,-5.717674466970562
1761316157142780400,3.465780517578125,-0.4309621440470218,-1.3566422804757952,-3.5174113245934246
1761316157152762400,3.475762451171875,0.9203665401905774,-1.1800906585663555,-1.4105427974894642
1761316157162744300,3.485744384765625,1.4476590607017277,-0.8084580708444118,0.15579316724743694
1761316157172727300,3.495727294921875,1.6552999406188726,-0.5893909570276736,0.9692237292747944
1761316157182709500,3.50570947265625,1.7344938888430594,-0.45655148946419355,1.0796193098399787
1761316157192691200,3.515691162109375,2.1129367411017417,-0.2195017058417201,1.1128568319227545
1761316157202673400,3.52567333984375,2.722658538496494,0.11825389285013078,1.3072253386169672
1761316157212655400,3.5356552734375,3.2403479488819835,0.5719099531337618,1.4950114712461828
1761316157222637300,3.54563720703125,3.652584349671006,1.1245496808692812,1.474835821440816
1761316157232620300,3.555620361328125,4.036455072197318,1.6876044196352362,1.4609925895273685
1761316157242602200,3.565602294921875,4.1006981195271015,2.0087445452213286,1.464356951393932
1761316157252584400,3.57558447265625,4.117959635451435,2.1590046647936103,1.4469167179018259
1761316157262566400,3.58556640625,4.63757972163856,2.4791119402006268,1.4553773799940943
1761316157272548400,3.59554833984375,5.8782455526769155,2.7891327058792115,1.5389499816939234
1761316157282531300,3.60553125,7.358990305900574,2.8755495910942552,1.6449629632607101
1761316157292513300,3.61551318359375,8.7184561193645,2.9467700762212274,1.8382780884444712
1761316157302495200,3.6254951171875,9.968298359549046,3.0775740924343467,2.1118629743903874
1761316157312477400,3.6354775390625,11.017491770660877,3.2272713174268604,2.3918261631965634
1761316157322459400,3.64545947265625,11.804141329801082,3.401987248341739,2.6907731616750357
1761316157332442400,3.6554423828125,12.303055312567949,3.6269232541918752,3.015265228037536
1761316157342424300,3.66542431640625,12.573355770015716,3.8294419687896966,3.4274037214100357
1761316157352406300,3.67540625,12.650451869177818,3.933466991409659,3.8207062891483305
1761316157362388500,3.685388427734375,12.601737814891338,3.887832198438048,4.011246981182694
1761316157372370200,3.6953701171875,12.406180171477795,3.8199864504411813,4.127334782040119
1761316157382352400,3.705352294921875,12.022750178456306,3.913548531235754,4.250564563606679
1761316157392335400,3.71533544921875,11.506308722305297,4.037512472295761,4.410848941326141
1761316157402317300,3.7253173828125,11.036757612144946,4.032162635700405,4.526542189908027
1761316157412299500,3.735299560546875,10.697444993269443,3.9781867153629658,4.456464445075392
1761316157422281200,3.74528125,10.471735372698307,4.0123613721653815,4.359633133351802
1761316157432263400,3.755263427734375,10.344072284859418,4.067949403874576,4.29459659755677
1761316157442246400,3.765246337890625,10.14829836834669,4.054377390117943,4.223876463167369
1761316157452228400,3.775228271484375,9.861080678367614,3.9949408662870525,4.086951333725453
1761316157462210300,3.785210205078125,9.383869408842921,3.978788772909343,3.946009662118554
1761316157472192300,3.795192138671875,8.567003575137257,3.990910880118608,3.818645849487185
1761316157482174500,3.805174560546875,7.52102795702815,3.961588047261536,3.578027413597703
1761316157492157400,3.815157470703125,6.340260422113538,3.841570798000693,3.11947437505275
1761316157502139400,3.825139404296875,4.671338783377409,3.6111633750021457,2.552174838323891
1761316157512121300,3.835121337890625,2.3001626094996928,3.2394594756096597,1.8273188875347375
1761316157522103300,3.845103271484375,0.35673955449461936,2.6608278130054472,1.1381693331599234
1761316157532085500,3.85508544921875,-1.385783327025175,1.788343260191381,0.7962586606152355
1761316157542067200,3.865067138671875,-3.3775095174282788,0.2836611665412783,0.7749146976828575
1761316157552050400,3.875050537109375,-5.871927455571294,-1.9625696540236472,1.106187510226667
1761316157562032400,3.885032470703125,-8.140902315124869,-4.857632047100365,1.983246385218948
1761316157572014300,3.895014404296875,-9.258812119588255,-7.023692183363437,3.192966604503989
1761316157581996500,3.90499658203125,-11.59287407608032,-7.267262454795837,3.1208971013322473
1761316157591978200,3.914978271484375,-18.39816666962504,-6.708097709205746,0.04570493559837341
1761316157601961500,3.92496142578125,-28.43705539970398,-5.440008449190855,-5.170049352526664
1761316157611943400,3.934943359375,-38.412085113334655,-2.934872133156657,-9.891937588924169
1761316157621925400,3.94492529296875,-44.03121094326973,-0.6158467100158334,-11.785052013927697
1761316157631907600,3.954907470703125,-42.6595484960556,0.9412731346189975,-10.73223339805603
1761316157641889300,3.96488916015625,-34.40784596508741,1.506236921876669,-8.297273611053823
1761316157651872500,3.97487255859375,-23.411322163653374,0.284801276487112,-5.8187014768183225
1761316157661854500,3.9848544921875,-13.828595485329627,-2.0643053966626526,-4.057356405928731
1761316157671836400,3.99483642578125,-6.902727716380357,-4.314450468061864,-3.0810245251491666
1761316157681818400,4.004818359375,-2.98350552342236,-6.007331366795301,-2.631786135177314
1761316157691800300,4.01480029296875,-1.1289134290367364,-6.676136636799574,-2.3171005925580856
1761316157701783300,4.024783203125,-0.2641711609125137,-6.336071738252043,-1.671370639323443
1761316157711765200,4.03476513671875,0.009084639209508895,-5.613669902616739,-0.8461772683858871
1761316157721747500,4.04474755859375,-0.012143442258238792,-4.63274923274219,-0.07500374825904145
1761316157731729400,4.0547294921875,-0.02158171721100807,-3.565915535521507,0.4292451475286856
1761316157741711400,4.06471142578125,-0.039322541084885594,-2.5992747354120014,0.7099932396348565
1761316157751693600,4.074693603515625,-0.08983400018215179,-1.8298096814371645,0.8206691715113819
1761316157761676300,4.08467626953125,0.2600555422872305,-1.0392394417218864,0.8267099129803478
1761316157771658500,4.094658447265625,1.2307932563215493,-0.22176409781575201,0.6663930942960083
1761316157781640200,4.10464013671875,2.613561034917831,0.35509441763609645,0.5180104590333998
1761316157791622400,4.114622314453125,4.096438708516955,0.6421545789659023,0.437930010298267
1761316157801604600,4.1246044921875,5.6533419877916575,1.0125871432483196,0.4267223145201802
1761316157811587300,4.13458740234375,7.241821724069118,1.536740781211853,0.5286509493827819
1761316157821569500,4.144569580078125,8.702900238314271,1.9114564296409486,0.7775247340507805
1761316157831551200,4.15455126953125,9.795257083848119,2.20553728338778,1.132938008377701
1761316157841533400,4.164533447265625,10.630781440794467,2.689816299341619,1.5920878437720238
1761316157851515400,4.174515380859375,11.284281589639185,3.1610596003726124,2.1032497520849107
1761316157861497300,4.184497314453125,11.676735431593656,3.4039988804250956,2.6479417356863615
1761316157871480600,4.19448046875,11.880450662499666,3.5278391951054333,3.0814462576925754
1761316157881462300,4.204462158203125,12.05778525148034,3.687551325894892,3.237766115695238
1761316157891444500,4.214444580078125,12.293788302528858,3.680270521236956,3.21402049844861
1761316157901426400,4.224426513671875,12.394501424121856,3.743216514493525,3.2146371690422293
1761316157911408400,4.234408447265625,12.388653867137432,3.95961265553534,3.3454186811625957
1761316157921391400,4.244391357421875,12.359123821270465,3.9582676706671713,3.420563061735034
1761316157931373300,4.254373291015625,12.240232068908213,4.015464891138673,3.4189708241075274
1761316157941355500,4.26435546875,12.080256611007451,4.291073391866684,3.533524255004525
1761316157951337200,4.274337158203125,11.933396655267476,4.483621039809286,3.8721480148330327
1761316157961319400,4.2843193359375,11.741784534609318,4.554651555322111,4.286414167883992
1761316157971302400,4.294302490234375,11.514928082090616,4.565121219149232,4.667542898225784
1761316157981284400,4.304284423828125,11.22151913625598,4.578518460860848,4.9014749882191415
1761316157991266600,4.3142666015625,10.822146893215178,4.638453874124586,4.979793322652578
1761316158001248300,4.324248291015625,10.29321069715023,4.7339717651620505,5.045712194240093
1761316158011230500,4.33423046875,9.613395372831821,4.881734222699701,5.0006607541143895
1761316158021212400,4.34421240234375,8.87410962241292,4.860199267239868,4.84452092885375
1761316158031195400,4.3541953125,8.21841167126298,4.772963174596429,4.735837851294875
1761316158041177600,4.364177490234375,7.940596600401401,4.862152447134256,4.56320340282917
1761316158051159300,4.3741591796875,8.103047508504986,4.757820258261263,4.171401010520756
1761316158061141500,4.3841416015625,8.233746603038906,4.249517977163196,3.6452336946472523
1761316158071123500,4.39412353515625,7.842731853976845,3.6722704623937603,2.986538315246999
1761316158081106400,4.4041064453125,6.384532110038399,3.0674446203470227,2.107508870834112
1761316158091088400,4.41408837890625,3.7680233312308786,2.189986663034558,0.7831117404028772
1761316158101070300,4.4240703125,0.1491197173655033,1.0671212819904088,-0.7526075888067484
1761316158111052500,4.434052490234375,-3.06909121851027,-0.08342121053040027,-1.6939483818344772
1761316158121034500,4.444034423828125,-5.153453022512793,-1.3079966152504086,-1.2258956935383378
1761316158131016400,4.454016357421875,-7.624998619112372,-3.011077713219821,0.28070158608332274
1761316158140999400,4.46399951171875,-11.794361109542846,-4.482423938979208,1.6970825882069767
1761316158150981400,4.4739814453125,-17.694361397910118,-5.018854582452774,0.7225600949369371
1761316158160963300,4.48396337890625,-24.300959803581236,-4.959579386663437,-2.8463112216502426
1761316158170945300,4.4939453125,-31.577986112022398,-4.371744426906108,-6.9834893523126835
1761316158180927500,4.503927490234375,-39.183427213227745,-3.534031912265718,-10.184022008156775
1761316158190910500,4.513910400390625,-44.76868116869926,-2.5633763235569,-11.56807047421336
1761316158200892400,4.523892333984375,-44.83830474002361,-1.4651837576068938,-10.858541564154624
1761316158210874400,4.533874267578125,-38.20157072380781,-1.2164559572808444,-8.457759356564283
1761316158220856300,4.543856201171875,-28.402014481461045,-2.01906457144469,-5.477868516507744
1761316158230838300,4.55383837890625,-19.218448449254034,-3.072737466058135,-3.340402898827195
1761316158240820500,4.563820556640625,-12.285247268676757,-4.232956718462705,-2.191922891794145
1761316158250803500,4.573803466796875,-8.049768922781944,-5.14849803045392,-1.6283941057756541
1761316158260785400,4.583785400390625,-6.1399395098209375,-5.314202971917391,-1.3050452180989085
1761316158270767400,4.593767333984375,-5.545522249063849,-4.81469979108572,-1.11452293850407
1761316158280749300,4.603749267578125,-5.30499090693593,-4.224031653729081,-0.9830856658887117
1761316158290731500,4.6137314453125,-4.9768221978873015,-3.76423446034193,-0.8109234380446374
1761316158300714500,4.623714599609375,-4.251176850286126,-3.2818782291442155,-0.7107195811480284
1761316158310696400,4.633696533203125,-2.9862089371621607,-2.8594577034711834,-0.8156750895511359
1761316158320678400,4.643678466796875,-1.4459084176421164,-2.3502999745875597,-1.2554390372782944
1761316158330660400,4.653660400390625,0.3312438787102699,-1.7989686991021037,-1.8069480074182152
1761316158340642600,4.663642578125,2.1602917819947005,-1.2144959092542529,-2.005209941354394
1761316158350625500,4.67362548828125,3.793679166013002,-0.39235476549416776,-1.7541069363296031
1761316158360607500,4.683607421875,5.345465540665388,0.5931354042530059,-1.2982748471811414
1761316158370589400,4.69358935546875,6.753624365627766,1.517604119065404,-0.6917428588036447
1761316158380571400,4.7035712890625,7.9554194910019636,2.2078847232967616,0.03422324518449604
1761316158390553600,4.7135537109375,9.018616877546906,2.633263806514442,0.6237620131850242
1761316158400535300,4.723535400390625,10.014473250746727,3.001357698716223,0.879308042158559
1761316158410518500,4.7335185546875,11.039228970694541,3.3580256492793557,0.9487695547889917
1761316158420500200,4.743500244140625,12.070661099666356,3.6774461114659904,1.028683853176981
1761316158430482400,4.753482421875,13.041417518401145,3.868546190948784,0.9602936230398714
1761316158440464400,4.76346435546875,13.811772945344448,4.025906497915089,0.7246202423371374
1761316158450446300,4.7734462890625,14.30524970549345,4.1773526124015445,0.5261653065795079
1761316158460428500,4.783428466796875,14.495655372971296,4.20430053282082,0.4310968032773584
1761316158470411300,4.793411376953125,14.442086279869079,4.184708820383251,0.5635791644988581
1761316158480393500,4.8033935546875,14.27966050620675,4.148560233159363,0.7627501395713537
1761316158490375200,4.813375244140625,13.994468769097328,4.185182575374841,0.9593764351297169
1761316158500357400,4.823357421875,13.700267211580275,4.228616351170838,1.1543587628733365
1761316158510339600,4.833339599609375,13.285076637160778,4.313983142811059,1.3149369359076022
1761316158520322300,4.843322265625,12.72458093522787,4.412052471897006,1.4164346320070325
1761316158530304500,4.853304443359375,12.180940506505966,4.4432086576610805,1.3985123140864073
1761316158540286200,4.8632861328125,11.705004079222679,4.409610339441895,1.2426761479474604
1761316158550268400,4.873268310546875,11.230622480165957,4.31252768330574,0.980657342763245
1761316158560250400,4.88325048828125,10.796140345299243,4.222215836478769,0.6780218650303781
1761316158570232300,4.893232421875,10.480113909465073,4.194421236102283,0.5687888985037803
1761316158580215600,4.903215576171875,10.251455960482359,4.175671527446807,0.7031943002097308
1761316158590197200,4.913197265625,9.990132590216398,4.274600103710592,0.9333872767399995
1761316158600179500,4.923179443359375,9.827411048477888,4.492971928739547,1.0985399180829525
1761316158610161400,4.933161376953125,9.564000350543855,4.676624030303955,1.2094934978570788
1761316158620143400,4.943143310546875,9.030635816642642,4.646195282031595,1.5395163834050296
1761316158630126600,4.953126708984375,8.12329242415428,4.553759574918448,1.9840105014592408
1761316158640108300,4.9631083984375,6.7987599769055835,4.458970874938369,2.1311644717097282
1761316158650090500,4.973090576171875,5.226276851183176,4.120084080259502,1.9767390491515398
1761316158660072400,4.983072509765625,3.8618706587076184,3.5610929376706477,1.4488297119162976
1761316158670054400,4.993054443359375,2.7331203112781046,2.730745691101253,0.7564295582477003
1761316158680036400,5.003036376953125,1.6879530869424342,1.4878770893216133,0.04191767214462161
1761316158690019300,5.013019287109375,0.5899065053343773,0.008735095119476318,-0.6383044794090091
1761316158700001500,5.02300146484375,-0.0805184748262167,-1.8198808464884757,-1.2174744866736233
1761316158709983200,5.032983154296875,-0.5651660318315029,-3.9046912710413335,-1.2934025649696588
1761316158719965400,5.04296533203125,-2.590342071893811,-5.613534293538332,-1.15093930981867
1761316158729947400,5.052947509765625,-8.091879048758745,-5.968916003683209,-1.5843613411732016
1761316158739930400,5.062930419921875,-18.740393714642522,-4.593917105522752,-3.8167730413526293
1761316158749912600,5.07291259765625,-32.31680775206089,-2.806408834850788,-7.329297178426384
1761316158759894300,5.082894287109375,-43.692178894901275,-1.8808214912720023,-10.350119748330115
1761316158769876500,5.09287646484375,-45.829569693779945,-2.099541106825322,-10.770960311335324
1761316158779858400,5.1028583984375,-39.15257614789009,-3.1424639132350682,-8.276957383733988
1761316158789840400,5.11284033203125,-30.02473141838312,-4.473974382802844,-5.16578701890707
1761316158799823400,5.1228232421875,-22.801820146489142,-5.318330865502357,-2.98147314081192
1761316158809805300,5.132805419921875,-18.406276326322555,-5.790130046850442,-1.9117742634184658
1761316158819787500,5.14278759765625,-15.69427011474371,-5.803419736534357,-1.648601904284954
1761316158829769500,5.15276953125,-13.329801914072036,-5.572683227711916,-1.8604323448464273
1761316158839751400,5.16275146484375,-10.757239244496821,-5.411380905121565,-1.8656150081813334
1761316158849734400,5.172734375,-8.109264483323694,-5.184634927240014,-1.4355202946186065
1761316158859716400,5.18271630859375,-5.722526583176851,-4.678769810160994,-0.8914711389653384
1761316158869698300,5.1926982421875,-3.8620086058735845,-4.001132998925447,-0.36712110164687034
1761316158879680500,5.202680419921875,-2.4988912841647863,-3.276310073623061,0.011466346714273094
1761316158889662500,5.212662353515625,-1.4664327347546815,-2.489943130816519,0.21932971027567982
1761316158899644400,5.22264453125,-0.620899609491229,-1.5497325108624993,0.26078663304075594
1761316158909627400,5.23262744140625,0.21862579979002475,-0.6303754399754107,0.13859613139405846
1761316158919609300,5.242609375,1.0748726267695425,0.12860387582033872,-0.052716567926108834
1761316158929591300,5.25259130859375,1.9353490541428326,0.8260001572757959,-0.2102389335863292
1761316158939573200,5.2625732421875,2.9752561659932133,1.440183610254526,-0.3445299151323736
1761316158949555500,5.272555419921875,4.041806954619288,2.0220918103113767,-0.16638532494306563
1761316158959538400,5.282538330078125,5.069081379389763,2.537152625758946,0.478577297180891
1761316158969520400,5.292520263671875,6.072638828486204,2.938549944886565,1.2739020379468797
1761316158979502300,5.30250244140625,7.007305696707964,3.3690339500278235,2.0275540212400256
1761316158989484300,5.312484375,7.82364370714724,3.822451086989045,2.612459795677662
1761316158999466500,5.322466552734375,8.566669228616357,4.176367400756478,3.0764731454551217
1761316159009448200,5.3324482421875,9.377721407607197,4.432926625360548,3.395661260190606
1761316159019431400,5.342431396484375,10.153983428245782,4.482433583590388,3.4294407801955935
1761316159029413400,5.352413330078125,10.927525668531656,4.620752505478262,3.3573733228504654
1761316159039395300,5.362395263671875,11.625894886672496,4.63162081323415,3.152738346751034
1761316159049377500,5.37237744140625,12.209722364354134,4.524617651586234,2.977750320896506
1761316159059359200,5.382359130859375,12.714551708644628,4.27545993541032,2.848944200502336
1761316159069341400,5.392341552734375,13.10368079009056,4.110870261712372,2.817259606949985
1761316159079324400,5.402324462890625,13.328625856029987,4.040813267406821,2.847095065504312
1761316159089306400,5.412306396484375,13.362836753189564,4.036822736465931,2.984630143538117
1761316159099288600,5.42228857421875,13.156784603768587,4.073115700596571,3.0919121221274137
1761316159109270300,5.432270263671875,12.762114254808425,4.106627217315137,3.0316628206089136
1761316159119252500,5.44225244140625,12.257533916842936,4.093643817101419,2.9692379286170003
1761316159129235500,5.4522353515625,11.744094565117358,4.00895185598284,3.070357000662386
1761316159139217400,5.462217529296875,11.241487573051453,3.9118975491583345,3.2253777587652204
1761316159149199400,5.472199462890625,10.786977380156516,3.8831168603539465,3.2731384578496217
1761316159159181300,5.482181396484375,10.438845495009422,3.8327097384139894,3.1916695504307744
1761316159169163500,5.49216357421875,10.137310525864363,3.8306612814515826,3.1050305468976496
1761316159179145200,5.502145263671875,9.86065748451948,3.8424835289314387,3.0353593370392917
1761316159189128400,5.51212841796875,9.557343815264105,3.8021135246202347,2.9339091333433984
1761316159199110400,5.5221103515625,9.066598525905608,3.726315648575127,2.842427658215165
1761316159209092400,5.53209228515625,8.47350462270677,3.533559034056961,2.846778839161992
1761316159219074600,5.542074462890625,7.777388151928782,3.312864319038391,2.651474585987627
1761316159229056300,5.55205615234375,6.705898153334855,2.9823303421631455,1.9696198647961018
1761316159239038500,5.56203857421875,4.974892691129446,2.3747914417654274,1.097751982575655
1761316159249021200,5.572021240234375,2.9049726694554088,1.5293118002548813,0.25533713546320796
1761316159259003400,5.58200341796875,1.0333967070430516,0.48438949059098957,-0.7978532363303005
1761316159268985600,5.591985595703125,-0.7180676058232783,-0.8648097804024815,-1.940206723307073
1761316159278967300,5.60196728515625,-2.7354963927596807,-2.767676076352596,-2.907172809848189
1761316159288949500,5.611949462890625,-4.371415925604104,-5.057027368980646,-3.027098289172351
1761316159298932200,5.62193212890625,-4.885082071822882,-6.916423064255714,-1.8585525224491952
1761316159308914400,5.63191455078125,-7.255988781109452,-7.687412112927436,-0.9322498702079057
1761316159318896400,5.641896484375,-14.8897224953413,-6.51476417158246,-2.1619616149030625
1761316159328878300,5.65187841796875,-26.99459566121101,-3.3891257209420202,-5.410054040431976
1761316159338860500,5.661860595703125,-38.946244597005844,-0.4704430905640125,-8.768814433726668
1761316159348842500,5.671842529296875,-45.370958495306965,0.1380611477345228,-10.762436813139916
1761316159358825500,5.681825439453125,-43.433315192747116,-0.9911436654642224,-10.41294299198985
1761316159368807400,5.691807373046875,-34.49757708941698,-2.1903794617444277,-8.582427938762306
1761316159378789400,5.701789306640625,-24.352435139274597,-3.274691532510519,-6.460031295397878
1761316159388771300,5.711771240234375,-17.033816591250897,-4.696373855912685,-4.753218025162815
1761316159398753300,5.721753173828125,-13.351882812976836,-5.642240748062729,-3.4348607594177123
1761316159408735500,5.731735595703125,-11.813351056694984,-5.522759797635675,-2.702626388815045
1761316159418718500,5.741718505859375,-11.118557943475246,-4.755804242263734,-2.147547889625281
1761316159428700400,5.751700439453125,-10.407760620915889,-4.049229213574528,-1.4346655774854122
1761316159438682400,5.761682373046875,-9.358327555829286,-3.6432217703029512,-0.930971813096106
1761316159448664300,5.771664306640625,-7.973134595912694,-3.229541308185458,-0.6969708956502377
1761316159458646300,5.781646240234375,-6.366793624252081,-2.958908257782459,-0.6232545020543039
1761316159468629200,5.791629150390625,-4.545172656098008,-2.7570237494349477,-0.6681529435753822
1761316159478611500,5.801611572265625,-2.763692559674382,-2.4104484460800886,-0.7577773926600814
1761316159488593400,5.811593505859375,-1.0813315936505794,-1.7730828549563884,-0.8263393261022866
1761316159498575400,5.821575439453125,0.42204701618552204,-0.9493784074023366,-0.8543474230989814
1761316159508557300,5.831557373046875,1.7287755111962555,-0.11830635368973016,-0.9066042645588517
1761316159518539500,5.84153955078125,2.960558947598934,0.7059466676577926,-0.7947276516556739
1761316159528522500,5.8515224609375,3.965827292266488,1.5871172157526015,-0.49469936074651777
1761316159538504400,5.86150439453125,4.840837271904945,2.5959613730803133,-0.16205555211044848
1761316159548486400,5.871486328125,5.933188856741785,3.3358363215640185,0.1509093772612512
1761316159558468400,5.88146826171875,7.2594532423496245,3.5531022311776876,0.3099575642492622
1761316159568450600,5.891450439453125,8.470249420303105,3.876191152743995,0.5930916381765157
1761316159578432300,5.901432373046875,9.719947868102789,4.419751794227958,0.7130922285635024
1761316159588415200,5.911415283203125,10.844994684839248,4.82813707254678,0.6655033789146692
1761316159598397200,5.921397216796875,11.717068611025809,5.027807119715214,0.4740608426697552
1761316159608379100,5.931379150390625,12.359942151916027,5.218319170176983,0.21091942666377872
1761316159618361300,5.941361328125,12.825512668007612,5.2992573317199945,-0.1402375419255346
1761316159628343000,5.951343017578125,13.082049973040819,5.313336710476875,-0.38904870968610045
1761316159638325200,5.9613251953125,13.071071482908724,5.355981089460849,-0.5275308958442881
1761316159648308000,5.971307861328125,12.833622324705123,5.442917030113935,-0.5734163025761023
1761316159658290200,5.981290283203125,12.38884325222969,5.594174928551912,-0.35951004212126136
1761316159668272400,5.9912724609375,11.784725850713253,5.74768732791841,-0.027095183402858672
1761316159678254000,6.001254150390625,11.225912402778864,5.856234796398878,0.28077698940709234
1761316159688236300,6.011236328125,10.83193529677987,5.96419598942399,0.4929271269096061
1761316159698219000,6.021218994140625,10.582588780033587,6.105580144101381,0.6873632554799318
1761316159708201200,6.031201171875,10.473000278067587,6.148517368552088,0.9086383276697247
1761316159718183200,6.04118310546875,10.387683463048935,6.0372325840622185,1.103090567124635
1761316159728165000,6.0511650390625,10.323263305586575,5.790196682345867,1.2157631527110933
1761316159738147300,6.061147216796875,10.288263303875922,5.52496929037869,1.115121488919109
1761316159748129000,6.07112890625,10.017229855978488,5.332560466384887,0.9437702121317386
1761316159758112300,6.0811123046875,9.52102337860465,5.28831742003262,0.8558807701461016
1761316159768094000,6.091093994140625,8.973033522501588,5.3904205346792935,0.7629625402130186
1761316159778076200,6.101076171875,8.330778405770658,5.478850513282418,0.7566823639649898
1761316159788058000,6.11105810546875,7.675517092472314,5.402824089178442,0.9167039990950375
1761316159798040000,6.1210400390625,6.974834336692094,5.194118210378289,1.2390984355911612
1761316159808022300,6.131022216796875,6.1013178104817865,4.8434641132771965,1.4562366271719336
1761316159818005000,6.1410048828125,4.986836226901412,4.2673207603573795,1.48356536360234
1761316159827987200,6.1509873046875,3.72482774810493,3.433147818019986,1.3863175800323486
1761316159837969200,6.16096923828125,2.887950222983956,2.40958744533658,1.2078949766192584
1761316159847951000,6.170951171875,3.1383851194888353,1.305905488190055,1.451824948209524
1761316159857933000,6.18093310546875,3.876823897689581,0.020367080724239348,2.3692026818476615
1761316159867915300,6.190915283203125,3.593603168392181,-1.683126689699292,3.1623464253127573
1761316159877898200,6.200898193359375,1.3258347620189188,-3.0880367419987915,2.6641747853457924
1761316159887880200,6.210880126953125,-4.0782489718317985,-2.8208371731758115,0.43740912822932004
1761316159897862100,6.220862060546875,-12.773906399410963,-0.9003858284354209,-3.1018866959139704
1761316159907844000,6.230843994140625,-24.115526079297066,1.2152426359683275,-7.009715680459141
1761316159917826000,6.240825927734375,-34.89096265926361,1.7287939236357808,-9.93667923244834
1761316159927808000,6.25080810546875,-39.76473423252106,0.5576809367731214,-9.590785481616853
1761316159937791200,6.260791259765625,-37.592428772127626,-0.9753019532099365,-6.584369038206338
1761316159947773200,6.270773193359375,-30.884499989748,-2.037750274953246,-3.6507442747622725
1761316159957755100,6.280755126953125,-24.107076230859754,-3.427694521050155,-1.5638776483319698
1761316159967737000,6.290737060546875,-19.367742354142663,-5.196154100120068,-0.3080930124863982
1761316159977719000,6.300718994140625,-16.06949108234644,-6.686322515249252,-0.27186478415504095
1761316159987702000,6.310701904296875,-13.326952954381703,-7.584229970872402,-0.9968951416630297
1761316159997684200,6.320684326171875,-10.759957271283865,-8.177862218731642,-1.4419251932248471
1761316160007666200,6.330666259765625,-8.659685365965961,-8.574246970394253,-1.2919796925596891
1761316160017648000,6.340648193359375,-7.28930185264647,-8.51776169758439,-0.8135389543052762
1761316160027630000,6.350630126953125,-6.569409954005479,-7.897655868819355,-0.2078375715330243
1761316160037612300,6.3606123046875,-6.1051060968488455,-7.010429381686449,0.2708955007314682
1761316160047595300,6.37059521484375,-5.544011844500899,-6.070532211595773,0.6104407593190669
1761316160057577200,6.3805771484375,-4.729615031257271,-5.042213246208429,0.7485350786708295
1761316160067559200,6.39055908203125,-3.4920886672884226,-4.032690166705846,0.5771149744309485
1761316160077541000,6.400541015625,-1.959724201464653,-3.1253926591858265,0.08004756937883793
1761316160087523300,6.4105234375,-0.11360767447948455,-2.3885312133044003,-0.6085111794959753
1761316160097505000,6.420505126953125,2.052260446342826,-1.8144602827444671,-1.3109769462354481
1761316160107488300,6.43048828125,4.27394047075808,-1.3196248014628886,-1.883038436669111
1761316160117470200,6.44047021484375,6.317505569469929,-0.6656184566617012,-2.0431788758732377
1761316160127452200,6.4504521484375,7.974622788643837,0.045100832225382324,-1.7558596252158283
1761316160137434400,6.460434326171875,9.227001269307731,0.6855079830020666,-1.2153425892114638
1761316160147416000,6.470416015625,10.186524930888414,1.2087974053516983,-0.4599599827334285
1761316160157398300,6.480398193359375,10.86606552991867,1.6897899469807742,0.46770281541254366
1761316160167381000,6.490381103515625,11.188817474615574,2.260910795563459,1.1620107389312238
1761316160177363200,6.50036328125,11.378356880652904,2.8462437093719837,1.3747414162680507
1761316160187345200,6.51034521484375,11.537761845189332,3.3766128608494994,1.3049337205484508
1761316160197327000,6.5203271484375,11.684697788774967,3.722497843852639,1.115643759227544
1761316160207309300,6.530309326171875,11.93183948895335,3.7630607403874397,0.7885694943521171
1761316160217291000,6.540291015625,12.254950330090523,3.6912171549260613,0.3220247994661331
1761316160227274200,6.550274169921875,12.59712944431305,3.6167099032133816,-0.2233217573202215
1761316160237256000,6.560255859375,12.719763305813073,3.7780052115410565,-0.6571434737831354
1761316160247238100,6.570238037109375,12.593873657387494,4.108004058626294,-0.6684001963347196
1761316160257220000,6.58022021484375,12.225745278394221,4.377306737208366,-0.26481066439244894
1761316160267202000,6.5902021484375,11.755901907289028,4.548131505903601,0.23939251082371918
1761316160277184300,6.600184326171875,11.32773027074337,4.796224807718396,0.6290555164832622
1761316160287167000,6.6101669921875,10.982596982890367,5.230265628558397,1.0369258310172706
1761316160297149200,6.620149169921875,10.843856036198138,5.408127456283569,1.3346233408913015
1761316160307131100,6.630131103515625,10.789594869178533,5.337789599210024,1.4606903917104006
1761316160317113000,6.640113037109375,10.695326685941218,5.385940174394846,1.4340060906633734
1761316160327095000,6.650094970703125,10.643561427390575,5.521702982059121,1.2848895881682634
1761316160337078000,6.660078125,10.61636245481968,5.527457015541196,0.9821883517228066
1761316160347060200,6.670060302734375,10.393956551969051,5.488664635810256,0.6312787454906851
1761316160357042200,6.680042236328125,9.903287834978103,5.513043290263414,0.5188946945220232
1761316160367024000,6.690024169921875,9.055017978227138,5.61521654753685,0.7776273176424204
1761316160377006000,6.700006103515625,7.9545105594635,5.498924748539924,1.099026386425644
1761316160386988300,6.70998828125,6.58389908260703,5.001081609874963,1.4028753316015004
1761316160396971300,6.71997119140625,4.78146387643814,4.146434619307517,1.8480504176571964
1761316160406953200,6.729953125,2.444226212519407,3.2076416110664603,2.412707915444672
1761316160416935200,6.73993505859375,0.46919513632953164,1.8760680131345986,3.0999843694239853
1761316160426917000,6.749917236328125,-0.6828934165894984,-0.02474924133121967,3.8733252419188617
1761316160436899000,6.759899169921875,-2.5376585294544696,-2.834872128269076,4.080161527454853
1761316160446881000,6.769881103515625,-6.075021924230456,-5.261307248032093,1.754172402781248
1761316160456864000,6.779864013671875,-12.89688863595724,-5.3790322947025295,-3.3941008790060874
1761316160466846200,6.78984619140625,-23.151607397627828,-4.061037432529032,-10.007183093738556
1761316160476828200,6.799828125,-34.702748948872085,-2.473173197801411,-15.101333447933197
1761316160486810000,6.80981005859375,-42.90818072705269,-1.4406754854246973,-16.910431034600734
1761316160496792000,6.8197919921875,-43.16371499252319,-1.6380264419957995,-14.328733456933497
1761316160506774300,6.829774169921875,-37.04491647040844,-2.4337480731248853,-9.520884846916795
1761316160516757200,6.83975732421875,-28.55676314462423,-3.4654169334620235,-5.308057308769226
1761316160526739200,6.8497392578125,-21.431899574506282,-4.604245607313514,-2.776031816765666
1761316160536721200,6.85972119140625,-16.51613945582509,-5.465298373270034,-1.7769453756034372
1761316160546703000,6.869703125,-13.011861753571033,-5.951144200149178,-1.7321324204087256
1761316160556685300,6.879685302734375,-10.503033012759685,-6.035881753975152,-1.8974922016963363
1761316160566667000,6.8896669921875,-8.469715167295933,-5.929384788283706,-1.849566521308571
1761316160576650200,6.899650146484375,-6.417495637485384,-5.789026469522715,-1.7044417187981307
1761316160586632200,6.909632080078125,-4.2288925377637145,-5.5295893513947725,-1.5100016812376678
1761316160596614100,6.9196142578125,-2.108760332199931,-5.240448584398627,-1.268344111558795
1761316160606596400,6.929596435546875,-0.36223639834523197,-4.816130408410728,-1.0796457594554871
1761316160616578300,6.939578369140625,0.8485638712614775,-4.219477643686533,-0.8147214420881121
1761316160626560300,6.949560302734375,1.4130612100511788,-3.4241222155213356,-0.3202785403206944
1761316160636543200,6.959543212890625,1.5185843622744082,-2.5640485237300394,0.16726897590979933
1761316160646525200,6.969525146484375,1.7658757000565528,-1.849877048562467,0.2588648346653208
1761316160656507100,6.979507080078125,2.3204636392503977,-1.4189347782596944,-0.00970554758682847
1761316160666489000,6.989489013671875,3.1724411183476446,-1.1555217422381043,-0.41367300946339963
1761316160676471300,6.99947119140625,4.208282880455255,-0.7862339640766381,-0.7269424016743898
1761316160686453200,7.009453369140625,5.416864889490604,-0.3973820921368897,-0.9312792716100812
1761316160696436200,7.019436279296875,6.6410296675831075,-0.18777239636480808,-1.0910507313713431
1761316160706418200,7.029418212890625,7.694406501859426,0.07909662532955408,-1.129868464739248
1761316160716400000,7.039400146484375,8.701620135375856,0.42330242307409643,-1.122817084923014
1761316160726382300,7.04938232421875,9.610193946442008,0.7343105923548341,-1.0894313134759663
1761316160736364000,7.059364013671875,10.431265415143965,0.928678879853338,-1.0573434728849678
1761316160746346200,7.06934619140625,11.177178474748134,1.073242102958262,-1.0210356034461407
1761316160756329200,7.0793291015625,11.704969007909297,1.2154141931429505,-1.023725427052006
1761316160766311200,7.089311279296875,12.06877075587511,1.2693895289584993,-1.0409582283385097
1761316160776293400,7.09929345703125,12.30299452229142,1.1605492150112986,-1.0869524292070418
1761316160786275000,7.109275146484375,12.292425197482109,1.0537065046221017,-1.1471022158738224
1761316160796257300,7.11925732421875,11.92979015520811,1.1351584609061478,-1.1474113548882305
1761316160806239200,7.1292392578125,11.304313154798745,1.268547232915461,-1.166560657320544
1761316160816222200,7.13922216796875,10.705770923066138,1.2815437848716973,-1.1356103693921118
1761316160826204400,7.149204345703125,10.236841744196415,1.237437224380672,-1.007056762454286
1761316160836186000,7.15918603515625,9.730300335291027,1.4389002924457193,-0.8620203688796609
1761316160846168300,7.169168212890625,9.18427739534676,1.9071058332160113,-0.8104688992101698
1761316160856150300,7.179150390625,8.689232947489618,2.3522303581282493,-0.7412743669528513
1761316160866132200,7.18913232421875,8.266520745393633,2.5875866357058284,-0.5583274910483509
1761316160876115200,7.199115234375,7.819937838366627,2.7663272920921442,-0.4531440191082656
1761316160886097200,7.20909716796875,7.486667422264814,3.0609307084083555,-0.49779951871894296
1761316160896079400,7.219079345703125,7.295733346998691,3.42429026556462,-0.5082741509821266
1761316160906061000,7.22906103515625,7.043016477036476,3.4891435537472364,-0.33655067988149817
1761316160916043300,7.239043212890625,6.437566365611553,2.8997698401153085,-0.19601853892356155
1761316160926025200,7.249025146484375,5.3956479139387605,2.1856687998354434,-0.19304018069989978
1761316160936008200,7.25900830078125,3.653492112165689,1.4820856464385985,-0.17029855286404488
1761316160945990400,7.268990478515625,1.054763320198655,0.5866062947452068,0.6441420264560729
1761316160955972000,7.27897216796875,-2.029710176360607,-0.45644554487168787,2.049866536943614
1761316160965954300,7.288954345703125,-4.149102961733937,-1.2435033925518393,3.4460920552670955
1761316160975936300,7.298936279296875,-5.00164859610796,-1.6184145635530351,4.452348534189165
1761316160985918200,7.308918212890625,-6.073027535542845,-2.1055290951937438,4.430142839860916
1761316160995901400,7.3189013671875,-8.610628197330236,-2.4807924406334756,3.52433907802999
1761316161005883100,7.328883056640625,-13.0379968963027,-1.6719000700250266,2.2681368012942373
1761316161015865300,7.338865234375,-17.753647115093468,-0.16323504421859977,0.4417261146456003
1761316161025847300,7.348847412109375,-21.91893022725582,0.3443725326135754,-1.6174696839183569
1761316161035829200,7.358829345703125,-25.34860072455406,-0.03197363962680101,-3.362785411027074
1761316161045811200,7.368811279296875,-26.22480137528181,-0.558268965794146,-4.034411583670973
1761316161055794200,7.378794189453125,-23.43049915781021,-1.2014818216413259,-3.3168542654573914
1761316161065776400,7.3887763671875,-18.435909248042105,-2.2760522505939007,-1.8859964096918702
1761316161075758300,7.39875830078125,-13.169799568164349,-3.572642505688965,-0.7697927515592425
1761316161085740300,7.408740234375,-8.35390384529233,-5.088382292187213,-0.44949744276683773
1761316161095722200,7.41872216796875,-4.31981959387958,-6.486943267720937,-0.6540380551137029
1761316161105704200,7.4287041015625,-1.3867425274461507,-7.215618776798248,-1.053351699835062
1761316161115687200,7.438687255859375,0.5188210447639227,-7.092326743650436,-1.3483479148611426
1761316161125669000,7.448669189453125,1.7758394601881502,-6.380599446764588,-1.3913659494630992
1761316161135651000,7.458651123046875,2.5688696602761745,-5.406472674813866,-1.1546563575804234
1761316161145633300,7.46863330078125,2.683088744652271,-4.342840988504887,-0.5134369771054014
1761316161155615200,7.478615234375,1.898348234003782,-2.9993185941040514,0.39079379978775974
1761316161165597200,7.48859716796875,1.1145505571633576,-1.5135244485363364,1.0762394581433385
1761316161175580200,7.498580078125,0.9465724100708961,-0.5545721571028233,1.3895213445097208
1761316161185562000,7.50856201171875,1.180365968376398,-0.22965222071707247,1.3256161508321762
1761316161195544300,7.51854443359375,1.871151014998555,-0.21223405292630193,0.8444193188026546
1761316161205526000,7.528526123046875,2.937697711971402,-0.2754815133474767,0.20522044783718882
1761316161215508200,7.53850830078125,4.11105058671534,-0.23863237663879988,-0.3091892467578873
1761316161225490400,7.548490478515625,5.122478038534521,-0.10044804091602563,-0.47478367705158886
1761316161235473200,7.55847314453125,5.866316629952192,-0.015136632724851369,-0.29667565601300444
1761316161245455400,7.568455322265625,6.043311611714959,0.23439926911368963,0.5750775503192097
1761316161255437000,7.57843701171875,5.73356878619492,0.6708299076996743,1.747723080511391
1761316161265419300,7.588419189453125,5.461598934230208,1.0501759924083947,2.437521746444702
1761316161275401200,7.598401123046875,5.547390381023288,1.3362348677411675,2.5826445031285283
1761316161285383200,7.608383056640625,5.9040527786284684,1.3587024278759956,2.253295352123678
1761316161295366400,7.618366455078125,6.4604299393266436,1.1679193053878842,1.5158242499113082
1761316161305348000,7.62834814453125,7.071829314544797,0.9428336619339883,0.827168835728988
1761316161315330300,7.638330322265625,7.316390350580215,0.4733019871264696,0.31431283684931693
1761316161325312300,7.648312255859375,7.4283373983711,0.1757471736587584,-0.37786717126257713
1761316161335294200,7.658294189453125,7.634170352083444,0.09797931271493435,-0.878078792624548
1761316161345276200,7.668276123046875,7.657047369801997,0.22786504503935573,-0.8987092735253274
1761316161355258000,7.678258056640625,7.314252169507742,0.49446036435887214,-0.6366198873229324
1761316161365241300,7.688241455078125,6.917851635754108,0.9565164425887167,-0.42473559768237173
1761316161375223000,7.69822314453125,6.732286394044756,1.4903046087294816,-0.32541692612245676
1761316161385205200,7.708205322265625,6.689222912865877,1.9450722835168242,-0.243287216707319
1761316161395187200,7.718187255859375,6.763460115465522,2.307314527080953,-0.10938757256641983
1761316161405169200,7.728169189453125,6.850704099154472,2.4446046904429792,-0.038081601113080975
1761316161415151000,7.738151123046875,6.799602857470512,2.2138614596188066,-0.10559168741479516
1761316161425134000,7.748134033203125,6.488661762076616,1.7469509270951151,-0.3932980376936495
1761316161435116300,7.7581162109375,5.890417636507749,1.3395084825843573,-0.6888358122505247
1761316161445098200,7.76809814453125,5.16317537510395,1.0812670039817691,-0.8134536871746182
1761316161455080200,7.778080078125,4.242394993415474,0.867798440824449,-0.6320880891121924
1761316161465062100,7.788062255859375,2.90853299228549,0.5547954444646835,0.18897709597945211
1761316161475044400,7.79804443359375,1.0091057308733462,-0.12570230915993452,1.382148477654159
1761316161485027300,7.80802734375,-1.402941382575035,-0.7831967883378267,2.229957731156051
1761316161495009300,7.81800927734375,-4.019626102471351,-1.0001213371679187,2.5302251645833254
1761316161504991200,7.8279912109375,-6.808142137756943,-0.9264441065385937,2.3286719340167936
1761316161514973200,7.83797314453125,-9.127684570509194,-0.7463429754540324,1.6132484129615128
1761316161524955400,7.847955322265625,-10.695911207830905,-0.5504013011589646,0.887958162408322
1761316161534937000,7.85793701171875,-11.508422353458403,-0.0668317486487329,0.5219292399123311
1761316161544920300,7.86792041015625,-11.596095960736275,0.7137748770654201,0.5174716759815812
1761316161554902300,7.87790234375,-11.79731879030466,1.2412743183255195,0.42860666696205735
1761316161564884200,7.88788427734375,-12.493759086209534,1.2572360036976635,-0.014347235912829636
1761316161574866200,7.8978662109375,-13.601819696831702,1.1317181111939252,-0.5545132665224373
1761316161584848100,7.90784814453125,-14.554164845085143,1.0091425557523965,-0.874242210136354
1761316161594830300,7.917830322265625,-14.447825115782022,0.7223936523288488,-0.7782384352780878
1761316161604813300,7.927813232421875,-13.357496561205386,0.23313553278818724,-0.20571736450865863
1761316161614795300,7.937795166015625,-11.575720696705579,-0.5920816574163734,0.6201908766999841
1761316161624777200,7.947777099609375,-9.209822170969844,-1.5976844947353004,0.9203253313973545
1761316161634759200,7.95775927734375,-6.6598840056568385,-2.364233076741546,0.4501747940391302
1761316161644741400,7.967741455078125,-4.378219760400056,-2.55139391707927,-0.02570245040282607
1761316161654723000,7.97772314453125,-2.694801394277811,-2.2928083012141287,-0.04189458352997899
1761316161664705300,7.987705322265625,-1.7287328410983085,-2.0427271865829826,0.4152430352590978
1761316161674688300,7.997688232421875,-1.3684160126388072,-1.7458903121262788,0.9512355795763432
1761316161684670200,8.007670166015625,-1.0303326432973146,-1.4184969713643192,1.3434788475200532
1761316161694652400,8.01765234375,-0.6099982762485742,-1.1923790622532366,1.5888861251212656
1761316161704634000,8.027634033203125,-0.09418518112897872,-1.0853997198723255,1.5789872469194233
1761316161714616300,8.0376162109375,0.6571282762140035,-1.0276544370640068,1.2270220672197638
1761316161724598300,8.047598388671876,1.7222037315905092,-0.9443267500359565,0.689892627827078
1761316161734581200,8.057581298828126,2.911720390149951,-0.8321437015321105,0.22534590182527897
1761316161744563500,8.0675634765625,4.223633009800315,-0.775253135856986,-0.20468246850296853
1761316161754545200,8.077545166015625,5.539877521175145,-0.697604517378658,-0.630038024714589
1761316161764527400,8.08752734375,6.454440343523025,-0.5543836487933993,-0.8987005056969821
1761316161774509300,8.09750927734375,6.618237990060448,-0.2391779547575861,-0.7533728740908205
1761316161784491300,8.1074912109375,6.196992937907576,0.07378580557033419,-0.3413546460971236
1761316161794474200,8.11747412109375,5.785638580650091,0.2420180004891008,0.009039192632585763
1761316161804456200,8.127456298828125,5.54596823926568,0.4666108189247548,0.1359190211392939
1761316161814438400,8.1374384765625,5.499535573914647,0.7191524784505366,0.11412848348319529
1761316161824420000,8.147420166015625,5.613426741510629,0.9267566065538674,0.0447064260803163
1761316161834402300,8.15740234375,6.101255851161479,0.9956766327187418,-0.27838804844394327
1761316161844384300,8.16738427734375,6.811160024273395,0.7601290703527629,-0.8048674990065395
1761316161854367200,8.1773671875,7.313920745596289,0.3445309380456805,-1.362618140015006
1761316161864349400,8.187349365234375,7.63781484606564,-0.016839929511398077,-1.63381993021667
1761316161874331100,8.1973310546875,7.900535223647951,-0.008541910634934901,-1.4576343651406467
1761316161884313300,8.207313232421875,8.109335210472345,0.22192104194313286,-1.2701724960297345
1761316161894295300,8.21729541015625,8.098243323093651,0.33913477809056636,-1.2226416601784527
1761316161904277200,8.22727734375,7.928507518678903,0.4089579636402428,-1.186860298831761
1761316161914259200,8.23725927734375,7.726798951420188,0.5802614557631314,-1.1157561335608361
1761316161924242200,8.2472421875,7.4621023053288456,0.8334333760164677,-1.0477414587378502
1761316161934224400,8.257224365234375,7.107196396002173,1.0113616931065916,-0.967374959602952
1761316161944206300,8.267206298828125,6.7770812290608875,1.0240130848869682,-0.9655755089655518
1761316161954188300,8.277188232421874,6.482841677621007,0.934572321806103,-0.9596119243860244
1761316161964170200,8.287170166015626,5.993780395826697,0.6015443361580372,-0.964808616246283
1761316161974152400,8.29715234375,5.345942510527372,0.046149902886897326,-1.3149977261841297
1761316161984135400,8.307135498046875,4.24658133918941,-0.4058414390549063,-1.7108382879674433
1761316161994117400,8.317117431640625,2.6294261280477045,-1.0814163493245839,-1.2061959906816482
1761316162004099300,8.327099365234375,0.9970458752453326,-1.8601525049917398,0.3345543184325099
1761316162014081300,8.337081298828124,-0.8416682665288447,-2.3353473201274872,1.5286293709486722
1761316162024063200,8.347063232421876,-2.4311703315913675,-2.394813070052862,1.7650094386160373
1761316162034045200,8.357045166015626,-3.5948517071485515,-2.1611320322111247,1.5538649344921112
1761316162044028200,8.367028076171875,-4.790671849766373,-1.697034219020605,1.7208192914947866
1761316162054010000,8.377010009765625,-7.0457011860758065,-0.8462327979654073,2.1690400288566947
1761316162063992300,8.386992431640625,-9.985181689810751,0.09428805698156356,1.9244160105876624
