time,seconds_elapsed,z,y,x
1761315696984993000,0.073992919921875,0.1719464662015438,-0.1421783737950027,-0.06252104584276676
1761315696994976000,0.08397607421875,0.0892757817775011,-0.18286343540474773,-0.2109944281287491
1761315697004958200,0.093958251953125,0.020810732838511467,-0.20592399299666284,-0.31760354895778
1761315697014940000,0.10393994140625,-0.029209143349528312,-0.19657763411104678,-0.3465326332569122
1761315697024923100,0.113923095703125,-0.10387129336297511,-0.16461992270573972,-0.3232823252465576
1761315697034904800,0.12390478515625,-0.09234978239536284,-0.10040084077343345,-0.22303711342625318
1761315697044887000,0.133886962890625,-0.03739186528325081,-0.0033399580776691433,-0.09204385825134813
1761315697054870000,0.1438701171875,0.01692833844721317,0.0905104381389916,0.07438099498450755
1761315697064852000,0.15385205078125,0.016267244189977645,0.15824454245492814,0.20962489334121345
1761315697074834200,0.163834228515625,0.023744448202848434,0.22113427547961473,0.27807189516685904
1761315697084817200,0.173817138671875,0.04763210426867008,0.2604883807465434,0.2529858230967075
1761315697094799000,0.183799072265625,0.12561843026876449,0.2391347732029855,0.19633257330879567
1761315697104781000,0.193781005859375,0.21569676060080528,0.1893320468969643,0.17133038012981414
1761315697114764000,0.203763916015625,0.33458675939738747,0.12601619741469622,0.09489022412579506
1761315697124746000,0.21374609375,0.40917175252139565,0.061398325423151254,-0.015742087804712354
1761315697134729500,0.2237294921875,0.4220598756670952,0.035281449000537396,-0.09878047302998602
1761315697144711400,0.23371142578125,0.45154432882666584,0.031344547943025824,-0.18858345701936632
1761315697154693400,0.243693359375,0.5326011483132839,0.031401100435853,-0.2726035832909867
1761315697164676400,0.25367626953125,0.6024246261239051,0.025471271995455024,-0.2881312246274203
1761315697174658300,0.263658203125,0.6729992145627737,-0.012148702955245972,-0.303979147426784
1761315697184640500,0.273640625,0.7137181784421205,-0.031168606854230164,-0.34124289281833914
1761315697194623500,0.28362353515625,0.6321078167259693,-0.0515983775511384,-0.42764224237669257
1761315697204605400,0.29360546875,0.5052490310072899,-0.09123729110881686,-0.5478310488121584
1761315697214587400,0.30358740234375,0.37473581443428994,-0.12380407432317733,-0.6602852789402007
1761315697224570600,0.313570556640625,0.21784546306729316,-0.1465367151349783,-0.6983828082747757
1761315697234552300,0.32355224609375,0.015191139391064644,-0.14500146839171646,-0.6901251944739372
1761315697244534500,0.333534423828125,-0.12918109118640422,-0.13521116513088344,-0.6890261471908539
1761315697254517200,0.343517333984375,-0.22253040601313112,-0.13497370311319828,-0.7045183884203433
1761315697264499500,0.35349951171875,-0.34162966364622116,-0.15523922315910457,-0.7353175774402916
1761315697274481400,0.3634814453125,-0.5192962610602379,-0.22620514900311825,-0.781552089870721
1761315697284464400,0.37346435546875,-0.6992085915744304,-0.2745297655805945,-0.8640895033039152
1761315697294446600,0.383446533203125,-0.8002800250858068,-0.31429274390935896,-0.9712906717419624
1761315697304428300,0.39342822265625,-0.8217734794914722,-0.34747809741348024,-1.089415604450181
1761315697314411500,0.40341162109375,-0.786493491795659,-0.4384092451825738,-1.229977994415909
1761315697324393500,0.4133935546875,-0.797558491167426,-0.5366005932129919,-1.3413529414072631
1761315697334376400,0.42337646484375,-0.8250894721716642,-0.6038090662196278,-1.4228108890406788
1761315697344358400,0.4333583984375,-0.7691250083655119,-0.599135959842056,-1.4915722905777393
1761315697354340400,0.44334033203125,-0.7163385900735855,-0.5840203699052333,-1.5452391449660061
1761315697364323300,0.4533232421875,-0.6964104852885007,-0.5825353920444846,-1.5348784944713114
1761315697374305500,0.463305419921875,-0.6532178247720003,-0.5785036523103714,-1.4665630831360816
1761315697384287200,0.473287353515625,-0.5528770436227322,-0.5719670901484787,-1.424702255745232
1761315697394270500,0.4832705078125,-0.400123938190937,-0.5771572061374783,-1.409577167327702
1761315697404252400,0.49325244140625,-0.22230770317316054,-0.6301812325775623,-1.398145234339684
1761315697414234400,0.503234375,-0.0029600188493728637,-0.7155459783911705,-1.3520729267336427
1761315697424217300,0.51321728515625,0.24831074395775793,-0.8053174347311258,-1.337067811433971
1761315697434199300,0.52319921875,0.4829343233466148,-0.890114171398431,-1.3569092608489095
1761315697444181500,0.533181396484375,0.727936088886857,-0.9832323078177869,-1.3494735578902064
1761315697454164500,0.54316455078125,0.985191186800599,-1.0548607892237603,-1.3072975270703435
1761315697464146400,0.553146484375,1.2205951029121875,-1.156623419869691,-1.245414925261587
1761315697474128400,0.56312841796875,1.4050310483306645,-1.2454996809355914,-1.1216980908304452
1761315697484111400,0.573111328125,1.5423668044000862,-1.297373660557717,-1.0432991654414683
1761315697494093300,0.58309326171875,1.5414543657302855,-1.3637420294784008,-1.0073283459372817
1761315697504075500,0.593075439453125,1.4035954625695943,-1.4544010823078453,-0.9607279958691447
1761315697514058200,0.603058349609375,1.2214105109483002,-1.53738507046476,-0.8726277606770396
1761315697524040400,0.61304052734375,1.046760631006956,-1.528139979996532,-0.7678427865352481
1761315697534023400,0.6230234375,0.8182932361602783,-1.4880268730558455,-0.6638423138346523
1761315697544005400,0.63300537109375,0.5996791268080472,-1.4797570573605596,-0.5941327812599018
1761315697553987600,0.642987548828125,0.47853579612672326,-1.501496887742728,-0.561218974706158
1761315697563970300,0.65297021484375,0.4576473218768835,-1.5527971591301262,-0.5151228478331118
1761315697573952500,0.662952392578125,0.482109562960267,-1.616804351877421,-0.4221781682845205
1761315697583934200,0.672934326171875,0.5486749157577753,-1.6447633490353821,-0.28156244069635866
1761315697593917400,0.68291748046875,0.6129664784044027,-1.636794562113285,-0.14768787619778886
1761315697603899400,0.6928994140625,0.6067962653368711,-1.6235807141445575,-0.05795883422745391
1761315697613881300,0.70288134765625,0.4928343705922365,-1.62960494287014,-0.014766100645717232
1761315697623864300,0.7128642578125,0.3584749999850988,-1.6619231581509113,-0.027987035942357033
1761315697633846500,0.722846435546875,0.24503332972228525,-1.6852037882342934,-0.08275528483442031
1761315697643828500,0.732828369140625,0.19297697927057741,-1.6951603879727422,-0.10010125503866002
1761315697653811500,0.7428115234375,0.16858838794529438,-1.69332761958763,-0.08207359531372785
1761315697663793400,0.75279345703125,0.11423603551089763,-1.6946777190223334,-0.008526585201639682
1761315697673775400,0.762775390625,-0.0005044423907995223,-1.6930770058274267,0.02654897509641014
1761315697683758600,0.772758544921875,-0.13083937978744506,-1.671176870317012,0.005710988924792036
1761315697693740300,0.782740234375,-0.2640776374101639,-1.6543253964982927,-0.045103992296848444
1761315697703723500,0.7927236328125,-0.3715262047380209,-1.663511450255662,-0.10848514383397996
1761315697713705200,0.802705322265625,-0.3919119901627302,-1.6830520170278847,-0.14587236947473137
1761315697723687400,0.8126875,-0.29454233377873895,-1.669680055887997,-0.1429660718402825
1761315697733670400,0.82267041015625,-0.16292553987801073,-1.6667711827039717,-0.10076096105640754
1761315697743652400,0.83265234375,-0.07071896534562111,-1.6544386476144193,-0.022115988484490662
1761315697753634600,0.842634521484375,-0.02393850947022438,-1.6126067540571092,0.017698354705329985
1761315697763617500,0.852617431640625,0.014675591084361075,-1.5894216933026908,0.02002827722392976
1761315697773599500,0.862599609375,-0.04607084630131721,-1.6058350679650901,-0.033539683367125685
1761315697783581400,0.87258154296875,-0.22596564115881917,-1.629776207783818,-0.11174553386941552
1761315697793564400,0.882564453125,-0.43936639977693553,-1.6323234080485998,-0.18447415853701532
1761315697803546400,0.89254638671875,-0.6881734028190374,-1.5636394556619226,-0.23032643018420784
1761315697813528300,0.9025283203125,-0.970702058199048,-1.5102433810390532,-0.22099892212953418
1761315697823511300,0.91251123046875,-1.2823480869919062,-1.5058112438105047,-0.20310944703258574
1761315697833493500,0.922493408203125,-1.5832546951055526,-1.5522611525572836,-0.06010163667611777
1761315697843475500,0.932475341796875,-1.697567302983999,-1.6915419052146374,0.18265110782831906
1761315697853458400,0.94245849609375,-1.5931763696610928,-1.7352071516789496,0.40255719321984795
1761315697863440600,0.952440673828125,-1.381236331245303,-1.654546638033539,0.5204395128112286
1761315697873422300,0.96242236328125,-1.1627741975843906,-1.579986633220315,0.5601624879231676
1761315697883405600,0.972405517578125,-1.0360948600858448,-1.555750894369185,0.5283676023967564
1761315697893387300,0.98238720703125,-1.0566729532122612,-1.4646807765208183,0.3914159502740949
1761315697903370500,0.99237060546875,-1.2797311824917792,-1.3084291614487766,0.14422160659302025
1761315697913352400,1.0023525390625,-1.5708844583541155,-1.1540766579963266,-0.15239881210140882
1761315697923334400,1.01233447265625,-1.8644751904964445,-1.0318896634809671,-0.4117365249754861
1761315697933317400,1.0223173828125,-2.09026138343513,-0.9197878635197877,-0.5829269121127203
1761315697943299300,1.03229931640625,-2.130306393575668,-0.8043919904492794,-0.5302910812726244
1761315697953281300,1.04228125,-1.9610709398984907,-0.6403989674702286,-0.30032237848490473
1761315697963264500,1.052264404296875,-1.6537801837056874,-0.5069648950144648,-0.01574603332746774
1761315697973246200,1.06224609375,-1.2946212931096552,-0.39602161743864417,0.15701715608444064
1761315697983228400,1.072228515625,-1.0316045629292725,-0.2927399605318904,0.2591290385594591
1761315697993211400,1.08221142578125,-0.8867349042236804,-0.19430530526489018,0.3405114002060145
1761315698003193300,1.092193359375,-0.8926613716632127,-0.052150750736892224,0.3843180279023945
1761315698013175600,1.102175537109375,-0.9645464581787586,0.15701266257241367,0.3363747387927025
1761315698023158300,1.112158203125,-0.990816040945053,0.4017239207334816,0.273251781534031
1761315698033140500,1.122140380859375,-0.920617300081253,0.6374285733573138,0.2582330030351877
1761315698043122200,1.1321220703125,-0.7712251955151558,0.856910551585257,0.2753182856097817
1761315698053105400,1.14210546875,-0.5344949992358684,0.9877788652062416,0.37661753652766344
1761315698063087400,1.15208740234375,-0.19890929192900655,1.0596806105956436,0.5231721526455134
1761315698073069300,1.1620693359375,0.26295477086007596,1.0893626321539283,0.6314157428085804
1761315698083052300,1.17205224609375,0.7795709990561008,1.065981172044575,0.8033855898857116
1761315698093034500,1.182034423828125,1.2234388019055127,0.9904305487588048,1.0463095262385904
1761315698103016400,1.192016357421875,1.5397311951994894,0.8684218334197997,1.3397358615994452
1761315698112999400,1.20199951171875,1.6419763486653565,0.6754368169732391,1.630682801234722
1761315698122981400,1.2119814453125,1.5247703574329614,0.46004970684349533,1.9127961538121103
1761315698132963800,1.2219638671875,1.3039666290819645,0.30280455068945883,1.9906264124676585
1761315698142946000,1.231946044921875,1.0078203672379256,0.2823117977589369,1.8611466305956244
1761315698152928000,1.241927978515625,0.7045587204307318,0.3872682560101151,1.6061705835297704
1761315698162911000,1.251910888671875,0.4814356092214584,0.455673099194467,1.3840613255381584
1761315698172893000,1.261892822265625,0.24485563506782054,0.47501931243836876,1.2124701755803078
1761315698182875000,1.271875,0.03920797479450702,0.49145811380296944,1.0361986857865004
1761315698192857900,1.28185791015625,-0.08698328692615032,0.5509253250330686,0.9195577080257237
1761315698202839800,1.29183984375,-0.07968845374286174,0.6859583571180701,0.8953637624897062
1761315698212822000,1.301822021484375,-0.019808277797698972,0.835188841381669,0.9737215521506964
1761315698222805000,1.311804931640625,-0.0034013328760862348,0.943273368525505,1.1276509348202497
1761315698232787000,1.321786865234375,-0.002644377028942108,1.0559674352914095,1.2474034687303006
1761315698242769000,1.331768798828125,0.014465747725963592,1.1876631396472452,1.3031602811351417
1761315698252752000,1.341751953125,-0.03012859628200531,1.2363973599389195,1.317946492987126
1761315698262733800,1.35173388671875,-0.07302548872232437,1.222649112832546,1.2989416405268013
1761315698272715800,1.3617158203125,-0.06098609136044979,1.217302491107583,1.2016641924709082
1761315698282698800,1.37169873046875,0.00784136115014553,1.1774418976232408,1.0478687383793295
1761315698292681000,1.381680908203125,0.16979484112560747,1.0959952020362018,0.9124165310341864
1761315698302663000,1.391662841796875,0.4652320779174566,0.9935735229596495,0.8230236256830393
1761315698312646000,1.40164599609375,0.8241109825283288,0.9343705156236887,0.8007909702826291
1761315698322628000,1.411628173828125,1.192443944182992,0.9442834223508835,0.8022976485185325
1761315698332609800,1.42160986328125,1.5006968234062195,0.8996227351084352,0.8024791425652802
1761315698342593000,1.431593017578125,1.681185492503643,0.8296294536888599,0.8379908201251178
1761315698352574700,1.44157470703125,1.7836831594258546,0.7845815206944942,0.8780922366280108
1761315698362558000,1.451557861328125,1.7896008590370416,0.7220984687745571,0.9252665871918201
1761315698372540000,1.461539794921875,1.7477859166145324,0.6818047445699572,0.9692791857890785
1761315698382521900,1.47152197265625,1.683740437683463,0.6897945742800832,0.9822226923838258
1761315698392504800,1.4815048828125,1.5758382813692091,0.6775111390292644,0.9647248104203492
1761315698402486800,1.49148681640625,1.4741191976040602,0.6636427726745605,0.96921320788078
1761315698412469000,1.501468994140625,1.3579109852373599,0.6159282508194446,0.9859726195018738
1761315698422452000,1.511451904296875,1.2261083133757114,0.5270940753296017,0.9585279285416006
1761315698432434000,1.521433837890625,1.0905518419384956,0.4346493081271648,0.8655262581087648
1761315698442415900,1.531415771484375,0.9134820413738488,0.33740883108079434,0.7096511481989175
1761315698452399000,1.541399169921875,0.7297025140374899,0.2247822765931487,0.5626959153909236
1761315698462380800,1.551380859375,0.5920540387570857,0.12902268575429915,0.46240730282030995
1761315698472363000,1.561363037109375,0.5263409188747405,-0.021846797887980936,0.4277263404635712
1761315698482345700,1.571345703125,0.4964718503117561,-0.1717851381599903,0.44576234789174046
1761315698492328000,1.581327880859375,0.49184243694543833,-0.26639906609505415,0.49126317575275896
1761315698502310000,1.591309814453125,0.3953595002681017,-0.3491872394189238,0.5728821591667831
1761315698512292900,1.60129296875,0.15513561665415762,-0.43081455226987597,0.6302180574566125
1761315698522275000,1.611275146484375,-0.16061492484807968,-0.4861839727923274,0.613098288090527
1761315698532256800,1.6212568359375,-0.4926531688064337,-0.5087316124260425,0.5519586501361802
1761315698542240000,1.631239990234375,-0.8352209900856018,-0.5576636933773755,0.49718014471158384
1761315698552222000,1.641221923828125,-1.199323766824603,-0.6597352438420057,0.40553493038900196
1761315698562204000,1.651203857421875,-1.5916051748216151,-0.7690417139962316,0.2653067042810842
1761315698572187000,1.661186767578125,-1.9407231483966112,-0.7944342216670512,0.09219265560489147
1761315698582168800,1.6711689453125,-2.25270293918848,-0.761646050786972,-0.1075348939044401
1761315698592151000,1.681151123046875,-2.4804414352387187,-0.6952794354319572,-0.2154893101288937
1761315698602134000,1.691134033203125,-2.573113289195299,-0.5812561658889055,-0.19606285298932344
1761315698612116000,1.701115966796875,-2.5235890875697136,-0.4577475673809647,-0.09600088878143578
1761315698622099000,1.711098876953125,-2.3592349761933087,-0.5276534627780318,0.2173747037503868
1761315698632081000,1.721080810546875,-2.046497060510516,-0.8244868301033973,0.64093248982504
1761315698642062800,1.731062744140625,-1.6611135953336953,-1.0808850189268588,0.8289489240787923
1761315698652046000,1.741046142578125,-1.3960358409702778,-1.2820002964675425,0.7551913216896354
1761315698662027800,1.75102783203125,-1.3157383154183626,-1.4565896783933043,0.6042987494327128
1761315698672010000,1.761010009765625,-1.395015265750885,-1.57581840762496,0.2467686290822923
1761315698681993000,1.770992919921875,-1.6116490149408578,-1.598627328543365,-0.232088800214231
1761315698691975000,1.780974853515625,-1.9073317509263752,-1.5249709945715963,-0.6135029233686625
1761315698701956900,1.790956787109375,-2.259633615234494,-1.3188251755177973,-0.8999529899761081
1761315698711939800,1.80093994140625,-2.512101478871703,-0.93132807918787,-1.1173428912956267
1761315698721922000,1.810922119140625,-2.5364859785437583,-0.4892727325879037,-1.1766713516421616
1761315698731903700,1.82090380859375,-2.3934558102250096,-0.15320859411433338,-1.0647609825998543
1761315698741887000,1.830886962890625,-2.0759879434108734,0.05146978273540735,-0.7851819708056748
1761315698751869000,1.840868896484375,-1.6471335852980613,0.20139424061253666,-0.48150334069542583
1761315698761851000,1.850850830078125,-1.1103338162511587,0.3494740935362875,-0.333452604268305
1761315698771833900,1.860833740234375,-0.5511293231725692,0.5224462495237588,-0.290139148650039
1761315698781816000,1.870816162109375,0.00843874252140522,0.6744396226294338,-0.26338081425242127
1761315698791797800,1.8807978515625,0.5180144045561552,0.7456947406783699,-0.26265529472315685
1761315698801781000,1.890781005859375,0.9581956278473138,0.7423255565062165,-0.2778960819422267
1761315698811762700,1.9007626953125,1.3450988499373198,0.7244669514715671,-0.31433789822533725
1761315698821745000,1.910744873046875,1.6811439914494752,0.6544120029926299,-0.3686485669424757
1761315698831727900,1.920727783203125,1.884959760120511,0.5806767585657536,-0.4382451771946624
1761315698841709800,1.930709716796875,1.9593717347651718,0.5351981790691613,-0.5017776285696774
1761315698851692000,1.940692138671875,1.8785873024791477,0.5403776275336742,-0.5833223046384751
1761315698861675000,1.950675048828125,1.6517267583072184,0.6204466050267219,-0.7030646094154566
1761315698871657000,1.960656982421875,1.3581208285957573,0.7298042208462953,-0.8925637565076351
1761315698881639000,1.970638916015625,1.0467395882189274,0.7576707174152135,-1.1866261247497052
1761315698891622000,1.980621826171875,0.7992360689908266,0.6497989562392235,-1.5381899571068585
1761315698901603800,1.990603759765625,0.5853630166858435,0.4936342887982726,-1.9120494270980357
1761315698911587000,2.000587158203125,0.340882060149312,0.36786855901330706,-2.2186457712858916
1761315698921568800,2.01056884765625,0.025626608687639236,0.3233095785796642,-2.3766705335102976
1761315698931551000,2.020551025390625,-0.4458475784897804,0.3735042268127203,-2.432063188777864
1761315698941533700,2.03053369140625,-0.8911603194504976,0.5717845731884241,-2.3793773082509637
1761315698951516000,2.040515869140625,-1.112651445543766,0.9217571177661419,-2.2266201111659405
1761315698961498000,2.050498046875,-1.0674228952854872,1.270427055312693,-1.95043717155084
1761315698971480800,2.060480712890625,-0.8355576746940613,1.4985305852830408,-1.565701356627792
1761315698981463000,2.070463134765625,-0.4143640604674816,1.5825816181495784,-1.0705363511309027
1761315698991444700,2.08044482421875,0.126494044059515,1.5900027080610393,-0.6171782508805393
1761315699001428000,2.090427978515625,0.626875176769495,1.4810995580106974,-0.38343171005453913
1761315699011410000,2.100409912109375,1.0984838039815426,1.2995835916921497,-0.31079821632448584
1761315699021392000,2.110391845703125,1.5328063643723726,1.0846662910312415,-0.2674235320382751
1761315699031374800,2.120374755859375,1.8852064283579586,0.8197355439230799,-0.2612918791491538
1761315699041356800,2.130356689453125,2.1339070484161375,0.5589303523123264,-0.2925043068788014
1761315699051339000,2.140339111328125,2.2841671679884192,0.35605566388368604,-0.3428559905707836
1761315699061322000,2.150322021484375,2.3379151247888803,0.19470687180310486,-0.3667425506580621
1761315699071304000,2.160303955078125,2.3115602018266914,0.023237083202600477,-0.4390246006019413
1761315699081286000,2.170285888671875,2.1682880414456127,-0.12861410495340822,-0.544145163373649
1761315699091269000,2.18026904296875,1.9827163699954746,-0.25914047326892614,-0.6705837509188801
1761315699101250800,2.190250732421875,1.8066513625591993,-0.35768998708724975,-0.8288232518725097
1761315699111233000,2.20023291015625,1.6405033535033464,-0.41693186512887476,-0.9266724354017525
1761315699121215700,2.2102158203125,1.4783160647720097,-0.43989626886993644,-0.9848919115930795
1761315699131198000,2.220197998046875,1.2183160520642995,-0.4516930896475911,-1.0002492013312876
1761315699141179600,2.2301796875,0.9341747007906437,-0.38946401248872276,-0.9794413180369883
1761315699151162600,2.24016259765625,0.6853489930480718,-0.27959844714701176,-0.897624400898069
1761315699161144800,2.250144775390625,0.48233460388779636,-0.21954116106927393,-0.8255764519710094
1761315699171126500,2.26012646484375,0.318451617154479,-0.2262640395835042,-0.709652390307933
1761315699181109800,2.27010986328125,0.22369594266116619,-0.2914621956810355,-0.5785821243740618
1761315699191091700,2.280091796875,0.18819617473483086,-0.38826545035392046,-0.45596872114017606
1761315699201074700,2.29007470703125,0.2591583011865616,-0.5478600922435521,-0.34779980364851654
1761315699211056600,2.300056640625,0.43448622651994223,-0.7269070381000637,-0.22602065928168594
1761315699221038600,2.31003857421875,0.6591244184672832,-0.8988444442123175,-0.11446213588435201
1761315699231021600,2.320021484375,0.9063140494406223,-1.0424905524723231,-0.04709903857158497
1761315699241003800,2.330003662109375,1.0716636015951633,-1.1710523427166044,0.017665895474143326
1761315699250985700,2.33998583984375,1.1211474712103604,-1.3355541920006275,0.10944538543457165
1761315699260968700,2.34996875,1.01747257720232,-1.4820010368950665,0.1517444033132866
1761315699270950700,2.35995068359375,0.7931371675938368,-1.574682389332354,0.1688659993102774
1761315699280932600,2.3699326171875,0.5645324101030826,-1.627298857884854,0.212661740286462
1761315699290915800,2.379915771484375,0.3645926060825586,-1.6632378940112889,0.27208942322377117
1761315699300897500,2.3898974609375,0.211443194809556,-1.7284909951664507,0.3785839777624234
1761315699310879700,2.399879638671875,0.09760463418364525,-1.7600630682550369,0.4751952535271644
1761315699320862700,2.40986279296875,-0.002063362270593643,-1.759564032691717,0.47441422268468886
1761315699330844700,2.4198447265625,-0.11567805101275444,-1.7226000374317167,0.43850897923000154
1761315699340826600,2.42982666015625,-0.30534780543148515,-1.6580534771107136,0.4083500974075869
1761315699350809600,2.4398095703125,-0.5886065286517143,-1.591986721485108,0.39258879344575104
1761315699360791800,2.449791748046875,-0.927366774341464,-1.53346877380386,0.37202692080177363
1761315699370773500,2.4597734375,-1.2590408611625432,-1.4826381657548249,0.35912001989036796
1761315699380756700,2.4697568359375,-1.595480554950237,-1.436293324817717,0.3797348282979801
1761315699390738700,2.47973876953125,-1.9158605098187922,-1.3940610337659716,0.44807208613883703
1761315699400720600,2.489720703125,-2.1462305234163996,-1.5311534825988113,0.7185869535222649
1761315699410703600,2.49970361328125,-2.12963243983686,-1.775352407323569,1.0047777846716344
1761315699420685800,2.509685791015625,-1.9436077639222145,-1.8745847888395188,1.1650497413009404
1761315699430667500,2.51966748046875,-1.7161346408098934,-1.8045384620584546,1.1672546309340746
1761315699440650800,2.529650634765625,-1.5635715049922465,-1.6948139126226305,1.0278652302704752
1761315699450632400,2.539632568359375,-1.64155958455801,-1.603820367141813,0.9014321226179599
1761315699460614700,2.54961474609375,-1.991067434233427,-1.488377878450602,0.7507125688403844
1761315699470597600,2.55959765625,-2.4584271718293427,-1.2793538736119865,0.5242628339590505
1761315699480579600,2.56957958984375,-2.8831711720138786,-0.926983474112302,0.2733424920247868
1761315699490561800,2.579561767578125,-3.138863258394599,-0.5594045456953346,0.08583250945582985
1761315699500544500,2.58954443359375,-3.1726421938776967,-0.24972879406213758,0.025849859516881405
1761315699510526700,2.599526611328125,-2.976193154582381,-0.019876082336902617,0.04797258826941252
1761315699520509700,2.609509765625,-2.5960493436247107,0.14777414797544478,0.20620668239556253
1761315699530491600,2.61949169921875,-2.081359115055203,0.2644713129028678,0.3612873174594715
1761315699540473600,2.6294736328125,-1.565049760851264,0.3612582009628415,0.4982849641483277
1761315699550456800,2.639456787109375,-1.172042376667261,0.4696209605261683,0.640131548705697
1761315699560438500,2.6494384765625,-0.8132447205990553,0.6146599844492971,0.7517067675095052
1761315699570420700,2.659420654296875,-0.48575288789868354,0.8005933288186788,0.8127673854108899
1761315699580403500,2.669403564453125,-0.19549743765890598,0.9430778459534048,0.8215042340960353
1761315699590385700,2.6793857421875,0.07805179245173931,0.9793917067416011,0.8637929315101355
1761315699600367600,2.68936767578125,0.36836452583670615,0.957484849229455,0.9019199792001396
1761315699610350600,2.6993505859375,0.6667360625147819,0.9246505011200904,0.9000720863111317
1761315699620332800,2.709332763671875,0.985398107549548,0.8634452140510082,0.8561769035484641
1761315699630314500,2.719314453125,1.2362737335592509,0.7904854840412735,0.7923456518899649
1761315699640297700,2.729297607421875,1.4354291092038154,0.722061351634562,0.7546542191382497
1761315699650279700,2.73927978515625,1.5514917756199835,0.6412927014395594,0.7307035808388144
1761315699660261600,2.74926171875,1.6233569883912802,0.5780483097583056,0.6801894183278083
1761315699670244600,2.75924462890625,1.583100965848565,0.561790125657618,0.6135115450665355
1761315699680226600,2.7692265625,1.4488807114511728,0.5878136247083544,0.5157140186592937
1761315699690208800,2.779208740234375,1.2845686856508254,0.6234761819809674,0.37205154378637667
1761315699700191700,2.789191650390625,1.0717471882253884,0.6785521725147963,0.265348570661433
1761315699710173700,2.799173583984375,0.810831814238429,0.7409794025942683,0.1718580937983468
1761315699720155600,2.80915576171875,0.5127227278888226,0.8074939019873738,0.09978431631028652
1761315699730138600,2.819138671875,0.129634680172801,0.9076435444787144,0.06893931538723409
1761315699740120600,2.82912060546875,-0.21694413031339643,1.032011974686384,0.10401256499718874
1761315699750102800,2.839102783203125,-0.49087154608666894,1.1751283599838613,0.16241729809492825
1761315699760085500,2.84908544921875,-0.6525631602555513,1.298392920602858,0.22329985601566732
1761315699770067700,2.859067626953125,-0.6893143895477056,1.3788465134993195,0.3208272237120196
1761315699780049700,2.869049560546875,-0.5722416693061589,1.4536737909466027,0.43744825466331094
1761315699790032600,2.87903271484375,-0.2978197480142116,1.4859560581311582,0.5677361015152186
1761315699800014800,2.889014892578125,0.04312719406485557,1.458725229117274,0.6457363829754292
1761315699809997600,2.89899755859375,0.3247726368695497,1.4065873378619551,0.6345182388685643
1761315699819979800,2.908979736328125,0.49739773298501966,1.3001558386221528,0.5639812424937263
1761315699829961700,2.918961669921875,0.6186936238795518,1.1999068274095654,0.46436552421599625
1761315699839944700,2.92894482421875,0.7660562684446572,1.1456015289872885,0.35037422071378677
1761315699849926700,2.9389267578125,0.9276233794510363,1.0773308335766196,0.21930643899794666
1761315699859908600,2.94890869140625,1.0830150166928767,0.9956938761144876,0.14098518195506185
1761315699869891600,2.9588916015625,1.2278735694825649,0.888664118720591,0.11123590384684502
1761315699879873800,2.968873779296875,1.3703864359289406,0.8423162090435624,0.10622801255695521
1761315699889855700,2.978855712890625,1.4509832366883755,0.8218138115018606,0.08044950124323368
1761315699899838700,2.988838623046875,1.4755191275298594,0.7533072615087032,0.08513776865731924
1761315699909820700,2.998820556640625,1.3921481858819722,0.6762874424532056,0.12660908527392895
1761315699919802600,3.008802734375,1.306377197355032,0.6683630791947245,0.14783132152277975
1761315699929785900,3.018785888671875,1.2252169174939394,0.6761892427757382,0.15765201992187647
1761315699939767600,3.028767578125,1.104367016801238,0.5951730475604534,0.10051522440072148
1761315699949749800,3.038749755859375,1.0000485641926526,0.4470066853970289,0.00982091759480536
1761315699959732700,3.048732666015625,0.8793699284136295,0.33393706331700085,-0.053026035734079775
1761315699969714700,3.058714599609375,0.7557593308359384,0.23972382513731716,-0.07752174069564789
1761315699979696600,3.068696533203125,0.6543254937529563,0.17766776645779608,-0.0623018866667524
1761315699989679600,3.0786796875,0.5599094264775514,0.13503946182578802,-0.07073635487183928
1761315699999661600,3.08866162109375,0.4555453811615705,0.07273644264787435,-0.10273805154934525
1761315700009643500,3.0986435546875,0.3288572758346796,-0.04622369877547025,-0.1536346375066787
1761315700019626500,3.10862646484375,0.2087812821239233,-0.2009448894098401,-0.19610504816323518
1761315700029608700,3.118608642578125,0.07326631174087524,-0.3493330776304006,-0.28372528128605334
1761315700039590700,3.128590576171875,-0.045110476836562156,-0.48520577540993687,-0.37782110363114624
1761315700049573600,3.13857373046875,-0.22302549605369568,-0.614437427739799,-0.47589547421839085
1761315700059555800,3.148555908203125,-0.4661871866852045,-0.732717770205438,-0.6111723980618641
1761315700069537500,3.15853759765625,-0.7723533227622509,-0.8134244610801339,-0.7292381844613701
1761315700079520800,3.168520751953125,-1.1199521239459513,-0.8444006141021847,-0.8015276870593429
1761315700089502500,3.17850244140625,-1.4881266801685094,-0.8074699365898966,-0.8848368155173957
1761315700099484700,3.188484619140625,-1.8149235163420439,-0.6887047332167625,-0.9555333498355001
1761315700109467600,3.198467529296875,-2.0477035136908293,-0.5545363551370799,-0.9907100232873112
1761315700119449600,3.20844970703125,-2.196234617513418,-0.4563946914672851,-0.9484985558278858
1761315700129431800,3.218431884765625,-2.192224797350168,-0.42064810917302964,-0.8392291297484189
1761315700139414800,3.228414794921875,-2.0247651211738584,-0.45039866592288014,-0.6225254571273923
1761315700149397000,3.23839697265625,-1.739489212912321,-0.6238232418529689,-0.22823168639466165
1761315700159379700,3.248379638671875,-1.3182429917156695,-0.9013973435655236,0.0989650540829636
1761315700169362000,3.25836181640625,-0.9255693695306777,-1.0899692197449504,0.18144180510379374
1761315700179343600,3.268343505859375,-0.7342196992009877,-1.2197229962527751,0.1842009128198959
1761315700189326800,3.278326904296875,-0.6141010353922843,-1.3685570285446942,0.12992129682814701
1761315700199308800,3.288308837890625,-0.6672539489090442,-1.477804315857589,0.008045341023337095
1761315700209290800,3.298290771484375,-0.8889490731418133,-1.4600629074618219,-0.15935100585948675
1761315700219273700,3.308273681640625,-1.3099398582726716,-1.3310739778466523,-0.43303452987428753
1761315700229255700,3.318255615234375,-1.9745546908497809,-1.062847404063493,-0.7304290747463703
1761315700239238000,3.32823779296875,-2.648435948944092,-0.6784926974125206,-0.8791578200329094
1761315700249220900,3.338220947265625,-3.123694330835342,-0.2538084645912051,-0.8377052811820059
1761315700259202800,3.348202880859375,-3.348610755202174,0.10942702779397367,-0.6025338586520403
1761315700269184800,3.358184814453125,-3.29100787653923,0.4012726698346436,-0.33009039782620964
1761315700279168000,3.36816796875,-2.9337264702528714,0.6124523914024234,-0.11134483498088084
1761315700289149700,3.378149658203125,-2.330938271513581,0.7668526795193552,-0.036274327928829
1761315700299132000,3.3881318359375,-1.7280068649113178,0.7990671421647071,-0.0546904892144259
1761315700309114600,3.398114501953125,-1.235096506473422,0.748924808640778,-0.06648868453183676
1761315700319096800,3.408096923828125,-0.8312789744615554,0.7230527007594704,-0.04228502131940331
1761315700329078800,3.418078857421875,-0.4778758709132671,0.7387107270099222,-0.07044604842206463
1761315700339061800,3.428061767578125,-0.12288520591259001,0.7482235285036265,-0.15139506015265358
1761315700349044000,3.4380439453125,0.25357670166194435,0.7737427312940358,-0.2326986209419556
1761315700359025700,3.448025634765625,0.674753364753723,0.808247058442235,-0.3363316303033381
1761315700369009000,3.4580087890625,1.069239589318633,0.8276999469310045,-0.44783531824089584
1761315700378990800,3.467990966796875,1.400608555713296,0.8015639274165034,-0.5848278868958353
1761315700388972800,3.477972900390625,1.5854203487068415,0.7552550345756113,-0.791381190771982
1761315700398955800,3.487955810546875,1.5917694254726171,0.6871238937661052,-1.0978855458274484
1761315700408937700,3.497937744140625,1.498713540634513,0.6033721361070871,-1.417302939274162
1761315700418919700,3.507919677734375,1.3752233545660972,0.5540376118347048,-1.706370202642679
1761315700428903000,3.51790283203125,1.3057611112833023,0.5033791454821824,-1.988457397865504
1761315700438884600,3.527884521484375,1.2324766793638466,0.46522857078611846,-2.2164244419746097
1761315700448866800,3.53786669921875,1.131924301290512,0.39605449679493904,-2.3703213106140493
1761315700458849800,3.547849853515625,1.0241484017044304,0.3632157647714019,-2.3872134087041017
1761315700468831700,3.557831787109375,0.86290102417171,0.4602174646258354,-2.2236296971783043
1761315700478814700,3.567814697265625,0.7447410932153463,0.6710489572778344,-1.931151164061576
1761315700488796700,3.577796630859375,0.7108271331757307,0.9252037510886788,-1.539087052077055
1761315700498779000,3.58777880859375,0.7970973033964633,1.141387126162648,-1.0697228427909313
1761315700508761900,3.597761962890625,0.9909779535084963,1.2792352156683802,-0.6054292878326029
1761315700518743800,3.607743896484375,1.2600240269809961,1.3279805418759583,-0.23709333050325512
1761315700528725800,3.617725830078125,1.5328244845509529,1.2290434900447726,0.04357195129082538
1761315700538708700,3.627708740234375,1.7729484149217605,1.0227943567469715,0.222195219242014
1761315700548690700,3.637690673828125,1.9750556261092422,0.8260255839779973,0.3063719425811432
1761315700558672600,3.647672607421875,2.0710867273658513,0.6546110326960682,0.3238713771808892
1761315700568655600,3.657655517578125,2.0594050574004648,0.4717763849943876,0.3086451299438253
1761315700578637800,3.667637939453125,1.9982336726009844,0.3078977821752429,0.2998777034573257
1761315700588619800,3.677619873046875,1.9206231941759586,0.17635463803261517,0.24975255853021516
1761315700598602800,3.687602783203125,1.7785393667966127,0.04741583116948604,0.21787302692765367
1761315700608585000,3.6975849609375,1.5865484759539366,-0.0911816153988242,0.1476439457245171
1761315700618566700,3.707566650390625,1.3491408188045024,-0.18631810590326786,0.05198072336565237
1761315700628550000,3.7175498046875,1.0730284602075815,-0.2144480757139623,-0.009285121084516868
1761315700638531600,3.727531494140625,0.8259750228345394,-0.2192182127252221,-0.05711658841676544
1761315700648513800,3.737513671875,0.6002461130410432,-0.22283011961206792,-0.06625794908246026
1761315700658496800,3.747496826171875,0.3928308585733175,-0.2667075475223362,-0.05426205293559469
1761315700668478700,3.757478759765625,0.16097382128834722,-0.3430060665659606,-0.05253274492495693
1761315700678461000,3.7674609375,-0.046047465425729746,-0.37826559599563475,-0.051880783822247756
1761315700688444000,3.77744384765625,-0.28684008883833884,-0.41007893049418925,-0.03193292402392253
1761315700698425900,3.78742578125,-0.4970066878408193,-0.4112177252657711,-0.014069953341409563
1761315700708407800,3.79740771484375,-0.6200310099631547,-0.43849823864027854,0.05602823149105533
1761315700718390800,3.807390869140625,-0.5924509291201829,-0.4849104457251727,0.15771925820549948
1761315700728372700,3.817372802734375,-0.45116205151081085,-0.5919156531997025,0.2806174331975169
1761315700738354700,3.827354736328125,-0.16188684448003768,-0.7779432517237961,0.38508977945987133
1761315700748337700,3.837337646484375,0.21080606594979762,-0.9577190963767468,0.43483178855460136
1761315700758319900,3.84731982421875,0.5576835671216249,-1.135203907483071,0.4814173063797876
1761315700768302600,3.857302490234375,0.8056383372485637,-1.319126204290986,0.5259071305673569
1761315700778284800,3.867284912109375,0.8937819001257419,-1.4738761826284228,0.5181439126873388
1761315700788267000,3.87726708984375,0.812767750737071,-1.6303095840081572,0.4473946252686903
1761315700798249700,3.887249755859375,0.598047726213932,-1.7596309604480862,0.37937176713924853
1761315700808232000,3.89723193359375,0.32237492807805535,-1.85501426532045,0.30550157122109084
1761315700818213600,3.907213623046875,0.08060439954400062,-1.9049045237794517,0.2627924929704517
1761315700828196900,3.91719677734375,-0.13269640583097933,-1.9158707389518617,0.2820319213716313
1761315700838178800,3.9271787109375,-0.3121808663219213,-1.9037145833425222,0.29793252420630306
1761315700848160800,3.937160888671875,-0.4502729937165975,-1.880155574709177,0.24860179932620374
1761315700858143700,3.947143798828125,-0.5965262157350778,-1.852604573830217,0.17442564273141323
1761315700868125700,3.957125732421875,-0.7851572747558355,-1.823884529171884,0.17278185757976025
1761315700878108000,3.96710791015625,-0.9828811562925577,-1.7458580172918736,0.18835618760213255
1761315700888091000,3.9770908203125,-1.2337497680395841,-1.6586783310107887,0.2486527988610789
1761315700898072800,3.98707275390625,-1.489680923873186,-1.705886364648491,0.4585064229242503
1761315700908054800,3.9970546875,-1.6231138272851704,-1.8360986985787748,0.7732420152302831
1761315700918038000,4.0070380859375,-1.6056927368849514,-1.9315267193756998,1.017448977131024
1761315700928019700,4.017019775390625,-1.5749404557466506,-1.9245614104077218,1.0782182108704
1761315700938002000,4.027001953125,-1.6826210782647133,-1.8757821819305418,0.988254885220155
1761315700947984600,4.036984619140625,-1.9321131409615278,-1.7741908161982893,0.7891634416572749
1761315700957966800,4.046966796875,-2.3912685293138027,-1.53982354965806,0.5083277808655053
1761315700967948800,4.05694873046875,-2.9671967781782147,-1.2385950161136685,0.20364282325692473
1761315700977931800,4.066931884765625,-3.5244068825691937,-0.8468520989075302,0.046596112284436816
1761315700987913700,4.076913818359375,-3.9272891795575617,-0.36759661020413037,-0.009395933648385106
1761315700997895700,4.086895751953125,-4.026236460521817,0.07079875258356333,0.011721673182211815
1761315701007878700,4.096878662109375,-3.817141290143132,0.4330209762729704,0.10554803093615919
1761315701017860900,4.10686083984375,-3.4183985771775243,0.6844650498203932,0.16918883805647492
1761315701027842800,4.1168427734375,-2.8833056120485065,0.788103995732218,0.2769728478837758
1761315701037825800,4.12682568359375,-2.3207097229659555,0.8455961074970663,0.34998723069019616
1761315701047807700,4.136807861328125,-1.7993085985809563,0.9461452707000076,0.34610337499417365
1761315701057790700,4.146790771484375,-1.3967939658612012,1.1125061918541788,0.322567162714526
1761315701067773000,4.15677294921875,-1.0656816045761108,1.2792602039791643,0.31464572206549346
1761315701077754600,4.166754638671875,-0.6956921078860759,1.409201173622161,0.3025018414158374
1761315701087737900,4.17673779296875,-0.20620821676552295,1.5150789845019579,0.2974617283567786
1761315701097719600,4.186719482421875,0.3955962316334247,1.5764033679060636,0.30178214883916077
1761315701107701800,4.19670166015625,1.000812534302473,1.5523149285711346,0.29913623744025825
1761315701117684700,4.206684814453125,1.5426608189105986,1.4691468160189687,0.31302338156066833
1761315701127666700,4.216666748046875,1.968566264089942,1.3556101609490812,0.3605439882788807
1761315701137649000,4.22664892578125,2.23295369810164,1.2521757976986467,0.378021338910982
1761315701147631900,4.2366318359375,2.3684897112727166,1.1938900513380766,0.3594220715768635
1761315701157613800,4.24661376953125,2.4057488900870085,1.1836880985364318,0.3334500835176557
1761315701167595800,4.256595703125,2.3135148430258035,1.157389289675653,0.2855404044166207
1761315701177578800,4.266578857421875,2.1513298923820257,1.12631464471519,0.16810776482149958
1761315701187560700,4.276560791015625,1.9603554851055145,1.120342876829207,0.057155573286861175
1761315701197542700,4.286542724609375,1.7970237025141715,1.153742749866843,0.047439942697435615
1761315701207525600,4.296525634765625,1.5777245335072279,1.2209405553489923,0.09095964321121573
1761315701217507800,4.3065078125,1.2998778984636068,1.3069605502009392,0.206120209688507
1761315701227489800,4.31648974609375,1.013280386209488,1.4194476962178946,0.3110728320147842
1761315701237472800,4.32647265625,0.757996296107769,1.541283685338497,0.4320474550656974
1761315701247455000,4.336455078125,0.5177098686516285,1.6463465265735984,0.5557592114629224
1761315701257436700,4.346436767578125,0.2895189526587725,1.750106760777533,0.6581982435330748
1761315701267420000,4.356419921875,0.09851590380966663,1.83529644228518,0.7108708261869847
1761315701277401600,4.366401611328125,-0.05184475352764129,1.8784353267878293,0.6841647516995668
1761315701287383800,4.3763837890625,-0.10575170028209685,1.83372027900964,0.6249311300296336
1761315701297366800,4.38636669921875,-0.03412614148557186,1.7140873528912663,0.5721995471974834
1761315701307348700,4.3963486328125,0.2052250509470701,1.585368618519604,0.5287076114734635
1761315701317331000,4.4063310546875,0.500673978176713,1.4060156754538415,0.5031620686654001
1761315701327314000,4.41631396484375,0.7541390361577271,1.2294745749384164,0.41439964323751627
1761315701337296000,4.4262958984375,0.9756693252176046,1.07885029822886,0.3557096269249916
1761315701347277800,4.43627783203125,1.1764672073721885,0.9397525009229779,0.3136793612513691
1761315701357260800,4.4462607421875,1.3140420328944922,0.7773688128367066,0.2673201264627278
1761315701367242800,4.45624267578125,1.3607277962237596,0.6194723531670868,0.24581052463985978
1761315701377226000,4.46622607421875,1.3408932149410246,0.4885711601898074,0.2305488772958517
1761315701387207700,4.476207763671875,1.2540724251002073,0.37532603541240095,0.19303521226383744
1761315701397190000,4.48618994140625,1.1510083564668894,0.2829768375389278,0.19699381369650362
1761315701407172600,4.496172607421875,0.9796879132091999,0.23889891862049698,0.2540251760818064
1761315701417154800,4.50615478515625,0.7715729860395193,0.21950652814731,0.3105899438686669
1761315701427137000,4.516136962890625,0.500272996160388,0.2075673762895167,0.35887159808725116
1761315701437119700,4.52611962890625,0.23653788857758043,0.1851025926336646,0.3523700341735035
1761315701447102000,4.53610205078125,-0.019900632256269455,0.1031225208222866,0.3268314690954983
1761315701457083600,4.546083740234375,-0.22138006693422793,-0.0007695230677723884,0.3164341763848439
1761315701467067000,4.55606689453125,-0.3659177172064781,-0.10256912472322582,0.27914292193185536
1761315701477048800,4.566048828125,-0.46506958083212374,-0.19750702391564845,0.20043219064734874
1761315701487030800,4.57603076171875,-0.509137270617485,-0.33077085437104103,0.12373064376078545
1761315701497013800,4.586013671875,-0.5262415501534938,-0.4859335051625967,0.006655804627388715
1761315701506995700,4.59599560546875,-0.5067062440782785,-0.6392259781681001,-0.1375735103480518
1761315701516977700,4.605977783203125,-0.483625812742114,-0.7951115364067256,-0.26818021389078345
1761315701526961000,4.6159609375,-0.4476823927015066,-0.9574047697305679,-0.36573300828933714
1761315701536942800,4.62594287109375,-0.41897535365521904,-1.1136955477692185,-0.44809846268910913
1761315701546924800,4.6359248046875,-0.4445177911907434,-1.2666707715190946,-0.5065983632570132
1761315701556907800,4.64590771484375,-0.5280903928905725,-1.4176191656164825,-0.5451237626148387
1761315701566889700,4.6558896484375,-0.623980624371767,-1.5175298847854137,-0.5691271540148183
1761315701576872000,4.665871826171875,-0.7603542574107647,-1.5758365278035402,-0.5919697214744984
1761315701586854700,4.675854736328125,-0.911157982340455,-1.599135424195975,-0.6287853943049907
1761315701596836900,4.6858369140625,-1.0518015477836131,-1.6080651651047169,-0.6833411603569984
1761315701606818600,4.695818603515625,-1.1861375375151633,-1.5885513402089475,-0.690175755617395
1761315701616801800,4.7058017578125,-1.284194591641426,-1.5428690548337995,-0.6796322228364646
1761315701626783700,4.71578369140625,-1.3220721946150065,-1.456381296339631,-0.6610289369143545
1761315701636765700,4.725765625,-1.3371762402445078,-1.3226554013304412,-0.5679778743818402
1761315701646748700,4.735748779296875,-1.3653811749875544,-1.1614731979884207,-0.39929669358655806
1761315701656731000,4.74573095703125,-1.436314075344801,-1.003625253635645,-0.22525360216563567
1761315701666712800,4.755712890625,-1.4665321034759282,-0.842397165325284,-0.025626754818111656
1761315701676695800,4.76569580078125,-1.406466634091735,-0.8649705239221454,0.2949803050708957
1761315701686677800,4.775677734375,-1.192080371567607,-1.1244405214063822,0.6475517618343234
1761315701696660700,4.78566064453125,-0.9455880752086638,-1.4116433060772715,0.8298154777802527
1761315701706643000,4.795642822265625,-0.7574146968275308,-1.481853591248393,0.8130676104664802
1761315701716624600,4.805624755859375,-0.7910504244476556,-1.433543295457214,0.7440070798523724
1761315701726608000,4.81560791015625,-1.000032782101631,-1.3828990037605167,0.583552752393484
1761315701736589600,4.825589599609375,-1.3762234715193509,-1.332741911058873,0.3164642427295446
1761315701746571800,4.83557177734375,-1.8761510152429342,-1.1621708248637617,0.03226040241261944
1761315701756554800,4.8455546875,-2.383954991430044,-0.8935705954626202,-0.22653268219074232
1761315701766536700,4.85553662109375,-2.7890999726533887,-0.4701014375194907,-0.370146185089089
1761315701776519000,4.865518798828125,-2.9103344887495037,0.04853577511012554,-0.32171511246245355
1761315701786502000,4.875501953125,-2.7445120583862064,0.48538785397857426,-0.10356971660051494
1761315701796483800,4.88548388671875,-2.3169459865182636,0.8021522486984729,0.21183807587865738
1761315701806465800,4.8954658203125,-1.788512479278445,1.007981987540424,0.43674153116606174
1761315701816448800,4.90544873046875,-1.2581862901598215,1.1292679415628313,0.478333661150746
1761315701826430700,4.9154306640625,-0.7695587236076593,1.2054125852189956,0.40355555660743264
1761315701836412700,4.92541259765625,-0.3369476433098316,1.2910692997165023,0.3016134960076772
1761315701846395600,4.935395751953125,0.06718026982545852,1.37507810087651,0.18498252818426117
1761315701856377900,4.9453779296875,0.41187750434875486,1.408754452767968,0.1431924462083727
1761315701866359800,4.95535986328125,0.7352858671277761,1.4062003843709825,0.12650357907284052
1761315701876342800,4.9653427734375,1.0476409209728241,1.4155365141235292,0.12988470941111444
1761315701886325000,4.975324951171875,1.3236772917240858,1.4397805824115872,0.06827383721582592
1761315701896306700,4.985306640625,1.5025813219785689,1.462541572535038,-0.01929587129615247
1761315701906290000,4.9952900390625,1.5987182216972111,1.4625798587188124,-0.1516607436178252
1761315701916271600,5.005271728515625,1.6056103192985056,1.4188897700741887,-0.362024655290693
1761315701926253800,5.01525390625,1.5185639040082692,1.3180831249788403,-0.622843510100618
1761315701936236800,5.02523681640625,1.3926029439121483,1.21852969481498,-0.906667100661993
1761315701946218800,5.03521875,1.2586246815770863,1.1151125749602913,-1.1738986720584332
1761315701956201000,5.045200927734375,1.1613047095537186,1.0328069244563578,-1.378753136127442
1761315701966184000,5.055183837890625,1.0983908650010823,0.9727075528025626,-1.4918630902178585
1761315701976166000,5.065165771484375,1.0720412027359008,0.9866486921325326,-1.4862056489780544
1761315701986147800,5.07514794921875,1.0455290433853863,1.0379252903833984,-1.352392514076829
1761315701996130800,5.085130859375,0.9651572835534811,1.1482771779373286,-1.0646728659249842
1761315702006112800,5.09511279296875,0.8234814524531364,1.2876193053930998,-0.6934270124983042
1761315702016094700,5.1050947265625,0.7194926701903342,1.4528925774410366,-0.30030064157713204
1761315702026077700,5.11507763671875,0.7332371179044246,1.5623948624283075,0.05715949141015298
1761315702036060000,5.125059814453125,0.8628232827603817,1.5853692030414939,0.352356005648151
1761315702046041600,5.13504150390625,1.0873398941546677,1.5070643126115202,0.5759778966924175
1761315702056024800,5.14502490234375,1.3635738333046437,1.363259652788937,0.7354913996372372
1761315702066006800,5.1550068359375,1.6054104128122328,1.1594321936801075,0.8557049751877784
1761315702075989800,5.16498974609375,1.8550871844261883,0.95192692284137,0.9571577361669391
1761315702085971700,5.1749716796875,2.06413208592236,0.7477344298124313,1.0544213018279522
1761315702095953700,5.18495361328125,2.192065222874284,0.5515308897107839,1.1371959580831228
1761315702105936000,5.194935791015625,2.2710890752285717,0.3678416710063815,1.1671824424806982
1761315702115918800,5.2049189453125,2.2263702280580997,0.19334084414690733,1.1639508401483296
1761315702125900800,5.21490087890625,2.0864929708123205,0.0072153382062911985,1.1308937891989945
1761315702135884300,5.22488427734375,1.8596376873373983,-0.16460253317952156,1.096450252327323
1761315702145866500,5.234866455078125,1.5669710843026636,-0.32703064492940903,1.0480645532123745
1761315702155848200,5.24484814453125,1.241299452766776,-0.4553456208057701,0.9576680968418717
1761315702165831400,5.25483154296875,0.9209189133763312,-0.5042240718737244,0.8260524719849228
1761315702175813000,5.264813232421875,0.6234422797113657,-0.49034357668980955,0.6777781194023788
1761315702185795300,5.27479541015625,0.3310527400523424,-0.4716603573992848,0.5748299322336912
1761315702195778300,5.2847783203125,0.027577158233523368,-0.4910813894450664,0.5820057056145742
1761315702205760300,5.29476025390625,-0.2705325126379728,-0.4574178970351815,0.5902344221144914
1761315702215742500,5.304742431640625,-0.5780109003573656,-0.4289962508015334,0.6049144701782614
1761315702225725200,5.31472509765625,-0.9167582865655421,-0.3352119055584073,0.6272047009848057
1761315702235707400,5.324707275390625,-1.2618383829265831,-0.24051482938453553,0.6478133353799581
1761315702245689300,5.334689453125,-1.5223562820285559,-0.17997165948599575,0.7021474945705384
1761315702255672300,5.34467236328125,-1.6755694061875341,-0.1751619211167097,0.7673299416422843
1761315702265654300,5.354654296875,-1.5547481470674276,-0.2043216723665595,0.8244733130346983
1761315702275636200,5.36463623046875,-1.1673954276442526,-0.33136575152426956,0.8199535705879331
1761315702285619200,5.374619140625,-0.650118689712882,-0.5843159918509423,0.7545603303097188
1761315702295601400,5.384601318359375,-0.12921207084655761,-0.8828387735679745,0.6656376728188246
1761315702305583400,5.394583251953125,0.27251754897534847,-1.1194038424134254,0.6008567922852933
1761315702315566300,5.40456640625,0.583685438862443,-1.2488684267163277,0.4935425188615918
1761315702325548300,5.41454833984375,0.78690207259655,-1.3621879319041967,0.4434660171154886
1761315702335530200,5.4245302734375,0.8114186742156744,-1.4983135815314947,0.42583734837919474
1761315702345513200,5.43451318359375,0.7048959895610809,-1.6128151361107825,0.41057460505664345
1761315702355495200,5.4444951171875,0.5003928231477737,-1.6184608869127928,0.38752522644586856
1761315702365477400,5.454477294921875,0.2772767262011766,-1.5919992887057364,0.3399889837671071
1761315702375460400,5.46446044921875,0.04363046741187572,-1.5843649944350122,0.2972828646585345
1761315702385442300,5.4744423828125,-0.16431904006302356,-1.565088923817873,0.3086288729287684
1761315702395424300,5.48442431640625,-0.38951428137123584,-1.5182609755389391,0.2910577065333724
1761315702405407200,5.4944072265625,-0.7043897936046123,-1.468690158292651,0.20283026476502417
1761315702415389200,5.50438916015625,-1.0545014543920754,-1.3777693857870996,0.08478753044754266
1761315702425371100,5.51437109375,-1.3523439987599848,-1.21380178951025,-0.00955291430838406
1761315702435354000,5.52435400390625,-1.610186541172862,-1.0693711067438125,-0.03632489363886416
1761315702445336300,5.53433642578125,-1.8568699761897325,-0.9759306065022945,-0.03548888120613992
1761315702455318300,5.544318359375,-2.099682122731209,-0.8976130027212202,0.07448153274953365
1761315702465301200,5.55430126953125,-2.3365531887859103,-0.9030772594764828,0.2554936411991715
1761315702475283500,5.564283447265625,-2.467875968176126,-1.0312189246125518,0.49874074509181077
1761315702485265200,5.57426513671875,-2.3819763848334548,-1.0883958329483867,0.620723887598142
1761315702495248400,5.584248291015625,-2.233480936846137,-1.0440485955692826,0.5541416567310691
1761315702505230000,5.59422998046875,-2.193771442270279,-1.016952060459554,0.4376313926778733
1761315702515212300,5.60421240234375,-2.431093174701929,-0.9224810481265187,0.23002580326981842
1761315702525195300,5.6141953125,-2.9053526086837054,-0.7311825234621763,-0.0190266989659518
1761315702535177200,5.62417724609375,-3.3536078328371044,-0.3932096287578344,-0.22926468270421027
1761315702545160200,5.63416015625,-3.648544134369492,-0.084349577421695,-0.3170570940561592
1761315702555142400,5.644142333984375,-3.7390170169770713,0.1833291532203555,-0.3634186669323593
1761315702565124400,5.654124267578125,-3.507499586910009,0.44672143871486186,-0.38643823492676016
1761315702575107300,5.664107421875,-2.9415929658442734,0.6428373005330562,-0.35031726636216043
1761315702585089300,5.67408935546875,-2.1137427967876197,0.7322833243109286,-0.32037447497583926
1761315702595071200,5.6840712890625,-1.3079179970562458,0.7260263097427785,-0.28573307744450865
1761315702605054500,5.694054443359375,-0.6987053182274102,0.6795090348482131,-0.2938553013626486
1761315702615036200,5.7040361328125,-0.26022622267901896,0.6704371089898049,-0.2893712147511542
1761315702625018400,5.714018310546875,0.04704173716008663,0.7614720093943178,-0.2683615983396768
1761315702635001000,5.7240009765625,0.2968541178524494,0.8878411118999123,-0.27848201033771036
1761315702644983300,5.7339833984375,0.49816462570428843,1.0222700406119227,-0.2892964690145105
1761315702654965500,5.743965576171875,0.6733955204039812,1.1459311993330716,-0.2850225180223584
1761315702664948200,5.7539482421875,0.8449918579936027,1.2013475277371704,-0.24609672117009757
1761315702674930400,5.763930419921875,1.0776894377559423,1.2467907436594365,-0.19017602344043552
1761315702684912000,5.773912109375,1.3844775051236151,1.2665662882313131,-0.14374920330829918
1761315702694895400,5.783895263671875,1.7237714192986486,1.2231979788869618,-0.09660473642610012
1761315702704877300,5.793877197265625,2.054474030739069,1.1172688762113452,-0.06566233954317867
1761315702714859300,5.803859375,2.272899339520931,0.9815610136047005,-0.07287541272714734
1761315702724842200,5.81384228515625,2.3585756355017424,0.8307417988449335,-0.10923720431029796
1761315702734824200,5.82382421875,2.3273703498989344,0.7172206336051226,-0.07295059685520827
1761315702744806400,5.833806396484375,2.1411954518586396,0.7255588383615017,0.005074015328660607
1761315702754789400,5.843789306640625,1.8908914882570504,0.8084726838916539,0.07625088050961494
1761315702764771300,5.853771240234375,1.6022054792910814,0.9302534356936811,0.14385156770423055
1761315702774753300,5.863753173828125,1.26421271084249,1.059037928777933,0.2474976740092039
1761315702784736500,5.873736572265625,0.8821797251373529,1.2106263743445276,0.35645679203048347
1761315702794718200,5.88371826171875,0.5243430230557918,1.378569157862663,0.3950583984296769
1761315702804700400,5.893700439453125,0.23198154044747352,1.5151748460918664,0.3933884924560785
1761315702814683100,5.90368310546875,0.04921323598027229,1.5932660937711596,0.4201300401156768
1761315702824665300,5.913665283203125,-0.05637538269460201,1.6440785816416144,0.48673203512914476
1761315702834647300,5.923647216796875,-0.10979483819305896,1.6773370003819466,0.5515221949476748
1761315702844630300,5.93363037109375,-0.12971183706223963,1.6594383555978536,0.5472692867435515
1761315702854612200,5.9436123046875,-0.14750819051563738,1.5911641530558467,0.5291089953485876
1761315702864594200,5.95359423828125,-0.07770867810249328,1.4943012771502135,0.5325921247566119
1761315702874577400,5.963577392578125,0.028671383211016654,1.398407538537681,0.6116175845460966
1761315702884559400,5.973559326171875,0.14013970757424832,1.3294804250448942,0.698011052352935
1761315702894541300,5.983541259765625,0.2892050644040108,1.2730047968462108,0.7059693178810179
1761315702904524300,5.993524169921875,0.4097176959663629,1.155811665095389,0.6545794685140252
1761315702914506200,6.00350634765625,0.5584370158374309,0.9815306184664369,0.5742211892182008
1761315702924488200,6.01348828125,0.7195289105474948,0.7928034055948256,0.4824684594005346
1761315702934471400,6.023471435546875,0.8513958798170089,0.644098406510055,0.3799142399854958
1761315702944453000,6.033453125,0.9408516943365335,0.5136214302942157,0.2788292894054204
1761315702954435300,6.043435302734375,0.9803016611933708,0.37799277040362356,0.19275975632332265
1761315702964418000,6.05341796875,0.975260159894824,0.2743447644025087,0.1549735214276239
1761315702974400300,6.063400146484375,0.9533113629370927,0.19412439574003218,0.12519578440990298
1761315702984382500,6.073382568359375,0.8961252483814954,0.09589519991725683,0.11168562037572265
1761315702994365200,6.083365234375,0.7909411188542842,0.029453327368944883,0.10876238987278193
1761315703004347400,6.093347412109375,0.6256365748852492,-0.0004404372438788414,0.09131780899912119
1761315703014329000,6.1033291015625,0.44877369506955145,-0.022748569033294915,0.08979995178207754
1761315703024312300,6.113312255859375,0.2821837874650955,-0.03171908034384251,0.13309895874988287
1761315703034294300,6.123294189453125,0.11021744751930236,-0.07438157950639725,0.16561244087442756
1761315703044277200,6.13327734375,-0.03207797678411007,-0.14715908481702208,0.18961988739501684
1761315703054259200,6.14325927734375,-0.1445049170464277,-0.21789470903649924,0.15075630559138953
1761315703064241200,6.1532412109375,-0.22876900814175605,-0.32122327382490035,0.09338760101050138
1761315703074224000,6.16322412109375,-0.29271745643913744,-0.4259425623193383,0.039825083779543635
1761315703084206300,6.173206298828125,-0.31330724000334736,-0.5370198415383696,-0.006874324482586234
1761315703094188300,6.183188232421875,-0.33211364728212356,-0.6363264573343098,-0.022631098399776964
1761315703104171300,6.193171142578125,-0.2671224119335413,-0.7039718604534864,-0.04862703359015286
1761315703114153500,6.203153564453125,-0.15175883369743823,-0.7693059178903698,-0.08569297312097623
1761315703124135200,6.21313525390625,-0.05980711070895195,-0.9013076194554567,-0.10832825450552627
1761315703134118400,6.223118408203125,-0.03298924641013145,-1.0581729825116692,-0.08819379522707313
1761315703144100000,6.23310009765625,-0.11361994943916796,-1.1628485779948532,-0.05667414644546807
1761315703154082000,6.24308203125,-0.27879589859247206,-1.158349366879463,-0.05392935951566323
1761315703164065000,6.25306494140625,-0.46644086918532845,-1.097083435664326,-0.03737851261133328
1761315703174047200,6.263047119140625,-0.6796142487883567,-1.058706943257898,0.008981818155851215
1761315703184029200,6.273029296875,-0.9505342994391918,-1.0173822685703635,0.07341768464399501
1761315703194012200,6.28301220703125,-1.2633458648800848,-0.9379318613670766,0.14401238428913057
1761315703203994400,6.292994384765625,-1.6073136160850523,-0.9198211812674999,0.29591831657337025
1761315703213976000,6.30297607421875,-1.875850570991635,-1.075836211104691,0.5902985003266483
1761315703223959300,6.312959228515625,-1.9410528187423943,-1.2136373927287756,0.7978299285199493
1761315703233941000,6.32294091796875,-1.775301115527749,-1.1568047677859663,0.753667619253695
1761315703243923200,6.332923095703125,-1.5806266846895216,-1.0698153433799742,0.4835951253429055
1761315703253906200,6.34290625,-1.5641495971411465,-1.0623301021911202,0.15793587836455553
1761315703263888100,6.35288818359375,-1.7611200299620626,-1.0626711707137524,-0.12258224091064185
1761315703273870300,6.362870361328125,-2.1097242087960244,-0.9287637816578149,-0.27744939762065185
1761315703283853000,6.37285302734375,-2.54362532890439,-0.671198887142539,-0.2881543863072991
1761315703293835300,6.382835205078125,-2.9245342790156603,-0.3177120508335531,-0.20769535005073994
1761315703303817200,6.392817138671875,-3.060155632382631,0.08322729539349674,-0.04040923120989464
1761315703313800200,6.40280029296875,-2.852590155789256,0.4409438782267272,0.22585330335814505
1761315703323782100,6.4127822265625,-2.3973855508893727,0.7200603870756924,0.5075549698621035
1761315703333764000,6.42276416015625,-1.8305413567125797,0.8983383943863212,0.6640126289002597
1761315703343747000,6.4327470703125,-1.3277426414668558,0.9403132035456597,0.6839712749540805
1761315703353729300,6.442729248046875,-0.9349947850018739,0.9019063160009682,0.5580823206482455
1761315703363711200,6.452711181640625,-0.6814911485761403,0.7814363545365631,0.26270981965567913
1761315703373694200,6.462694091796875,-0.5634913766175508,0.6618344080783426,-0.13989514909549616
1761315703383676200,6.47267626953125,-0.5478244364082813,0.5948015838995575,-0.5372795884530991
1761315703393658000,6.482658203125,-0.4581681308805942,0.6320039179600775,-0.7756496608939021
1761315703403641300,6.492641357421875,-0.29102175843715666,0.7614595883041619,-0.7834425797924399
1761315703413623000,6.502623046875,-0.055662265989184376,0.9280850056134163,-0.6149497611761093
1761315703423605200,6.512605224609375,0.1887082159101963,1.0573295174248516,-0.3509248038012534
1761315703433588200,6.522588134765625,0.4303063104867935,1.1714843043930827,-0.14831099479850382
1761315703443570200,6.532570068359375,0.6343289999067783,1.2307580388776957,-0.10923082936843856
1761315703453552000,6.54255224609375,0.8001683814048767,1.2198166658855973,-0.2267160759336315
1761315703463535000,6.55253515625,0.9174556211799383,1.1271364824920893,-0.4418064498728141
1761315703473517000,6.56251708984375,1.0283733259230852,0.9691836164601146,-0.7078023785270751
1761315703483500300,6.572500244140625,1.1468412999153137,0.8446253627687692,-0.9492091883152722
1761315703493482200,6.582482177734375,1.2164999425530434,0.7705307835102081,-1.1913514727711676
1761315703503464200,6.592464111328125,1.224415537983179,0.7147036823481321,-1.4305834227383136
1761315703513447200,6.602447265625,1.23612584952116,0.6573430880084633,-1.5726660810738802
1761315703523429000,6.61242919921875,1.1861796230912207,0.6326856166139244,-1.6725477202787995
1761315703533411300,6.622411376953125,1.0810159518301485,0.6877581000164151,-1.7033149067252873
1761315703543394000,6.63239404296875,0.9570938040852546,0.8075804112270474,-1.6114112606622277
1761315703553376300,6.642376220703125,0.8272147937625646,0.9284791194975376,-1.4346544715695082
1761315703563358000,6.65235791015625,0.7114367895066738,1.0527449661135673,-1.1934187805645167
1761315703573341200,6.662341064453125,0.5879653081387282,1.149192539216578,-0.9572811433508992
1761315703583323100,6.6723232421875,0.563448121997714,1.1958233574882149,-0.711819139887765
1761315703593305000,6.68230517578125,0.5930863044142722,1.2024041971832513,-0.4961939466858282
1761315703603288000,6.6922880859375,0.6503197652429342,1.1310118626207113,-0.3269832255911082
1761315703613270000,6.70227001953125,0.7348182496160268,0.9987062096729874,-0.15173932527936995
1761315703623252200,6.712252197265625,0.8136702525347471,0.8637412743881344,-0.06032514323368668
1761315703633235200,6.722235107421875,0.952370867216587,0.7195444003775715,-0.025278598967567085
1761315703643217200,6.732217041015625,1.108829841428995,0.5241182743892073,0.03975673125106841
1761315703653199000,6.74219921875,1.2216244459599255,0.33816929405927654,0.08623195710219442
1761315703663182300,6.752182373046875,1.3247972356647253,0.1602864235460758,0.11973521744906902
1761315703673164000,6.7621640625,1.3810621437221764,0.040132103902101514,0.15909620911451056
1761315703683146200,6.772146240234375,1.3473299699902535,-0.06585369739681482,0.12772667286070064
1761315703693129000,6.78212890625,1.247867725241184,-0.13469386325851082,0.15963501043263822
1761315703703111200,6.792111083984375,1.1243740320414304,-0.1265818684734404,0.21745487458081914
1761315703713093000,6.802093017578125,0.9461854565799236,-0.08878580630347133,0.2668594318821095
1761315703723076000,6.812076171875,0.7732838816106319,-0.05277428946271538,0.3023595103356987
1761315703733058300,6.822058349609375,0.6302168884128332,-0.06839242209419608,0.2891099882653914
1761315703743040000,6.8320400390625,0.490658780118823,-0.1615136272534728,0.21134072081577032
1761315703753023200,6.842023193359375,0.3753390410244465,-0.2584977914512157,0.1069431568226777
1761315703763005200,6.852005126953125,0.2461947747170925,-0.3394327381238341,0.06418262237943709
1761315703772987100,6.861987060546875,0.09733692315816879,-0.4047764401718974,0.069758230554685
1761315703782970000,6.87197021484375,-0.03748188165426254,-0.44908553749769925,0.0805299826009199
1761315703792952000,6.8819521484375,-0.14471066875159738,-0.48064387432187794,0.0979516757893376
1761315703802934300,6.891934326171875,-0.2626210088610649,-0.5025700210563838,0.1379226891119033
1761315703812917200,6.901917236328125,-0.34798750824034214,-0.5354514231778681,0.1767673835519701
1761315703822899200,6.911899169921875,-0.3869727801948786,-0.568688945260644,0.18862298531215638
1761315703832881200,6.921881103515625,-0.3648328445792198,-0.619125877816975,0.2008976527346298
1761315703842864400,6.931864501953125,-0.252303612986207,-0.6504467526234686,0.22404676539283244
1761315703852846000,6.94184619140625,-0.11476152068972587,-0.6939182300813496,0.2912309076758101
1761315703862828300,6.951828369140625,-0.05616963098943233,-0.7852930299647152,0.3252394141310826
1761315703872811000,6.96181103515625,-0.050426118901371955,-0.8735944137521088,0.2912101023497991
1761315703882793200,6.971793212890625,-0.03726327046751976,-0.9557112636856734,0.2104359174631536
1761315703892775200,6.981775146484375,-0.05807751043736934,-1.040254463983327,0.10773776866593397
1761315703902758100,6.991758056640625,-0.10182312866151333,-1.1377373714834451,0.05640575956655666
1761315703912740400,7.001740234375,-0.14023907629549504,-1.2164818223744631,0.044365220560366285
1761315703922723000,7.01172314453125,-0.18687515526413917,-1.2666891839586198,0.04727495226091705
1761315703932705300,7.021705322265625,-0.2620189513146877,-1.2813434399940073,0.07947325835591182
1761315703942687200,7.031687255859375,-0.34224516519606113,-1.259977849751711,0.10379915970852598
1761315703952670200,7.041670166015625,-0.4440945973426103,-1.277577803850174,0.07706037026159465
1761315703962652200,7.051652099609375,-0.5887158342450857,-1.2676526221632958,0.05169988343054428
1761315703972634000,7.061634033203125,-0.7297434305697679,-1.244792847840488,0.06847913226326927
1761315703982617000,7.0716171875,-0.9140279848188161,-1.232687837896496,0.07041636566985399
1761315703992599300,7.081599365234375,-1.0617822590500117,-1.1547767690896986,0.03083610523054376
1761315704002581000,7.0915810546875,-1.155432602649927,-1.0617930727049707,0.01507452727407217
1761315704012564200,7.101564208984375,-1.2946242157191037,-1.032465271411836,0.015560411094874143
1761315704022546200,7.111546142578125,-1.408003342139721,-1.0381935859307647,-0.006076616499945521
1761315704032528100,7.121528076171875,-1.461845991486311,-1.0555958255000413,0.07906875094193964
1761315704042511000,7.131510986328125,-1.4669851079404352,-1.1654809723250568,0.3735376541582867
1761315704052493000,7.1414931640625,-1.3275544254183769,-1.3256839553713797,0.6365355700403451
1761315704062475300,7.151475341796875,-1.0930284611850976,-1.4376627134747801,0.7060378530725836
1761315704072458200,7.161458251953125,-0.9074082744181156,-1.4686245457105338,0.6787098472945392
1761315704082440200,7.171440185546875,-0.7721089926123619,-1.4462980014815925,0.5431621436856687
1761315704092422100,7.181422119140625,-0.7033820778667926,-1.3484987215086817,0.44549350435510277
1761315704102405000,7.191405029296875,-0.7576637031525373,-1.0764670563541352,0.3371946768734604
1761315704112387000,7.201386962890625,-0.8959428775519133,-0.7090200837537646,0.17951690145581958
1761315704122369000,7.211369140625,-1.026118824994564,-0.3820151577875018,0.060799701942875976
1761315704132352000,7.22135205078125,-1.1103531054735183,-0.12602306554690001,-0.0012337795786559582
1761315704142334200,7.231334228515625,-1.2339619494855403,0.025387246973812578,-0.019293387078121303
1761315704152316400,7.24131640625,-1.2755027511417865,0.13578779597505927,-0.01747077476084232
1761315704162299400,7.25129931640625,-1.212735037061572,0.244734492906183,0.013633169359341262
1761315704172281300,7.26128125,-1.096243331578374,0.3564167522810399,0.0895174085136503
1761315704182263300,7.27126318359375,-0.9160527686446904,0.4215650778874755,0.2489194504406303
1761315704192246300,7.281246337890625,-0.7667875053286553,0.5147906202040612,0.450108523869887
1761315704202228200,7.291228271484375,-0.5765612860709428,0.6197213594920933,0.5841894428618252
1761315704212210200,7.301210205078125,-0.42852527228891846,0.7930944974958897,0.6389853012800216
1761315704222193200,7.311193115234375,-0.29432956781089303,1.0349966895855962,0.5798945221468806
1761315704232175400,7.32117529296875,-0.18731997642219064,1.2841444688893855,0.49492681282684203
1761315704242157300,7.3311572265625,-0.12795885591506959,1.4910674097955225,0.48242374347597355
1761315704252140300,7.341140380859375,-0.07363572957515716,1.6020799532152712,0.5845858948335051
1761315704262122500,7.35112255859375,0.009932780471444129,1.5999807889789341,0.7549616045869887
1761315704272104200,7.361104248046875,0.1871744304716587,1.5435422779202461,0.882765123809874
1761315704282087400,7.37108740234375,0.40749417469799515,1.483306128144264,0.9090414285778999
1761315704292069000,7.381069091796875,0.6348199982941151,1.3921921711541712,0.837050981991738
1761315704302051300,7.39105126953125,0.8291279339075088,1.2661363723814487,0.8519380238696932
1761315704312034300,7.401034423828125,0.9750351189672947,1.107854566656053,0.9384662605047226
1761315704322016300,7.411016357421875,1.0796417408674954,0.9618860067978501,1.0470315569028257
1761315704331998500,7.42099853515625,1.1445002897471188,0.8621390998885035,1.081031003268808
1761315704341981200,7.430981201171875,1.128703585678339,0.8077312178745866,1.0102155918113886
1761315704351963400,7.44096337890625,1.0243348641872405,0.8223205919802188,0.906988733831793
1761315704361946400,7.4509462890625,0.8523276077091694,0.9228399445667862,0.8172213691450655
1761315704371928300,7.46092822265625,0.5901818151444196,1.0924652743443846,0.7803684330441057
1761315704381910300,7.47091015625,0.2866249847829342,1.2656588179975747,0.7602437827736139
1761315704391893500,7.4808935546875,0.02267535766661167,1.4336185526505112,0.7337183255501091
1761315704401875200,7.490875244140625,-0.1678419534921646,1.5427449900627135,0.6454239560253918
1761315704411857400,7.500857421875,-0.300959799605608,1.5778651110216975,0.5413267449520528
1761315704421840100,7.510840087890625,-0.3581102583259344,1.5472542841807007,0.41616760275810954
1761315704431822300,7.520822265625,-0.36274200977981086,1.498901464422047,0.3174288499779999
1761315704441804300,7.53080419921875,-0.3662807052999735,1.426352653300762,0.2752585913117975
1761315704451787300,7.540787353515625,-0.3343646410793066,1.3758023234978318,0.2613450706411153
1761315704461769200,7.550769287109375,-0.21949089218676088,1.3443816415786742,0.2613458012934774
1761315704471751200,7.560751220703125,-0.05437514878809452,1.2742851920455693,0.22581863390356302
1761315704481734400,7.570734375,0.09542144492566584,1.160544831097126,0.16527334511317313
1761315704491716400,7.58071630859375,0.23952654899954795,1.0267261432379484,0.08989603256769478
1761315704501698300,7.5906982421875,0.41650048797428607,0.9050009210154414,0.06782843153588473
1761315704511681300,7.600681396484375,0.6442804850786924,0.7834493017941713,0.1045969042237848
1761315704521663200,7.610663330078125,0.8872592203587293,0.689570994657278,0.1518172858864069
1761315704531645200,7.620645263671875,1.1271446657985449,0.6022548225149512,0.19570845006108284
1761315704541628400,7.63062841796875,1.2788187438219785,0.5044508663669228,0.2525988696057349
1761315704551610000,7.640610107421875,1.3367588916152715,0.4005161523789167,0.3156318104933947
1761315704561592300,7.65059228515625,1.3686539130479096,0.30918226902782914,0.36433446660302576
1761315704571575000,7.660574951171875,1.309504389464855,0.25950024649202824,0.39571664314270016
1761315704581557200,7.67055712890625,1.128878942245245,0.24553660306930541,0.4113195051398128
1761315704591539500,7.68053955078125,0.8845914624541997,0.23598200826048848,0.44410840667225415
1761315704601522200,7.690522216796875,0.6016618250578641,0.2206467842236161,0.45957960511371493
1761315704611504400,7.70050439453125,0.3269230929017067,0.2176654303252697,0.43579665153138336
1761315704621486000,7.710486083984375,0.10197101269960403,0.22732962298840284,0.39657786308191717
1761315704631469300,7.72046923828125,-0.06985153486132621,0.18361527668535707,0.37451793389990923
1761315704641451300,7.730451171875,-0.14841244587898253,0.10759469780027865,0.32730851202271877
1761315704651433200,7.74043310546875,-0.13991875829994677,0.0025078911677002907,0.26408742815181613
1761315704661416200,7.750416259765625,-0.039108021551370616,-0.13842442808896302,0.16669256426133214
1761315704671398400,7.7603984375,0.08622808464467525,-0.26506518714278937,0.03466938151679933
1761315704681380400,7.77038037109375,0.1711620378255844,-0.3848787305250764,-0.06991364031210541
1761315704691363300,7.78036328125,0.14858137270510197,-0.5299535564139485,-0.10790390987992286
1761315704701345300,7.79034521484375,0.055556467527151106,-0.6157938107848167,-0.04910203069075942
1761315704711327200,7.8003271484375,-0.06409165616035462,-0.643999622310698,0.014845979215204716
1761315704721310500,7.810310546875,-0.1102811604052782,-0.6595312457025051,0.04936075469218194
1761315704731292200,7.820292236328125,-0.09912146848738193,-0.763231274151802,0.05117072672359645
1761315704741274400,7.8302744140625,-0.08069792304635047,-0.8787810226097702,0.0010482669439166783
1761315704751257000,7.840257080078125,-0.08783668888509273,-0.9926841729044914,-0.013030417693220078
1761315704761239300,7.8502392578125,-0.10952771168947219,-1.0854606562793254,0.0414322267152369
1761315704771221500,7.860221435546875,-0.14544599728882313,-1.132301025648415,0.11658526551816611
1761315704781204200,7.870204345703125,-0.161035780608654,-1.1715095849648118,0.13264167996905743
1761315704791186400,7.8801865234375,-0.20250936224758623,-1.214430442802608,0.1459279355868697
1761315704801168100,7.890168212890625,-0.24505612607598304,-1.2993167574495077,0.11453205931540578
1761315704811151400,7.9001513671875,-0.3293213862150907,-1.368765264467895,0.06477087059617043
1761315704821133300,7.91013330078125,-0.46153030079007146,-1.3799611967429517,0.010878098497539759
1761315704831116300,7.9201162109375,-0.6495476118266582,-1.315375911846757,-0.020872180702164768
1761315704841098200,7.93009814453125,-0.8961994826614856,-1.1525491561681032,-0.02758817281788215
1761315704851080200,7.940080078125,-1.1510527801305055,-0.9287943229265511,0.040582916409522295
1761315704861063200,7.950063232421875,-1.3974778564721344,-0.7831210927531123,0.25099779108464715
1761315704871045400,7.96004541015625,-1.6399825444996357,-0.9169821584492921,0.726544926789403
1761315704881027300,7.97002734375,-1.7392215018868444,-1.1731078139416873,1.1138047802973539
1761315704891010300,7.98001025390625,-1.6458850465416908,-1.2296024391017852,1.0848900167845188
1761315704900992500,7.989992431640625,-1.5524761104822158,-1.1669582052707672,0.8281844425123185
1761315704910974200,7.99997412109375,-1.540038069191575,-1.15192079513669,0.6657859221830964
1761315704920957400,8.00995751953125,-1.6268401543319224,-1.1316050062082708,0.6620313188899308
1761315704930939100,8.019939208984376,-1.7240753706812857,-0.9659487261921167,0.6684544838052242
1761315704940921300,8.02992138671875,-1.8121371004939077,-0.6391793625473976,0.5597972713399678
1761315704950904300,8.039904296875,-1.8353788598716259,-0.23657865897938607,0.3302330942325294
1761315704960886300,8.04988623046875,-1.7910738541990519,0.1796250380054116,0.14746424177605658
1761315704970868200,8.0598681640625,-1.701972844466567,0.47257411124333737,0.1510376067508012
1761315704980851200,8.069851318359374,-1.5401391914784908,0.6172711898609996,0.3159260441996157
1761315704990833400,8.07983349609375,-1.2793833919674158,0.71986895615682,0.5461822952244431
1761315705000815400,8.0898154296875,-0.8528449095815419,0.8371747545018792,0.7636366400822997
1761315705010798300,8.09979833984375,-0.39037995828986166,0.9382087786123156,0.9495077328704297
1761315705020780300,8.1097802734375,0.03971475527286529,0.9984750312656163,1.058552044957131
1761315705030762200,8.11976220703125,0.3838520178258419,0.9994342316865921,1.1047779356896876
1761315705040745200,8.1297451171875,0.6048334408313035,0.946770270730555,1.1402560763061045
1761315705050727400,8.1397275390625,0.7431336580187082,0.8668266731828451,1.1414628217473626
1761315705060709000,8.149709228515626,0.8215794182240963,0.8572282392323016,1.0600798390462993
1761315705070692400,8.1596923828125,0.8362064939916133,0.9488090830817818,0.9316950128041207
1761315705080674000,8.169674072265625,0.7853829002052545,1.0434984143406152,0.8574041072558611
1761315705090656300,8.17965625,0.7093862867176532,1.0790133798360824,0.8280832471601665
1761315705100639200,8.18963916015625,0.6539993305385112,1.1004635796219109,0.8148241718102246
1761315705110621200,8.19962109375,0.5903460657954216,1.099842525114119,0.7914616355970502
1761315705120603400,8.209603271484376,0.5812748705893754,1.0878370300218463,0.7649344248078763
1761315705130586400,8.21958642578125,0.574520720154047,1.0835092299506068,0.7223272360291332
1761315705140568600,8.229568603515625,0.5516513012200593,1.0775228490173816,0.6550908521022647
1761315705150550500,8.239550537109375,0.51013504948318,1.0616077792659402,0.5429140141434967
1761315705160533500,8.249533447265625,0.43560207880735397,1.0252806206047533,0.3731755063150078
1761315705170515500,8.259515380859375,0.29709961704611776,0.9980205654963851,0.16423048499673604
1761315705180497700,8.26949755859375,0.0858949071675539,0.9863891644135117,-0.03532115995641798
1761315705190480400,8.27948046875,-0.16539046868681906,1.0098258618414402,-0.21525877104233948
1761315705200462600,8.289462646484376,-0.4192220218926668,1.120148523300886,-0.2530548697449267
1761315705210444500,8.299444580078125,-0.6299567761719227,1.302900461155176,-0.21236319573130458
1761315705220427500,8.309427490234375,-0.7703519198119639,1.515395503105223,-0.11986242402531205
1761315705230409700,8.31940966796875,-0.821540839779377,1.6975667184621095,0.0262258532224223
1761315705240392400,8.329392333984375,-0.7634872947394847,1.7910270924478768,0.19025595680885016
1761315705250374700,8.339374755859374,-0.6226233645439148,1.827312457793951,0.3639904754709452
1761315705260356400,8.3493564453125,-0.39522506023347376,1.7889669450476764,0.49218405345734206
1761315705270339600,8.359339599609376,-0.14402677814066409,1.6430118291929363,0.5037110808502883
1761315705280321500,8.369321533203125,0.10890578039884567,1.431313782839477,0.39980734652243555
1761315705290303500,8.379303466796875,0.38341245736479757,1.1571306387394666,0.3139304864682257
1761315705300286500,8.389286376953125,0.6399561921387911,0.8968804506629705,0.2610955345931463
1761315705310268700,8.3992685546875,0.8735159416884183,0.6635343438640237,0.1787654985666275
1761315705320250600,8.409250732421874,1.028220765709877,0.491943851493299,0.12091049003982916
1761315705330233600,8.419233642578124,1.137631573021412,0.3599140928775072,0.05967069791294634
1761315705340215600,8.429215576171876,1.1885410915255545,0.24406273112446067,-0.00009277458367869258
1761315705350197500,8.439197509765625,1.1674012728631495,0.13675766392052172,-0.033672662097029384
1761315705360180700,8.4491806640625,1.0845599080473185,0.07328793905079364,-0.0744332731610164
1761315705370162400,8.459162353515625,0.9560638765156269,0.07206950317174196,-0.09645743690989911
1761315705380144600,8.46914453125,0.7742635402977466,0.08841799590438604,-0.0671656750445254
1761315705390127400,8.47912744140625,0.6262982536643743,0.12241700387895106,-0.013426796599663794
1761315705400109600,8.489109619140624,0.5108703780204057,0.15602029053419827,0.027294377503078428
1761315705410091500,8.499091552734376,0.4207634061157703,0.18297084130197763,0.06622531175476033
1761315705420074500,8.509074462890625,0.30718145059943197,0.17705723334401846,0.1633075797318481
1761315705430056400,8.519056396484375,0.24664661013782022,0.17484978642761706,0.2792091373021714
1761315705440038400,8.529038330078125,0.24580899026989936,0.17328209871947764,0.3809393087169155
1761315705450021600,8.539021728515625,0.2637912216842174,0.13516308820545672,0.44683257093913853
1761315705460003600,8.549003662109374,0.2851461444020271,0.07509995690882205,0.47493477596007283
1761315705469985500,8.558985595703126,0.33104221865832806,-0.007876432463526725,0.530606321234256
1761315705479968500,8.568968505859376,0.41087680287361145,-0.09568827916830777,0.5715961744768545
1761315705489950500,8.578950439453125,0.44418169110417366,-0.1576075597256422,0.6103012777831405
1761315705499932400,8.588932373046875,0.40357437090575693,-0.170670454916358,0.6717008453153074
1761315705509915600,8.59891552734375,0.3447831592410803,-0.19391542916446924,0.7348661804109812
1761315705519897300,8.6088974609375,0.3325122912108898,-0.22794424775540828,0.7409735573753714
1761315705529879600,8.618879638671874,0.34331250216662884,-0.30272651701718567,0.6931411812942475
1761315705539862500,8.628862548828126,0.37831075031161304,-0.3721069272354245,0.5895877217087895
1761315705549844500,8.638844482421876,0.38352351652383804,-0.44659050581157206,0.4530926177145913
1761315705559826700,8.64882666015625,0.33626083008944985,-0.52144160252586,0.33653142719175666
1761315705569809400,8.658809326171875,0.24196342075765132,-0.5794535003811121,0.2903420508109964
1761315705579791600,8.66879150390625,0.1459878490805626,-0.6057729136385023,0.288014320249483
1761315705589773300,8.678773193359374,0.04350713329315185,-0.5904536178231239,0.25575448409244417
1761315705599756500,8.688756591796874,-0.011747136417031288,-0.5846650975495576,0.25536088166497645
1761315705609738500,8.698738525390626,-0.06183598618805408,-0.5657314106293022,0.27469335864447053
1761315705619720400,8.708720458984375,-0.06642623658776282,-0.5289328350640833,0.2912217745212838
1761315705629703400,8.718703369140625,-0.04655424590408802,-0.5008605867899955,0.27916012879498303
1761315705639685600,8.728685546875,-0.010370587366819381,-0.5009390588536858,0.25314927003011106
1761315705649668400,8.73866845703125,-0.008196750459074973,-0.5214969859749078,0.18088117554634808
1761315705659650600,8.748650634765625,-0.009822305834293365,-0.5476229224868119,0.07005071069523691
1761315705669632500,8.758632568359374,-0.025565233889222144,-0.5849094276994466,-0.0038461540341377257
1761315705679615500,8.768615478515626,-0.026818448820710182,-0.5922539452433586,0.003985306776501238
1761315705689597700,8.77859765625,-0.03278407922685146,-0.5789731695182622,-0.005709061829186976
1761315705699579400,8.788579345703125,-0.11407061581611633,-0.5900768934652209,-0.05206793129164725
1761315705709562600,8.798562744140625,-0.2224748764336109,-0.5844597842358052,-0.08084920461792498
1761315705719544600,8.808544677734375,-0.3687368662804365,-0.567580984018743,-0.08789134168177842
1761315705729526500,8.818526611328124,-0.546495233631134,-0.5503131844840944,-0.11560056532975285
1761315705739509500,8.828509521484374,-0.7187795534849166,-0.560123799880594,-0.09580814268831163
1761315705749491500,8.838491455078126,-0.8695400237947702,-0.49246641406267877,-0.04935118314623833
1761315705759473700,8.8484736328125,-1.0220511371642351,-0.4169491085246205,0.007856047262623905
1761315705769456600,8.85845654296875,-1.1764958489447832,-0.4006134752735495,0.11628836493082344
1761315705779438600,8.8684384765625,-1.3231249185383318,-0.6070500939674676,0.5069796176595613
1761315705789420500,8.878420654296875,-1.2820686855286358,-0.9820442670769989,0.9585324585862457
1761315705799403500,8.888403564453125,-1.0301876818686724,-1.0685285184398292,1.0175421353071927
1761315705809385500,8.898385498046874,-0.8014543295621871,-0.9294093860849738,0.8211546169407665
1761315705819367700,8.90836767578125,-0.7987567610412836,-0.9310444399408996,0.6965531086295843
1761315705829350400,8.918350341796875,-0.9550655131280421,-1.0610637355171144,0.6213147661633789
1761315705839332600,8.92833251953125,-1.218455168274045,-1.0182320172674952,0.4147219339944422
1761315705849314600,8.938314453125,-1.623493181991577,-0.741757693490386,0.05449084758963436
1761315705859297500,8.948297607421875,-2.0586615455567836,-0.31423253815472124,-0.23804891419503837
1761315705869279700,8.95827978515625,-2.3482360277950765,0.10823065761625766,-0.2699095767003484
1761315705879261400,8.968261474609376,-2.4508991144120693,0.42287747566029427,-0.06365238796025514
1761315705889244700,8.97824462890625,-2.38181739487946,0.644684097443521,0.21239117971677332
1761315705899226400,8.988226318359375,-1.9889251615077257,0.8791727984063327,0.40694114392511543
1761315705909208600,8.99820849609375,-1.3655582851201296,1.103543863850087,0.5634746446784585
1761315705919191600,9.008191650390625,-0.7567664620518684,1.1777595852702856,0.6881698956876993
1761315705929173500,9.018173583984375,-0.2756517553478479,1.1242141653046012,0.7816201866708695
1761315705939155500,9.028155517578124,0.07705167549848556,1.058177366425842,0.8762351375192403
1761315705949138700,9.038138671875,0.36124095756709573,1.0231704965829849,0.9563082066655159
1761315705959120600,9.04812060546875,0.5728191769331693,1.0129058538086713,1.0245930767320095
1761315705969102600,9.0581025390625,0.73201488263309,0.9914721667662262,1.1282328263614325
1761315705979085600,9.06808544921875,0.8033183698683977,0.9652340020515024,1.1199819345623254
1761315705989067500,9.078067626953125,0.7870429423719644,0.9562428863443434,1.0331392251506448
1761315705999049500,9.088049560546875,0.8083008344560861,0.9162041598141193,1.0036497304897756
1761315706009032400,9.098032470703124,0.9297253201663493,0.9042918959632515,0.9986094713002442
1761315706019014700,9.1080146484375,0.9439432306110859,0.9263229643769562,0.9926873147096484
1761315706028997400,9.117997314453126,0.5549538498967885,0.820416950315982,1.0432016233511268
1761315706038979600,9.1279794921875,0.6691711807072163,0.6611670302107929,1.3140053541459142
1761315706048961500,9.13796142578125,0.7356839265346526,0.7056527992777526,1.3674268554709852
1761315706058944500,9.147944580078125,0.9115881904512644,0.9482830133810639,1.2857660787418483
1761315706068926500,9.157926513671875,0.9338023603469133,1.247295478311181,1.3138771977216004
1761315706078908400,9.167908447265624,0.8080676102221012,1.3276017716914414,1.4650541398778556
1761315706088891400,9.177891357421874,0.710904874587059,1.299360888852179,1.6672969601437448
1761315706098873600,9.18787353515625,0.6075386081367731,1.3821139908626674,1.7772559028573334
