time,seconds_elapsed,z,y,x
1761317226610509000,0.075509033203125,0.4391799372941255,-1.0212578678946942,-0.2460853595258668
1761317226620491500,0.085491455078125,0.6657640026122331,-1.1503295804224907,-0.17083623993732033
1761317226630474200,0.09547412109375,0.8686772694855928,-1.2356368969604372,-0.14277422079630195
1761317226640457500,0.10545751953125,1.042286700463295,-1.309816231893003,-0.11564798466805368
1761317226650440400,0.1154404296875,1.1045224996238947,-1.3998466314300895,-0.035881533785536886
1761317226660423200,0.125423095703125,1.0876911918103693,-1.4551660753309725,-0.014395349370874463
1761317226670406400,0.135406494140625,1.0425503198355435,-1.467842747683078,-0.05467124565783888
1761317226680389400,0.145389404296875,0.9412456620901822,-1.4455217564120888,-0.05385876023117452
1761317226690372400,0.155372314453125,0.7331190444827079,-1.448782365643233,0.02962714956589043
1761317226700355300,0.165355224609375,0.4848211600065231,-1.4905971619352698,0.09492774312458932
1761317226710338300,0.17533837890625,0.3239192349106073,-1.4584098795577882,0.07558233359828591
1761317226720321500,0.185321533203125,0.18362696712315082,-1.4347612929448486,0.0484329357901588
1761317226730304500,0.195304443359375,0.03518471062779426,-1.4823761538177729,0.02049198574554175
1761317226740287200,0.205287353515625,-0.11633914526998997,-1.5548676817938685,-0.030904439492709934
1761317226750270500,0.2152705078125,-0.32790041350126264,-1.6029576128326355,-0.04103427690621465
1761317226760253400,0.22525341796875,-0.5280196657419204,-1.6468594445317983,-0.027200561739783732
1761317226770236400,0.235236328125,-0.7081997072815894,-1.68545221003741,-0.015039857819490134
1761317226780219400,0.245219482421875,-0.9076023356854915,-1.698940344902873,-0.04356814276538789
1761317226790201300,0.255201416015625,-1.1292968753963708,-1.665181575424969,-0.11286222640704363
1761317226800184600,0.2651845703125,-1.4180226318508387,-1.5788449158392845,-0.16978819218911229
1761317226810167300,0.275167236328125,-1.7754378936499355,-1.5296230581611394,-0.19287492540189996
1761317226820150300,0.285150390625,-2.093378054150939,-1.5279720760837197,-0.22550492831189184
1761317226830133500,0.295133544921875,-2.271808621674776,-1.5998820047795772,-0.19742727321032433
1761317226840116500,0.305116455078125,-2.202251101323962,-1.689941338150203,-0.1866528360166587
1761317226850099200,0.31509912109375,-2.0461013391911984,-1.6640768290534615,-0.26093437094837424
1761317226860082400,0.32508251953125,-1.9304086751312017,-1.6331725722238422,-0.38213695753626525
1761317226870065400,0.3350654296875,-1.9369880535215138,-1.6414099469542502,-0.3876017257481813
1761317226880048600,0.345048583984375,-2.00337103548944,-1.625513728033751,-0.3127711603652686
1761317226890031400,0.35503125,-2.1074562638640404,-1.4935411064326762,-0.3288514671484008
1761317226900014300,0.365014404296875,-2.251444463559985,-1.2919060428015887,-0.4221001346122473
1761317226909997600,0.37499755859375,-2.4386674093484877,-1.0411306622959673,-0.49068175913561135
1761317226919980300,0.384980224609375,-2.6786218283712864,-0.7888381552256644,-0.5677484130075201
1761317226929963300,0.39496337890625,-2.9663989057987927,-0.5285667051654309,-0.6508072564989328
1761317226939946500,0.404946533203125,-3.149862791314721,-0.2804529450844973,-0.6897571648791432
1761317226949929500,0.414929443359375,-3.186132959091663,-0.09011033290550112,-0.6749993023388088
1761317226959912200,0.424912109375,-3.0180063434392213,0.05768938790261745,-0.6035068684026599
1761317226969895400,0.4348955078125,-2.643101602178812,0.17158201680332422,-0.5203325087727978
1761317226979878400,0.44487841796875,-2.132351051145792,0.264846722086519,-0.4325859458565712
1761317226989861400,0.454861328125,-1.6304560067415237,0.34239005355946717,-0.3644871729467064
1761317226999844400,0.46484423828125,-1.0940864458054302,0.49826516346931454,-0.33538379152659326
1761317227009827300,0.474827392578125,-0.6317115108847617,0.6515010839819908,-0.3522233922444284
1761317227019809500,0.4848095703125,-0.3271171541690826,0.6940187678463756,-0.2825736452992074
1761317227029792300,0.494792236328125,-0.14032090936005115,0.6597787907227873,-0.1320185979009606
1761317227039775500,0.504775390625,0.057119479060173034,0.6727893712043762,-0.023525983146578073
1761317227049758500,0.514758544921875,0.30901684933304785,0.6908018516264856,0.01566840151399374
1761317227059741400,0.524741455078125,0.5715513489544392,0.677978172019124,0.08981372457910329
1761317227069724400,0.534724365234375,0.8474556177586317,0.6934573345713317,0.2017364964452572
1761317227079707400,0.544707275390625,1.0682774662882089,0.7333196816213429,0.3074488328313455
1761317227089690400,0.5546904296875,1.1905126838594675,0.7663834545724093,0.38246914863269776
1761317227099673600,0.564673583984375,1.168385023203492,0.8187232981406152,0.4123788049343973
1761317227109656300,0.57465625,1.0354548086166382,0.8929615236535667,0.4124766392856836
1761317227119639300,0.584639404296875,0.8466893095612525,0.9603691724941134,0.44139856319166715
1761317227129622500,0.59462255859375,0.6612491555362939,1.0002423331990837,0.4297028281683102
1761317227139605200,0.604605224609375,0.5160509955286979,1.078752683073282,0.45251573114208876
1761317227149588200,0.614588134765625,0.45831484587490556,1.1729299731567502,0.5783435663778335
1761317227159571500,0.624571533203125,0.4428279384076595,1.2758604785382748,0.7408487619519233
1761317227169554400,0.634554443359375,0.4821417116641998,1.371771752807498,0.8897302135821431
1761317227179537400,0.644537353515625,0.5629542010009289,1.4231851291805504,0.9964822500132023
1761317227189520400,0.654520263671875,0.6582867985993623,1.4508295074313877,1.0333435886163265
1761317227199503400,0.66450341796875,0.7253747139662504,1.4436501173213123,1.0261101302314548
1761317227209486600,0.674486572265625,0.7784078004956245,1.4346455576106905,0.981963895317167
1761317227219469300,0.68446923828125,0.882250452286005,1.41160458150208,0.9131665456838906
1761317227229451500,0.694451416015625,1.0111807835817337,1.3677084488913416,0.8818187828704714
1761317227239434500,0.7044345703125,1.1240098749041556,1.3371715640693902,0.900473872045055
1761317227249417200,0.714417236328125,1.205455985969305,1.3013672602385282,0.8993966712675988
1761317227259400400,0.724400390625,1.283045421606302,1.2681681704699992,0.8653427182354032
1761317227269383400,0.734383544921875,1.330377666145563,1.2128680157914757,0.7858833970732987
1761317227279366400,0.744366455078125,1.3967881206423043,1.1599693692967294,0.6907497561130672
1761317227289349400,0.754349365234375,1.4087018457978964,1.0793041794762015,0.6222982973080128
1761317227299332400,0.764332275390625,1.4427397244781255,1.004887528656423,0.5280892238467931
1761317227309315300,0.7743154296875,1.5422399631500243,0.991261738885939,0.47396059716567396
1761317227319298600,0.784298583984375,1.6158955664694308,0.9877961086019873,0.4535639250207692
1761317227329281300,0.79428125,1.5875059228092432,0.9213812701910734,0.5210652434941381
1761317227339264500,0.804264404296875,1.4308721765518189,0.870129806381464,0.6121529700644314
1761317227349247500,0.81424755859375,1.2484142532080411,0.8236009871795773,0.6000123773504048
1761317227359230200,0.824230224609375,1.0322837773650884,0.7167167757362127,0.5375440846081823
1761317227369213400,0.83421337890625,0.8059732682913542,0.5567977241978049,0.5015867456400767
1761317227379196400,0.844196533203125,0.6322580388516187,0.44355888303071256,0.505171106932871
1761317227389179400,0.854179443359375,0.5387812982529402,0.3753378719806671,0.5996258987834677
1761317227399162400,0.864162353515625,0.5448246700704097,0.3559656475126743,0.7171335398435592
1761317227409145300,0.874145263671875,0.64038698477149,0.33078795163631436,0.8655121565181761
1761317227419128300,0.88412841796875,0.7111258238613605,0.28187428312450646,0.9594454817779362
1761317227429111600,0.894111572265625,0.673822805905342,0.11915303364694117,0.9266411634806543
1761317227439094300,0.90409423828125,0.502535095873475,-0.08905863189548253,0.8102088600344955
1761317227449077200,0.9140771484375,0.35223873594403265,-0.2459025137722492,0.7381362150575965
1761317227459059500,0.9240595703125,0.11420739393830298,-0.37615064966827627,0.6720607646688819
1761317227469042200,0.934042236328125,-0.2294856319785118,-0.5077510769560932,0.5874651035316288
1761317227479025400,0.944025390625,-0.5331260489702224,-0.6184548466876149,0.46841666277032346
1761317227489008400,0.95400830078125,-0.7124702242076396,-0.6828112912639975,0.2740788800079375
1761317227498991600,0.96399169921875,-0.7770020253509282,-0.7335629888579249,0.12697313281334935
1761317227508974300,0.973974365234375,-0.8910498448133468,-0.7874258042097091,-0.007989099057763814
1761317227518957300,0.983957275390625,-1.01916944424808,-0.8120879517793655,-0.13693017094321547
1761317227528940500,0.9939404296875,-1.1515659903496502,-0.765403942015767,-0.21448300089687108
1761317227538923500,1.003923583984375,-1.3680495174139737,-0.7003133379459381,-0.2542493402265012
1761317227548906200,1.01390625,-1.6611071655929088,-0.7683519781664013,-0.12126505736485123
1761317227558889500,1.023889404296875,-1.8389771766245364,-1.0222948827922345,0.21618279055207967
1761317227568872400,1.03387255859375,-1.7913374735713004,-1.1618620511755346,0.3644588236350566
1761317227578855400,1.04385546875,-1.5677403151094913,-1.0992910287111997,0.19979966489747167
1761317227588838400,1.05383837890625,-1.3873504302114248,-1.1214677892059086,-0.05300685610957443
1761317227598821400,1.0638212890625,-1.423081668806076,-1.2188742704689501,-0.28634872512482107
1761317227608804400,1.073804443359375,-1.6123808363467453,-1.1701891500160098,-0.5796951271172612
1761317227618787800,1.083787841796875,-1.9690812278747558,-0.9665843937471509,-0.8192643462147563
1761317227628770600,1.0937705078125,-2.4707874717086553,-0.6065989891991019,-0.9708644091539085
1761317227638753500,1.10375341796875,-2.892497218763828,-0.14081716844439507,-1.080650406453386
1761317227648736800,1.11373681640625,-3.0798820771157738,0.23187501133307814,-1.0289890466686338
1761317227658719500,1.123719482421875,-2.9898394026190043,0.43676469284594055,-0.8712584450852126
1761317227668702700,1.13370263671875,-2.6057705271720883,0.5408231793440879,-0.6906842896614224
1761317227678684700,1.1436845703125,-2.0086510217189786,0.5851179558835923,-0.5814044883184135
1761317227688667600,1.153667724609375,-1.3269728261381386,0.6437006393641234,-0.47603645359165964
1761317227698650600,1.163650634765625,-0.6952139689803123,0.6615684506185352,-0.4151717966537922
1761317227708633600,1.173633544921875,-0.23966215807795524,0.5596190652288496,-0.33431239943541585
1761317227718616800,1.183616943359375,0.10987784030139446,0.43397535438835616,-0.2524083154696971
1761317227728599600,1.193599609375,0.4821650925397873,0.36432562570944427,-0.2326774137571454
1761317227738582500,1.20358251953125,0.8255424766361713,0.32059666635915635,-0.2652654589552432
1761317227748565800,1.213565673828125,1.0157634351968765,0.22746289397925137,-0.3345457332672551
1761317227758548700,1.223548828125,1.1152981606602668,0.18361454603299499,-0.5202165542429312
1761317227768531500,1.233531494140625,1.1184785442620515,0.23238339924663304,-0.7567789562072604
1761317227778514700,1.2435146484375,0.8721627735137939,0.31921412595957516,-1.0387536309663206
1761317227788497700,1.25349755859375,0.5601923350721597,0.4466419437378645,-1.2883861981123685
1761317227798480600,1.263480712890625,0.32037703225910663,0.5193462376818061,-1.5319219827532768
1761317227808463600,1.273463623046875,0.23767770626246928,0.5428296968609094,-1.753796701336652
1761317227818446600,1.283446533203125,0.30708617353141304,0.5467381024762987,-1.8892619873590766
1761317227828429800,1.293429931640625,0.47456163179874417,0.5688026347681879,-1.8620213676035402
1761317227838412800,1.303412841796875,0.6403495753705502,0.629717414458096,-1.6898367087319492
1761317227848395500,1.3133955078125,0.8092009981662035,0.7342150230258703,-1.4461908878453076
1761317227858378800,1.323378662109375,0.9195967248618602,0.9033969929501414,-1.1203815283391625
1761317227868361700,1.33336181640625,0.8896627743691206,1.066464571647346,-0.7790813889082521
1761317227878344400,1.343344482421875,0.7534294265836476,1.1988000352114438,-0.43517201682701706
1761317227888327700,1.35332763671875,0.5510042354881763,1.3342714587137103,-0.17385989860743284
1761317227898310700,1.363310546875,0.3587801204115152,1.410263396026194,-0.010849822251126169
1761317227908292600,1.373292724609375,0.26810791583955285,1.4548773215174675,0.10164178074523805
1761317227918275600,1.383275634765625,0.3260772897273302,1.4638012172073125,0.09561915945485233
1761317227928258600,1.393258544921875,0.5272065957933664,1.3657915093541144,0.05458038903661072
1761317227938241800,1.40324169921875,0.8542506847262382,1.2428332382053136,0.08171933851595968
1761317227948224500,1.413224609375,1.3059224393248556,1.1276111142665146,0.1172797871209681
1761317227958207500,1.42320751953125,1.7660533947110175,0.9826201672688126,0.1632202485082671
1761317227968190700,1.433190673828125,2.1560820553451774,0.7847802581369876,0.24176289321687072
1761317227978173700,1.443173583984375,2.5289801329582926,0.6167264154598117,0.34843945325892417
1761317227988156700,1.45315673828125,2.8040707472920414,0.5205030065014958,0.4623818030528724
1761317227998139600,1.4631396484375,2.8892233116596935,0.4320353262364864,0.6027664252988993
1761317228008122600,1.47312255859375,2.705606865930557,0.321180165335536,0.6456416904293001
1761317228018105900,1.48310595703125,2.3937942483991383,0.2423345921576023,0.5816038833480328
1761317228028088600,1.493088623046875,2.032268628671765,0.17796441131681204,0.4465061154637485
1761317228038071600,1.503071533203125,1.676597580191493,0.1051727313503623,0.31779366470240056
1761317228048054800,1.5130546875,1.3893991794347762,0.036165538358688354,0.23323731266222894
1761317228058037800,1.523037841796875,1.204549392518401,-0.06284896262288094,0.12038564418181777
1761317228068020500,1.5330205078125,1.0815724166691303,-0.14267711709737776,0.0031483810283243654
1761317228078003700,1.543003662109375,0.9542132802128791,-0.2918012183770537,-0.07129329463485629
1761317228087986700,1.552986572265625,0.7954518742769956,-0.4668652320772409,-0.11342928570527583
1761317228097969400,1.562969482421875,0.6687801355630159,-0.6048167819574475,-0.08257222901824861
1761317228107952600,1.57295263671875,0.5444394701451063,-0.7705918660476804,-0.005172032343037426
1761317228117935600,1.582935546875,0.33351240816414357,-1.0268056382149457,0.011987703707255423
1761317228127917800,1.592917724609375,0.09957681103944778,-1.250835050614178,0.00915131123755127
1761317228137900500,1.602900634765625,-0.082718615218997,-1.4029352450951933,0.0885682910952717
1761317228147883800,1.6128837890625,-0.25291969905793665,-1.5913991308555007,0.2101671835243702
1761317228157866800,1.62286669921875,-0.42831309084296226,-1.7927435409769414,0.3302204174140468
1761317228167849500,1.632849365234375,-0.6044195993334055,-1.943280139403045,0.3768008572053164
1761317228177832700,1.642832763671875,-0.7575485523402691,-2.0356062486618756,0.3353166811071336
1761317228187815700,1.652815673828125,-1.0274807609975338,-2.0806430757403374,0.2798431608893908
1761317228197798700,1.662798583984375,-1.3923136055767535,-2.0313564822629093,0.178078429617919
1761317228207781600,1.67278173828125,-1.7641770794451235,-1.878946783441305,0.05583972318163141
1761317228217764600,1.6827646484375,-2.1453911499828098,-1.6889561265051365,-0.01833920989213511
1761317228227747600,1.69274755859375,-2.5281553725719452,-1.4886042345523833,-0.013435710558481515
1761317228237730800,1.702730712890625,-2.9092069460242986,-1.409049344061315,0.20908022853787986
1761317228247713500,1.712713623046875,-3.1683027033686635,-1.5361340474903582,0.6780590552356094
1761317228257696500,1.722696533203125,-3.1610616461992262,-1.564421107558906,0.9901951325677335
1761317228267679700,1.7326796875,-3.0341560987293716,-1.5001441579595207,1.041722856035456
1761317228277662700,1.742662841796875,-2.933212675511837,-1.558423036187887,1.0551610873445867
1761317228287645700,1.752645751953125,-3.0093460671216246,-1.6837028821520506,1.001778748986125
1761317228297628700,1.762628662109375,-3.239229758507013,-1.6678208378873765,0.7151081714957952
1761317228307611600,1.772611572265625,-3.5251340277999637,-1.4509941964738071,0.3627245471883565
1761317228317595000,1.782594970703125,-3.741664901137352,-1.0549895301699639,0.0796948834836483
1761317228327577600,1.79257763671875,-3.850506384128332,-0.6149976919710636,-0.05218722855607048
1761317228337560600,1.802560546875,-3.828922328829765,-0.19023221060708165,0.02238201900953427
1761317228347543800,1.812543701171875,-3.5391479401051997,0.18571940935775635,0.22732832608046008
1761317228357525500,1.822525390625,-2.9414363139778374,0.4976248197391629,0.49063079613335425
1761317228367508700,1.8325087890625,-2.098909384793043,0.7334145202979445,0.6703067606084049
1761317228377491700,1.84249169921875,-1.196690495711565,0.894234904590249,0.7937599026020615
1761317228387474400,1.852474365234375,-0.32589199628829957,0.935412425892055,0.8497956050135195
1761317228397457700,1.862457763671875,0.477588870665431,0.8626791981145739,0.9997937126487493
1761317228407440600,1.872440673828125,1.2161474758535622,0.735910721027851,1.1752077088303863
1761317228417423600,1.882423583984375,1.86825120190382,0.6230825064882636,1.3365604464337228
1761317228427406600,1.892406494140625,2.338913488176465,0.5332783169224858,1.4704427010484038
1761317228437389600,1.9023896484375,2.622502466264367,0.4889926004722714,1.5360349710300565
1761317228447372800,1.912372802734375,2.6745857047230004,0.4812289807334542,1.5802527368105947
1761317228457355800,1.922355712890625,2.498779640483856,0.519670939591527,1.5828377848677335
1761317228467338500,1.93233837890625,2.2209300828307867,0.6375640363052487,1.525253318644315
1761317228477321700,1.94232177734375,1.867806965267658,0.8081523658961057,1.4264271798416972
1761317228487304700,1.9523046875,1.4874872132211923,0.9364099124968052,1.2929440075471996
1761317228497287700,1.96228759765625,1.162130054461956,1.0315618928313255,1.1265454577963798
1761317228507270700,1.972270751953125,0.9065069416642189,1.1155001129731534,0.9249670197233557
1761317228517253600,1.982253662109375,0.584897737261653,1.165324758850038,0.7029762004796415
1761317228527236600,1.992236572265625,0.134828741684556,1.2317135860368609,0.5040361480861902
1761317228537219800,2.0022197265625,-0.3335094855546951,1.3956553172200918,0.3101444285908714
1761317228547202600,2.01220263671875,-0.8018406985312699,1.6198048488676546,0.20701233622264115
1761317228557185500,2.022185546875,-1.2085223878026008,1.829817134091258,0.17464432698339222
1761317228567168800,2.032168701171875,-1.485395209378004,2.039811299136281,0.22678422753270713
1761317228577151500,2.0421513671875,-1.5843828223526477,2.2132067951023577,0.30128941515246405
1761317228587133700,2.0521337890625,-1.482041807296872,2.378600186398625,0.3810376179922372
1761317228597116700,2.06211669921875,-1.1561305217862128,2.483699267990887,0.45707255419623105
1761317228607099600,2.072099609375,-0.6478676959156989,2.4300515566945076,0.45322625403162087
1761317228617082600,2.08208251953125,-0.0013999299257993697,2.2867896254464983,0.3919899507697671
1761317228627065900,2.09206591796875,0.6781488524109125,2.125949951931834,0.323310199634172
1761317228637048800,2.102048828125,1.2837760739684103,1.961210348369181,0.2467949325673282
1761317228647032000,2.112031982421875,1.7941911094367502,1.7740554993808269,0.22911393085559828
1761317228657015000,2.12201513671875,2.1792145091295243,1.5934098861560224,0.2291531668874435
1761317228666998000,2.131998046875,2.392704115074873,1.4232055874466896,0.2516775900423527
1761317228676981000,2.14198095703125,2.4553204379856584,1.3172116028413177,0.2534437594646588
1761317228686964000,2.1519638671875,2.4637591805070636,1.2642071578845382,0.26964696197509763
1761317228696947200,2.161947265625,2.4523534048736093,1.2511048074662685,0.3207398742221296
1761317228706930000,2.171929931640625,2.4071657711476084,1.2406044562399388,0.40838253837246447
1761317228716913000,2.181912841796875,2.253791318947077,1.1837237543717025,0.5009728880580514
1761317228726896000,2.191896240234375,2.036517518287897,1.100321833063662,0.5247229988167063
1761317228736878800,2.20187890625,1.7896014435589311,1.0210141953319312,0.4944349011240527
1761317228746861800,2.21186181640625,1.536554318729043,0.8871668659001588,0.5016952109832317
1761317228756845000,2.221844970703125,1.259358256548643,0.7021753324255346,0.5254498152539133
1761317228766828000,2.231828125,0.9351648808717727,0.522753708037734,0.5180736604627222
1761317228776811000,2.24181103515625,0.6201204418122768,0.3491600591510534,0.48142450330555436
1761317228786794000,2.2517939453125,0.34359891789257524,0.16432751563042403,0.4320384680416435
1761317228796777000,2.26177685546875,0.1689133821159601,-0.031248540222644804,0.3626171412911266
1761317228806760200,2.27176025390625,-0.030471126109361646,-0.22385873200744388,0.30185249239532275
1761317228816743000,2.281742919921875,-0.30170564953684803,-0.3972092197880149,0.2250814422028139
1761317228826725000,2.29172509765625,-0.5858867482990026,-0.4887848029404878,0.14554215113967656
1761317228836708000,2.3017080078125,-0.9062912530869245,-0.5532929309472442,0.027879301251564174
1761317228846690800,2.31169091796875,-1.2130787359327078,-0.5849605733647942,-0.14711283452250062
1761317228856674000,2.321674072265625,-1.5349620811015368,-0.6042231999784707,-0.36856381126847115
1761317228866657000,2.331656982421875,-1.875434975928068,-0.603232435375452,-0.6002124299671501
1761317228876640000,2.341639892578125,-2.272968313103914,-0.5753080711394548,-0.7293550157740711
1761317228886623000,2.351623046875,-2.6848808887660502,-0.7068269576236605,-0.5730645299963653
1761317228896606000,2.36160595703125,-2.8665000231981277,-1.051924881902337,-0.2253770276159048
1761317228906589000,2.3715888671875,-2.725674086925387,-1.1577177909776568,-0.1794582300711423
1761317228916572200,2.381572265625,-2.3618314224272967,-1.014813294865191,-0.393049725488387
1761317228926555000,2.391554931640625,-2.1109435214579104,-0.9946519658461213,-0.4751328558154404
1761317228936537900,2.401537841796875,-2.138368119478226,-1.0225117404133082,-0.41834399694912133
1761317228946521000,2.41152099609375,-2.3887995088517666,-0.8757911931440233,-0.4631507415987551
1761317228956503800,2.42150390625,-2.647140648436546,-0.5773878000229596,-0.6095391343042255
1761317228966487000,2.431487060546875,-2.871553214934468,-0.2733753348484635,-0.7039809205427765
1761317228976470000,2.441469970703125,-3.018281068727374,-0.07942045045644044,-0.7529623935937881
1761317228986453000,2.451452880859375,-3.0255910994797945,0.08120937969982624,-0.757762048960477
1761317228996436000,2.46143603515625,-2.911501778963208,0.24592487173452973,-0.7391864547628909
1761317229006419000,2.4714189453125,-2.772525269949436,0.48743937968090173,-0.7413238321177661
1761317229016402000,2.48140185546875,-2.6122078667432067,0.7547596522741019,-0.7674866665739566
1761317229026385200,2.49138525390625,-2.4734926390141245,0.9760469263583421,-0.79280004459396
1761317229036368000,2.501367919921875,-2.350409280180931,1.1193345765694975,-0.7444164643708616
1761317229046350800,2.511350830078125,-2.1490999413728713,1.2117882577307522,-0.7358312260508537
1761317229056334000,2.521333984375,-1.7716893547713755,1.2631260846495627,-0.8411706192050129
1761317229066315800,2.531315673828125,-1.211840134048462,1.2288539588220417,-0.9467814497116953
1761317229076299000,2.541299072265625,-0.6052256550192833,1.122011979085207,-1.0243822835255414
1761317229086282000,2.551281982421875,0.0013186813831329346,1.0452068256936966,-1.1387833734050392
1761317229096265000,2.561264892578125,0.5277683213293552,1.0186902824290096,-1.267907473707199
1761317229106248000,2.571248046875,0.876541426989436,1.0090626223839818,-1.3769716595381498
1761317229116231000,2.58123095703125,1.0227443801254033,0.9923996568746865,-1.4995292409315704
1761317229126214100,2.591214111328125,1.0405617763668298,0.9749687757328153,-1.6266165747091172
1761317229136197000,2.601197021484375,1.0854922204613684,0.9346697908312082,-1.7351720803655684
1761317229146179800,2.611179931640625,1.2168670222997664,0.868702988448739,-1.852002224022895
1761317229156163000,2.6211630859375,1.4060773425132036,0.7623948233276605,-1.9568866399511693
1761317229166146000,2.63114599609375,1.6185972266435622,0.6148132753148675,-1.9699853371076286
1761317229176128800,2.641128662109375,1.8776772018969057,0.5181520594611764,-1.8934337200857698
1761317229186112000,2.651112060546875,2.091509337669611,0.5211021414384246,-1.76438867636919
1761317229196095000,2.661094970703125,2.1661305711507794,0.6088660573482513,-1.5920215005375444
1761317229206078000,2.671077880859375,2.047615835407376,0.721289198218286,-1.4088614202737808
1761317229216061000,2.68106103515625,1.7538707894861698,0.8537219846770167,-1.249690995145589
1761317229226044000,2.6910439453125,1.4225287110984324,0.9635387424409388,-1.1240599976561962
1761317229236027000,2.70102685546875,1.0894318979978561,1.0212646629616617,-0.9508231993831694
1761317229246010000,2.711010009765625,0.8180015597373247,1.0641098252147436,-0.8064446851953864
1761317229255992800,2.720992919921875,0.6095481943935156,1.0957847741559148,-0.6897471549417823
1761317229265976000,2.73097607421875,0.5347632947832346,1.091110352604091,-0.5566842173533514
1761317229275959000,2.740958984375,0.5826625255554914,1.0632532083854078,-0.36768925692364574
1761317229285942000,2.75094189453125,0.7567331443041563,0.9978364411011338,-0.18436927339043468
1761317229295925000,2.760925048828125,1.0590466966062784,0.9086120972499251,-0.03428622741810977
1761317229305908000,2.770907958984375,1.4224989004820585,0.8126388636603951,0.051145884543284774
1761317229315891000,2.780890869140625,1.786500554934144,0.6939566623955965,0.11415120677165687
1761317229325873000,2.790872802734375,2.1035107411086558,0.5188748207777738,0.1107611624745652
1761317229335855900,2.80085595703125,2.3334347645044327,0.3122404875546694,0.07705087178088724
1761317229345839000,2.810839111328125,2.4313942034751177,0.1390615569487214,0.055976848363690074
1761317229355822000,2.820822021484375,2.3493454503417013,0.009039046502113342,0.06031922494955361
1761317229365804800,2.8308046875,2.147397813630104,-0.07128828966617584,0.03272862271256745
1761317229375788000,2.8407880859375,1.913774351194501,-0.11475450642704962,-0.044485221077688035
1761317229385771000,2.85077099609375,1.7436252898037432,-0.15196896931678056,-0.0669634122043848
1761317229395754000,2.86075390625,1.570004752910137,-0.2260978892363608,-0.17001188140977172
1761317229405737000,2.870737060546875,1.3496499373704194,-0.3304831234708428,-0.2972384044623002
1761317229415720000,2.880719970703125,1.1006418587982654,-0.42932036818936464,-0.41675902931261805
1761317229425703200,2.890703125,0.8667927709132432,-0.5066399008437991,-0.4235548999978229
1761317229435686000,2.900685791015625,0.6509867047190666,-0.5855193762913345,-0.30143198369462043
1761317229445668900,2.9106689453125,0.4873351886540651,-0.6687189068950712,-0.1556997533429414
1761317229455652000,2.920652099609375,0.34500177042782304,-0.830032189270854,0.017671923356130718
1761317229465635000,2.930635009765625,0.28427637583017346,-1.0515275531478225,0.21887440425623206
1761317229475617800,2.94061767578125,0.24962942534089086,-1.2215646785967051,0.39548787588812406
1761317229485601000,2.95060107421875,0.14624971488714217,-1.4027121038638055,0.4871196462072432
1761317229495584000,2.960583984375,-0.03826046481132507,-1.6010652232147753,0.5336671701095997
1761317229505567000,2.97056689453125,-0.2141185514986515,-1.7182735525347292,0.5734087403241545
1761317229515550000,2.980550048828125,-0.45948096704483027,-1.7800182071775197,0.5534646342523396
1761317229525533000,2.990532958984375,-0.7618453727513551,-1.8076070558488369,0.4157815991152078
1761317229535516000,3.000515869140625,-1.180757598042488,-1.7875798746034501,0.17872282846868037
1761317229545499100,3.0104990234375,-1.6989911983072756,-1.8049653091683984,-0.045750455240532756
1761317229555481900,3.02048193359375,-2.2951631937772032,-1.7273782116189598,-0.2308419419582933
1761317229565465000,3.030465087890625,-2.9341216070502996,-1.5650025607086717,-0.3225519651453942
1761317229575448000,3.040447998046875,-3.4584628765404224,-1.632944170295447,-0.06934753086194395
1761317229585430000,3.050429931640625,-3.554163722929358,-1.6644244734473526,0.1746469573318958
1761317229595413000,3.0604130859375,-3.390053357180953,-1.4906794333912432,0.2455729895569384
1761317229605396000,3.07039599609375,-3.147102094429731,-1.3693952329345047,0.41378870826493946
1761317229615379200,3.080379150390625,-2.8839637836962937,-1.300271720086783,0.6559486379753798
1761317229625362000,3.09036181640625,-2.849128617158532,-1.1906281269326806,0.6311405791290104
1761317229635344600,3.1003447265625,-3.1037890224039555,-0.9473914713688194,0.42317218429055065
1761317229645328000,3.110327880859375,-3.499767531353235,-0.644920098156482,0.2944651403566822
1761317229655310800,3.120310791015625,-3.7990164353877303,-0.4094542227245867,0.2652097832452506
1761317229665293800,3.1302939453125,-3.870079684126377,-0.17779314640313384,0.3110310386996716
1761317229675276800,3.14027685546875,-3.7513352312803265,0.11868410096094012,0.36546222852393984
1761317229685259800,3.150259765625,-3.4789603056460616,0.4262995590634644,0.4466986788937822
1761317229695243000,3.160242919921875,-3.102220750173926,0.6782439833484589,0.5130062575379386
1761317229705226000,3.17022607421875,-2.6190941191256045,0.8971765110000968,0.48732864931542424
1761317229715208700,3.180208740234375,-2.0974042409271,1.0387428903765976,0.4660497509758919
1761317229725192000,3.19019189453125,-1.5577081659168004,1.0934215521559119,0.4970207528987899
1761317229735175000,3.2001748046875,-0.9569435819596052,1.0981989956907927,0.583099090341851
1761317229745158000,3.210157958984375,-0.2684814253270626,1.091255898554623,0.6630589814372361
1761317229755140900,3.220140869140625,0.5344990908890962,1.0514813759185373,0.8087125570621341
1761317229765123800,3.230123779296875,1.337733289605379,0.9759788295581936,0.9429648870982229
1761317229775106800,3.24010693359375,2.0324650280267,0.8814417662516236,1.0107094397429377
1761317229785090000,3.250090087890625,2.5001363157898187,0.7314195470884441,1.0200823213092982
1761317229795072800,3.26007275390625,2.699209858369827,0.5714093101352453,0.9771971923720091
1761317229805055700,3.2700556640625,2.7046383131593466,0.4194368336871266,0.9217501035034656
1761317229815039000,3.2800390625,2.5864737060278653,0.321596052660048,0.8669525645848363
1761317229825021700,3.290021728515625,2.4219798939198256,0.28513357718139887,0.7990881849527358
1761317229835005000,3.3000048828125,2.168186919158697,0.3447507182762027,0.6856555747792125
1761317229844988000,3.30998779296875,1.7671990576148031,0.472786438819766,0.48552010205611584
1761317229854971000,3.319970947265625,1.3468226049900054,0.628868688674271,0.2820907023541629
1761317229864952800,3.329952880859375,0.9212684574663639,0.8028396464407443,0.13941175862587987
1761317229874935800,3.339935791015625,0.5256470913916826,1.003042777572572,0.0013699366463348268
1761317229884919000,3.3499189453125,0.10024959573447703,1.1799889517575501,-0.04009403691403567
1761317229894901800,3.35990185546875,-0.33714170457720755,1.3583870783165097,0.002442497781291604
1761317229904884700,3.369884765625,-0.7247223875373602,1.5610539692133665,0.1091469687435776
1761317229914868000,3.379867919921875,-0.9785171158641576,1.7526812874406574,0.20798366547282784
1761317229924851000,3.389850830078125,-1.1027952374398708,1.927906921443343,0.2888699141655117
1761317229934833700,3.399833740234375,-1.0957499951034784,2.039014888061583,0.3003378865812905
1761317229944817000,3.40981689453125,-0.9504811079472303,2.0891727114155887,0.2707971914561465
1761317229954799900,3.4197998046875,-0.623870734256506,2.1240286284804344,0.2789885533540509
1761317229964782800,3.429782958984375,-0.11408113721013069,2.1418346265450117,0.2828638238848187
1761317229974765800,3.439765869140625,0.41723347842395303,2.0710040175184607,0.3059034482865594
1761317229984748800,3.449748779296875,0.8460778996646404,1.9545164036884903,0.2965241187131032
1761317229994731800,3.459731689453125,1.2363117274820803,1.846307665643096,0.2740543300885707
1761317230004715000,3.469715087890625,1.5508470479756593,1.75122173628211,0.21658634811798108
1761317230014697700,3.47969775390625,1.7890110764503477,1.5932660937711596,0.15839008840546012
1761317230024681000,3.489680908203125,1.9872616122096776,1.4097323578894136,0.14429196841549127
1761317230034664000,3.499663818359375,2.1687346161693335,1.2402914447680116,0.15137969818674027
1761317230044646700,3.509646728515625,2.296520453605056,1.0676160797700285,0.14954082885440437
1761317230054630000,3.5196298828125,2.3465724784970283,0.8595426536545157,0.11734762819278985
1761317230064612900,3.52961279296875,2.2811586338222027,0.6736743373453616,0.06459823570931329
1761317230074595800,3.539595947265625,2.1221131502479316,0.528652702948451,-0.00579712370513007
1761317230084578800,3.549578857421875,1.9207874448269604,0.42813510392755266,-0.08330005010245367
1761317230094561800,3.559561767578125,1.7175182041227817,0.34613983454704284,-0.10626825323579832
1761317230104544800,3.569544677734375,1.4560779294788837,0.2238520100057125,-0.04535908130276948
1761317230114528000,3.579528076171875,1.07258363904953,0.06604045214056968,0.04522020255504176
1761317230124510700,3.5895107421875,0.7255529931426048,-0.06758300540745257,0.13222517159003763
1761317230134493000,3.599492919921875,0.4933306296765804,-0.1629220327466726,0.21977871441850438
1761317230144476000,3.609475830078125,0.34839082834422586,-0.2754804904341698,0.3052622825725004
1761317230154459000,3.619458984375,0.21665303841233252,-0.4631394895523786,0.40124501464273776
1761317230164441900,3.62944189453125,0.06304594649970531,-0.6152808928266167,0.44682263406701384
1761317230174424800,3.6394248046875,-0.1311912619650364,-0.7410399006098508,0.47856860241778193
1761317230184408000,3.649407958984375,-0.3321563173800707,-0.8196607251212,0.42062173262275754
1761317230194390800,3.659390869140625,-0.5171972429543733,-0.8471367610678077,0.23766652728132903
1761317230204373800,3.669373779296875,-0.7746072391688823,-0.8768819109901785,-0.06854439321893732
1761317230214357000,3.67935693359375,-1.1366723726004362,-0.9370280443951488,-0.38398236620724197
1761317230224340000,3.689340087890625,-1.5803683260142802,-0.9714604753509163,-0.675665511162579
1761317230234322700,3.69932275390625,-2.129139103361964,-0.9327806160837412,-0.8620554401930421
1761317230244306000,3.709305908203125,-2.7841940804332492,-0.9513631514787674,-0.7748495234921574
1761317230254289000,3.719288818359375,-3.219489285248518,-1.1342884000733493,-0.4465199613260105
1761317230264272000,3.72927197265625,-3.1939357417970893,-1.1332573034599422,-0.2941127832550555
1761317230274254800,3.7392548828125,-2.9127427189350126,-0.9318076793983578,-0.30214553879145534
1761317230284237800,3.74923779296875,-2.60977742472589,-0.8098951179102063,-0.32249022502079605
1761317230294220800,3.759220703125,-2.524499772673845,-0.771112675051391,-0.35872776916977017
1761317230304203800,3.769203857421875,-2.638390355747938,-0.6378127503693103,-0.46870826612804084
1761317230314186800,3.779186767578125,-2.937510664966702,-0.36269729385524985,-0.6760367556277662
1761317230324170000,3.789169921875,-3.3243530967801806,-0.01686535621359944,-0.8636712048266082
1761317230334153000,3.799153076171875,-3.679045655617118,0.2692462722197175,-0.9487170208841562
1761317230344135700,3.8091357421875,-3.879385857132077,0.530690200125426,-0.9507879819393157
1761317230354119000,3.819118896484375,-3.791026021155715,0.7443013866238296,-0.8006029003646224
1761317230364102000,3.829101806640625,-3.3934202032655474,0.8772929760091006,-0.6080765509383752
1761317230374084900,3.8390849609375,-2.7967636391490696,0.9688365565881133,-0.5184442108081654
1761317230384067800,3.84906787109375,-2.124645883595943,1.0437914059378206,-0.4964935506869107
1761317230394050800,3.85905078125,-1.4770499903589487,1.083206739872694,-0.5659302211370318
1761317230404033800,3.86903369140625,-0.9323936625927686,1.0668294594369827,-0.6772473735265433
1761317230414017000,3.87901708984375,-0.4669622627109289,1.0074646856680511,-0.7786088760256766
1761317230423998700,3.888998779296875,-0.028044775745272636,0.9377415994919835,-0.8534517894335091
1761317230433982000,3.89898193359375,0.3746042970091104,0.8536345986545085,-0.9005516865216195
1761317230443965000,3.90896484375,0.7693015339761972,0.7852078358992933,-0.9421716908939182
1761317230453948000,3.918947998046875,1.1290823558628558,0.763425335419178,-0.9745265849232673
1761317230463931000,3.928930908203125,1.3844541242480277,0.7758163226976991,-1.0214444765079767
1761317230473913900,3.938913818359375,1.5534370644688604,0.8045917508050799,-1.1265025685027241
1761317230483897000,3.94889697265625,1.6528507939010857,0.8426967327937483,-1.2417701390184461
1761317230493879800,3.9588798828125,1.6898492759525774,0.8508797469884156,-1.4013767636068164
1761317230503862800,3.96886279296875,1.6833388711452484,0.8197609706252813,-1.63138145102337
1761317230513846000,3.978845947265625,1.6740841360658407,0.7913222271263599,-1.8028588384084403
1761317230523828700,3.988828857421875,1.7187690809667109,0.7513333310872315,-1.9127464694514869
1761317230533811700,3.998811767578125,1.769271772235632,0.6976034944653511,-1.9163111761957405
1761317230543795000,4.008794921875,1.7357599632561205,0.7433399942457676,-1.8435288485795258
1761317230553778000,4.01877783203125,1.4710989730000494,0.8743678823426365,-1.7158638610444963
1761317230563760600,4.0287607421875,1.1233850210040808,1.073663543240726,-1.5183444160386919
1761317230573743900,4.038743896484375,0.8573708625733852,1.3275368897616862,-1.3127213056847453
1761317230583726800,4.048726806640625,0.6864093157559633,1.5459885020285844,-1.0416994020946324
1761317230593709800,4.058709716796875,0.5946510695129633,1.6887652801081536,-0.7112091182306408
1761317230603692800,4.06869287109375,0.5555138218671083,1.7781237717330454,-0.390361363187246
1761317230613675800,4.07867578125,0.5727279915183783,1.8430673685476182,-0.14079941359199583
1761317230623658800,4.08865869140625,0.6951707143604755,1.86742088855952,0.06297985899355261
1761317230633641700,4.098641845703125,0.8515992934346198,1.7654057444572449,0.20764579355427995
1761317230643624700,4.108624755859375,1.006139282283187,1.6203481619641185,0.3433182743202895
1761317230653608000,4.11860791015625,1.258144204583764,1.4507652100235222,0.4221196430303156
1761317230663590700,4.128590576171875,1.5897136619865893,1.2659785514712334,0.43299259042870253
1761317230673573600,4.13857373046875,1.9321581491470337,1.050237074945867,0.4251475760167464
1761317230683556900,4.148556884765625,2.2119366290360687,0.8027566443324089,0.46170328273680056
1761317230693539600,4.15853955078125,2.4012480715364215,0.572554973039031,0.49943727598860854
1761317230703521800,4.168521728515625,2.4754402659505605,0.41204555439203977,0.5053854438032954
1761317230713504800,4.1785048828125,2.454993105727434,0.2864955131843686,0.5084498728752136
1761317230723487500,4.188487548828125,2.321695226871967,0.17071195597052574,0.4933806428307667
1761317230733470700,4.198470703125,2.0926678600549695,0.054122635331749915,0.45814873206038026
1761317230743453700,4.20845361328125,1.8316010948985815,-0.08575754452347754,0.36642508220672604
1761317230753437000,4.21843701171875,1.5923229677021502,-0.25546149249523875,0.29183855471275744
1761317230763419600,4.228419677734375,1.3658067069232462,-0.426364587123692,0.2572570341425016
1761317230773402600,4.238402587890625,1.1805325571149587,-0.5244941219642758,0.2412598755981773
1761317230783385900,4.2483857421875,1.0773141747027635,-0.5332429533481597,0.2477550097711384
1761317230793368800,4.258368896484375,0.9702262573808431,-0.5946639289945364,0.30028380004018546
1761317230803351600,4.2683515625,0.8612690390557051,-0.7016169678904116,0.4259889222117141
1761317230813334800,4.278334716796875,0.7150035420775414,-0.8178342403464018,0.5561352051684633
1761317230823317800,4.28831787109375,0.5241571450948714,-0.9299781258836388,0.7178004062544554
1761317230833300700,4.29830078125,0.25853227824270725,-1.026145859131962,0.926134383002296
1761317230843283700,4.30828369140625,0.06148118140101432,-1.1137909709677098,1.1397041415117681
1761317230853266700,4.3182666015625,-0.04539046282172203,-1.2411520071201025,1.3463013575948775
1761317230863249700,4.328249755859375,-0.18343115229010581,-1.404736595428735,1.5513482754960655
1761317230873233000,4.33823291015625,-0.3614379414439201,-1.5091343968838453,1.728101557457447
1761317230883215600,4.348215576171875,-0.6181161162525415,-1.5734930334173143,1.89158239313066
1761317230893198800,4.35819873046875,-0.9888538009613752,-1.6455298033632337,2.049306711103767
1761317230903181800,4.368181884765625,-1.4276076217979192,-1.6940004042826593,2.1749752641245723
1761317230913164500,4.37816455078125,-1.8839391849011182,-1.6821017305657266,2.205298213934898
1761317230923147800,4.388147705078125,-2.339405655607581,-1.5890870545208453,2.1593197220921514
1761317230933130800,4.398130859375,-2.8709219312936067,-1.4728390946656464,2.116837401802093
1761317230943113700,4.40811376953125,-3.4144723436444995,-1.5794485808208585,2.1920773517034946
1761317230953096700,4.4180966796875,-3.8350861121565103,-1.8145096748441456,2.3059236572444437
1761317230963079700,4.42807958984375,-4.044308123785257,-1.912012456088513,2.238889225630462
1761317230973062700,4.438062744140625,-3.999507443550229,-1.877841890939325,2.0119021324694155
1761317230983046000,4.4480458984375,-3.84890596319437,-1.7673033947721122,1.8256249430984257
1761317230993028600,4.458028564453125,-3.8519992530345912,-1.5461330250658094,1.604653164704144
1761317231003010800,4.4680107421875,-4.09152346394658,-1.1290665737718344,1.3128482930652796
1761317231012993800,4.477993896484375,-4.551914531573653,-0.6628123131997883,1.1193730088837444
1761317231022976500,4.4879765625,-5.061909295803308,-0.304097659239918,1.1567171625677495
1761317231032959700,4.497959716796875,-5.294269021913409,0.004316694155335426,1.24026601806581
1761317231042942700,4.507942626953125,-5.1730391819924115,0.3077069357782602,1.3349009887889027
1761317231052926000,4.517926025390625,-4.710044069346785,0.5883727198958396,1.3332159583114087
1761317231062908700,4.52790869140625,-3.927874870491028,0.8150118764020502,1.2320868032634258
1761317231072891600,4.5378916015625,-3.0041864924013613,0.9632727849811314,1.096575047750771
1761317231082875000,4.547875,-2.15430627784431,1.1371548954203725,0.9063846304588019
1761317231092857900,4.55785791015625,-1.434241945245862,1.3139318505182862,0.6654384239196777
1761317231102840600,4.567840576171875,-0.8460930972337722,1.4742828637331724,0.5075774739548564
1761317231112823800,4.57782373046875,-0.38568332490623,1.597038013525307,0.5162354852501303
1761317231122806800,4.587806884765625,0.030780922710895536,1.6905319975197315,0.619790917596966
1761317231132789800,4.597789794921875,0.5215291346788407,1.760555966338515,0.7557786931235343
1761317231142772700,4.607772705078125,1.0622750110030175,1.8261971900284288,0.8617678554233164
1761317231152755700,4.617755615234375,1.646637910735607,1.8394994469329713,0.8933436548389494
1761317231162738700,4.62773876953125,2.2358149327516554,1.8182099906668066,0.9344429232727736
1761317231172721700,4.6377216796875,2.683379836553335,1.7891154136076568,1.0032978483121842
1761317231182704600,4.64770458984375,2.9700673651784655,1.6996435247361659,1.081753910715878
1761317231192687900,4.65768798828125,3.076592387920618,1.6216317720338702,1.1933104978844522
1761317231202670800,4.6676708984375,3.004373539406061,1.574135861365497,1.2936927800878881
1761317231212653600,4.677653564453125,2.7628391577154394,1.569687649784982,1.346775989369303
1761317231222636800,4.68763671875,2.4113263979583976,1.6897060680896043,1.3367502699173985
1761317231232619800,4.697619873046875,2.0381056642621753,1.8906991805553435,1.2911767056137322
1761317231242602800,4.707602783203125,1.5500211185455322,1.999750799165666,1.1621703864723443
1761317231252585700,4.717585693359375,1.0264964261353016,2.016026518923044,1.028107441528514
1761317231262568700,4.727568603515625,0.5214379492640495,2.10271988299191,0.8627306360408663
1761317231272551700,4.7375517578125,0.05591536396741867,2.229902493837476,0.7339208623848855
1761317231282535000,4.747534912109375,-0.2820651295214891,2.3319281593337653,0.7079569845668972
1761317231292516600,4.7575166015625,-0.48391690464317794,2.408777590258419,0.7699441427286714
1761317231302499800,4.767499755859375,-0.5014835409939289,2.492647421339154,0.8287151153229176
1761317231312482800,4.77748291015625,-0.3580184883892536,2.523990069586038,0.8351821193799376
1761317231322465500,4.787465576171875,-0.04851414780020714,2.4643790659710763,0.8370550005797296
1761317231332448800,4.79744873046875,0.3415484151035547,2.3441169020384547,0.8504724082965404
1761317231342431700,4.807431640625,0.7006903545647859,2.211134372742474,0.8727608855374157
1761317231352414700,4.817414794921875,1.0048638555198908,2.104287862960994,0.813237341010198
1761317231362397700,4.827397705078125,1.2864935162335633,2.0018869344115258,0.7267803429804742
1761317231372380700,4.837380615234375,1.4860229858875273,1.8590739159747958,0.5970631721559911
1761317231382364000,4.847364013671875,1.5765537361621855,1.681952092961967,0.43085013503991065
1761317231392346600,4.8573466796875,1.6121698239445685,1.5268912951096891,0.3120219859657809
1761317231402329600,4.86732958984375,1.6005787548720836,1.4318696631565688,0.3104035909837112
1761317231412312800,4.877312744140625,1.4986813919305801,1.384084121891856,0.44603897287603467
1761317231422295800,4.8872958984375,1.3693822273224592,1.3434785552591084,0.585291120493412
1761317231432278500,4.897278564453125,1.2888432942301034,1.307930856537819,0.6465145277410745
1761317231442261800,4.90726171875,1.2621943567574023,1.2057201898634433,0.6540143819771707
1761317231452244700,4.91724462890625,1.226293606814742,1.0543465560913086,0.6186262577317655
1761317231462227700,4.927227783203125,1.0909265204697847,0.8570327166602015,0.5463777081986889
1761317231472210700,4.937210693359375,0.9188216488361358,0.621968407766521,0.5131617768932134
1761317231482193700,4.947193603515625,0.7786509616017341,0.3916261589586735,0.5056233442123979
1761317231492177000,4.957177001953125,0.7060545119464398,0.18052637075930833,0.5262122875263914
1761317231502160000,4.967159912109375,0.734870272064209,-0.05213584542870521,0.5958917902890593
1761317231512142600,4.977142578125,0.7531190454602241,-0.29842502043098207,0.6533963962092996
1761317231522125800,4.987125732421875,0.6854653129041195,-0.5423135640323162,0.6569241319440304
1761317231532108800,4.99710888671875,0.5528326199591159,-0.6994412312865257,0.6034020197886973
1761317231542091800,5.007091796875,0.3294423822462559,-0.766047500616312,0.4111285126123577
1761317231552074800,5.01707470703125,-0.051235097196698186,-0.8432184185802936,0.10308625306566245
1761317231562057700,5.0270576171875,-0.62548576823771,-0.9351245488613843,-0.17441806221315637
1761317231572040700,5.037040771484375,-1.320323305121064,-0.9363692882254719,-0.35530637988634406
1761317231582023700,5.047023681640625,-2.0186048449784515,-0.7787766338080168,-0.46119672145415097
1761317231592005600,5.057005615234375,-2.7088796039909124,-0.5024971019506455,-0.47632001977339383
1761317231601989600,5.06698974609375,-3.3576217446535823,-0.24983634608983993,-0.46726190324462946
1761317231611971600,5.0769716796875,-3.87773867444694,-0.3009294044673443,-0.15296441009491682
1761317231621954600,5.08695458984375,-3.9997470975250002,-0.38073768519759177,0.11062407382512464
1761317231631937800,5.096937744140625,-3.609583412334323,-0.2399421440631151,0.0373641004934907
1761317231641920800,5.106920654296875,-2.966547374358773,-0.17560791131854056,-0.11075965550406836
1761317231651903700,5.11690380859375,-2.48571732981503,-0.3314513839811086,-0.10925795483738183
1761317231661886700,5.12688671875,-2.310672897598147,-0.44271424890011546,-0.1500977412179578
1761317231671869700,5.13686962890625,-2.4220693257689474,-0.3547384438052773,-0.24787017884971574
1761317231681853000,5.14685302734375,-2.6854858689218757,-0.13628916962593793,-0.3247641978347674
1761317231691835600,5.156835693359375,-2.9309768792837856,0.07491174086034298,-0.3602219167176634
1761317231701818600,5.166818603515625,-3.0118513279408217,0.2290948790952563,-0.31556068148594346
1761317231711801900,5.1768017578125,-2.9244273115098474,0.33059666684791444,-0.17694202773282303
1761317231721784800,5.186784912109375,-2.737836233884096,0.3309422654151916,-0.012582463863166048
1761317231731767600,5.196767578125,-2.439731823709607,0.33494653262048957,0.14936359085766598
1761317231741750800,5.206750732421875,-2.0292712004214524,0.3339915699832141,0.2508486284049228
1761317231751733800,5.216733642578125,-1.5694319214582442,0.3014604426041245,0.2668869226772338
1761317231761716700,5.226716796875,-1.1813479651510714,0.20975451107025145,0.07416815595142542
1761317231771699700,5.23669970703125,-0.9279787687599659,0.09427139810770749,-0.23941021087719125
1761317231781682700,5.2466826171875,-0.7295441086053848,0.04443345435783267,-0.5996593991942704
1761317231791666000,5.256666015625,-0.46620530686378475,0.12031360185891389,-0.8901493888422847
1761317231801648600,5.266648681640625,-0.1442179167985916,0.24761574743092057,-1.0213559945069253
1761317231811631600,5.276631591796875,0.23124328930079935,0.34160014529079197,-0.9761400114692746
1761317231821614800,5.28661474609375,0.6153191790103912,0.3824675777301192,-0.8380100362822412
1761317231831597800,5.296597900390625,1.0087228690356016,0.44012540145069357,-0.6976590240448712
1761317231841580500,5.30658056640625,1.2678431762993334,0.5207201563835143,-0.5927631368745118
1761317231851563800,5.316563720703125,1.3862100280046463,0.5891887124538421,-0.5136764849497005
1761317231861546800,5.326546630859375,1.3313912271022796,0.6186833947464824,-0.4410648011926561
1761317231871529700,5.33652978515625,1.1860346616625785,0.6493959283962846,-0.4609446829218417
1761317231881512700,5.3465126953125,1.0939058285415173,0.6734475428521632,-0.5817347431860864
1761317231891495700,5.35649560546875,1.080045645493269,0.6480626339659095,-0.7459600405510515
1761317231901478000,5.366477783203125,1.1116098275363444,0.5936264026403427,-0.9045512044865638
1761317231911460600,5.376460693359375,1.184690845838189,0.5480743195161223,-1.055904599188268
1761317231921443600,5.386443603515625,1.2506459577828646,0.5642030320182443,-1.1227282375957817
1761317231931426800,5.3964267578125,1.149669801339507,0.6257885505765676,-1.130914393595606
1761317231941409800,5.406409912109375,0.8576327283799647,0.7586109208747744,-1.0472057444259524
1761317231951392800,5.416392822265625,0.5462444737404585,0.968340882025659,-0.900834302855283
1761317231961375700,5.426375732421875,0.3130494658499956,1.1839894195705651,-0.7670911644503474
1761317231971358700,5.436358642578125,0.18476327767670153,1.3607485467508433,-0.6344871861431747
1761317231981342000,5.446342041015625,0.08731646440327168,1.4849541876122354,-0.3945731356633827
1761317231991324700,5.45632470703125,0.032389526951313016,1.5781909819751978,-0.1676784334935248
1761317232001307600,5.4663076171875,0.01144376955628395,1.6229349635869263,-0.005750343687646091
1761317232011291000,5.476290771484375,0.13881459645032881,1.6276397802770137,0.12434263817928731
1761317232021273600,5.486273681640625,0.3886731543719768,1.5478960892155766,0.24274770300313828
1761317232031256600,5.496256591796875,0.6620347529560328,1.3833084613442421,0.25704611307187003
1761317232041239800,5.50623974609375,0.9785627085715531,1.2156214061528443,0.27198590805036943
1761317232051222800,5.516222900390625,1.3270622579872606,1.0556506244271993,0.2689822144560516
1761317232061205500,5.52620556640625,1.618916375595331,0.8788596408039331,0.29286904853796586
1761317232071188700,5.536188720703125,1.802776566952467,0.693522947153449,0.3639815249795094
1761317232081171700,5.546171630859375,1.9254484223753212,0.5342205662086605,0.4168856148343533
1761317232091154700,5.55615478515625,1.9905682525396347,0.42677375244647264,0.46521698994617905
1761317232101137700,5.5661376953125,2.0040332987904548,0.3294979118257761,0.5241235716188326
1761317232111120600,5.57612060546875,1.9167063129931687,0.2178720588132739,0.5953110312590375
1761317232121104000,5.586103759765625,1.716469571852684,0.16040741957724095,0.6674106738407164
1761317232131086800,5.5960869140625,1.5296791722625493,0.1642605878740549,0.7051616547599434
1761317232141069600,5.606069580078125,1.3554086470276117,0.16673662259876726,0.6956590093340724
1761317232151052800,5.616052734375,1.1787766533583401,0.10492314050346613,0.7310027829810977
1761317232161035800,5.626035888671875,0.9429834456682205,0.053607379285991186,0.7341097360204905
1761317232171018800,5.636018798828125,0.6462018085300922,0.04492255304902792,0.6537633298255503
1761317232181001700,5.646001708984375,0.4465747237205505,0.04677022674232721,0.6288508607566357
1761317232190984700,5.655984619140625,0.2420259645998478,-0.007928162650763989,0.6578975800860672
1761317232200967000,5.665966796875,0.042294834893941875,-0.03482552192658186,0.7127172577712685
1761317232210949600,5.67594970703125,-0.1412549753397703,-0.04030629142522812,0.7758573122952133
1761317232220932600,5.6859326171875,-0.260539526411891,-0.08112491628676652,0.8618708774063736
1761317232230915800,5.695915771484375,-0.314283391559124,-0.16836422380059957,0.9523574232131242
1761317232240898800,5.70589892578125,-0.2875099509239197,-0.2946855416417122,1.0092724657423793
1761317232250881800,5.7158818359375,-0.19801614248156546,-0.5232137267649174,1.0277835433363913
1761317232260864800,5.72586474609375,-0.052744332715868945,-0.7481099851265549,0.9961635394528507
1761317232270847700,5.73584765625,0.03461363274157047,-0.9581830606266856,0.9707325994677841
1761317232280830700,5.745830810546875,0.04277706545293331,-1.1444783701762555,0.9577575286909937
1761317232290813700,5.755813720703125,-0.027944237980246544,-1.2639923460900784,0.9843379309721291
1761317232300796700,5.765796630859375,-0.15251578954458236,-1.3317013159647584,0.983934172476828
1761317232310780000,5.77577978515625,-0.33830607218146325,-1.3754460574060678,0.9654290862321853
1761317232320762600,5.7857626953125,-0.6126099200516939,-1.3906941876813768,0.9686066202897577
1761317232330745600,5.79574560546875,-0.9682213472992182,-1.3360609724789858,0.901752002222091
1761317232340728800,5.805728759765625,-1.346565999880433,-1.2580556495174764,0.8372015694435685
1761317232350711800,5.8157119140625,-1.8282897783935068,-1.2714917619347572,0.9528158345051109
1761317232360694500,5.825694580078125,-2.3401433222323655,-1.4765104766547679,1.278028762488067
1761317232370677800,5.835677734375,-2.6707027258098126,-1.6456404241308569,1.4979828882724047
1761317232380660700,5.84566064453125,-2.8192998806059357,-1.7260992777243256,1.5619478493131695
1761317232390643700,5.855643798828125,-2.9351486120104786,-1.6731836800947784,1.473520647189021
1761317232400626700,5.865626708984375,-3.0115415313392875,-1.462321207782626,1.2976453171059488
1761317232410609700,5.875609619140625,-3.207065857005119,-1.187372632268071,1.1394169951334594
1761317232420593000,5.885593017578125,-3.5491672298163173,-0.8844318879783153,1.0002321040660143
1761317232430575900,5.895575927734375,-3.932014454513788,-0.531718812520802,0.9069956019639969
1761317232440558600,5.90555859375,-4.181508855298161,-0.17882658110409974,0.9095808692168443
1761317232450541800,5.915541748046875,-4.136991668179631,0.13672609973847866,0.9654719024606049
1761317232460524800,5.92552490234375,-3.755762400072813,0.4482888341620564,1.053948788945377
1761317232470507500,5.935507568359375,-3.0754461404949427,0.6755567900910974,1.2007239890113472
1761317232480490800,5.94549072265625,-2.250828377488255,0.8264972931429744,1.3224031801350413
1761317232490472700,5.95547265625,-1.447787655517459,0.9562488776937127,1.2605527270302175
1761317232500455700,5.96545556640625,-0.7743997338980436,1.1058540404886006,1.1414513505052775
1761317232510438700,5.975438720703125,-0.295092368876934,1.2019435939341783,1.0398895761936902
1761317232520421600,5.985421630859375,0.05158522580862045,1.2925336731806396,0.958460124002397
1761317232530404900,5.99540478515625,0.3510118244975805,1.421146024568379,0.9570157704129815
1761317232540387600,6.0053876953125,0.631188948315382,1.5004042702004312,1.0987156399760394
1761317232550370800,6.015370849609375,0.9562181902945041,1.509416136434674,1.3335850838847458
1761317232560353800,6.025353759765625,1.3491624461144207,1.5395026471406221,1.5541916822284458
1761317232570336800,6.035336669921875,1.756402938312292,1.6091446309044957,1.7165207175180315
1761317232580319700,6.04531982421875,2.092352218234539,1.6325614545881748,1.9272285837903618
1761317232590302700,6.055302734375,2.3006536078870297,1.630280065652728,2.1568068624883887
1761317232600285700,6.06528564453125,2.383168224966526,1.6416741508483885,2.348250494711846
1761317232610269000,6.07526904296875,2.304078906160593,1.6384610340207815,2.496148122936487
1761317232620251600,6.085251708984375,2.09333830666244,1.6140648439109324,2.62518249912858
1761317232630234400,6.095234375,1.8542723609119653,1.6001222432762383,2.6585668823361397
1761317232640217600,6.105217529296875,1.6242852091521023,1.6141998684674501,2.5290833010718226
1761317232650200300,6.115200439453125,1.294957393196225,1.6528265362426637,2.3470102853924035
1761317232660183600,6.12518359375,0.8768202439308166,1.6943872116431593,2.135560368581116
1761317232670166500,6.13516650390625,0.3435749524950981,1.7591607125878332,1.845248950370401
1761317232680149500,6.1451494140625,-0.17633564107120037,1.8671987702414392,1.6614926577791571
1761317232690132500,6.155132568359375,-0.6538380024969578,2.0014418209925293,1.5897754751764237
1761317232700115500,6.165115478515625,-0.9995791931152344,2.1546701427206396,1.5653227325737475
1761317232710098400,6.175098388671875,-1.203046002218127,2.2972294786572456,1.5868145795442163
1761317232720081700,6.18508154296875,-1.3367156369954347,2.4429963784635067,1.634648928386718
1761317232730064400,6.195064453125,-1.2621914341479539,2.5697853138163684,1.6567558385156094
1761317232740047400,6.20504736328125,-0.9750386260986328,2.6239947506487367,1.7088512058034537
1761317232750030600,6.215030517578125,-0.6440595358043909,2.5558696011885997,1.684644985307753
1761317232760013600,6.225013671875,-0.34882688167393205,2.405641338059306,1.6028193734057248
1761317232769995500,6.23499560546875,-0.12595453035533427,2.249043832159042,1.4762886505976318
1761317232779978500,6.244978515625,-0.002758358797430992,2.085878346045315,1.355196319451183
1761317232789961500,6.25496142578125,0.11359423047602175,1.9064193122565745,1.2554032353125513
1761317232799944400,6.2649443359375,0.23331775748729705,1.756727055700123,1.2013212242521345
1761317232809927400,6.274927490234375,0.37835868110656734,1.6387857359305023,1.2188980166707186
1761317232819910400,6.284910400390625,0.5045674784839153,1.5160589354500174,1.227638591682911
1761317232829893600,6.2948935546875,0.6139964059740305,1.3840332684874534,1.2405476114861667
1761317232839876400,6.30487646484375,0.7766963204026222,1.2536015927180648,1.336791624841094
1761317232849859600,6.314859619140625,0.8872422692239283,1.1179843310043216,1.4798679703891275
1761317232859842600,6.324842529296875,0.8543161511778831,0.9757350839301944,1.6074489329025148
1761317232869825300,6.3348251953125,0.6904191359192132,0.8698401757851243,1.6057647792078553
1761317232879808500,6.34480859375,0.4567442355573177,0.8078978066131473,1.478361219087988
1761317232889791500,6.35479150390625,0.21521336099803445,0.725278267854452,1.2716371617548168
1761317232899774500,6.3647744140625,0.012470189994573593,0.6153226861417294,1.0897951783522963
1761317232909757400,6.37475732421875,-0.1194832885146141,0.5203709045544267,1.0277849315758794
1761317232919740400,6.384740478515625,-0.30306407840847965,0.4224208179339766,1.0849408701889216
1761317232929723400,6.394723388671875,-0.5447808309286832,0.3530240411028266,1.2115021342657506
1761317232939706600,6.40470654296875,-0.765674575650692,0.3298018632084131,1.342933196336031
1761317232949689300,6.414689453125,-0.8951122719466685,0.2947022005155682,1.447136498132348
1761317232959672600,6.424672607421875,-0.884766234499216,0.1501809168562293,1.4725222838014362
1761317232969655600,6.434655517578125,-0.7945224844723939,-0.09318331061005591,1.4135513316556811
1761317232979638500,6.444638427734375,-0.7674129437506199,-0.31129940731227396,1.330180097746849
1761317232989621500,6.45462158203125,-0.8605167593836783,-0.4143742896005511,1.226894203056395
1761317232999604500,6.4646044921875,-1.0979892984628676,-0.5526078712925314,1.1834970329437404
1761317233009587500,6.47458740234375,-1.3941186091721056,-0.9241361218571662,1.356333068396151
1761317233019570700,6.48457080078125,-1.5439128647983074,-1.3309078274995088,1.4435755907803773
1761317233029553400,6.494553466796875,-1.4565478850781917,-1.4267285008758306,1.0429236101273447
1761317233039535600,6.50453564453125,-1.2786919025719166,-1.2298890009582042,0.32360468906871975
1761317233049518600,6.5145185546875,-1.3556325189113616,-1.0423977596223353,-0.21463797226287423
1761317233059501300,6.524501220703125,-1.8626912296891212,-0.7511918767899275,-0.5890008617315441
1761317233069484500,6.534484619140625,-2.5620044506818056,-0.27228169439285993,-0.7651919067002833
1761317233079467500,6.544467529296875,-3.2285522971481084,0.23682693465203045,-0.855735662586987
1761317233089450500,6.554450439453125,-3.686413554036617,0.6601543460369109,-0.64664188044779
1761317233099433500,6.56443359375,-3.705127022334933,0.9593561960592866,-0.19023674065172672
1761317233109416400,6.57441650390625,-3.2923803339362143,1.1603811649680138,0.27941169240325686
1761317233119399400,6.5843994140625,-2.549329093503952,1.264233461369574,0.5757570570159704
1761317233129382400,6.59438232421875,-1.6579297046005725,1.2312322322607039,0.5890056109718979
1761317233139365400,6.604365478515625,-0.8349731528043747,1.0379147689893842,0.5625167594317346
1761317233149348600,6.6143486328125,-0.1687093839764595,0.7337862762197852,0.6118600149998441
1761317233159331600,6.62433154296875,0.26370880409777164,0.5383478752717376,0.6868395238667726
1761317233169314300,6.634314208984375,0.44630467460751533,0.5380532762393355,0.7352125096306205
1761317233179297500,6.644297607421875,0.44951486882567404,0.7210328853696585,0.6742014299593866
1761317233189280500,6.654280517578125,0.3060872256219387,0.9283937793016434,0.5585584137273952
1761317233199263500,6.664263427734375,0.025278233641386032,0.9896323841184377,0.4668806123094633
1761317233209246500,6.67424658203125,-0.22394377994239328,0.9724822196140884,0.38467085992805655
1761317233219229400,6.6842294921875,-0.29303076017200946,0.9863464943155645,0.25299557730574157
1761317233229212400,6.69421240234375,-0.20303250933885572,0.9672513332232833,0.07983779908567666
1761317233239195600,6.704195556640625,-0.033844401934742925,0.8852376514032483,-0.07051436441792175
1761317233249178400,6.714178466796875,0.15818039117753505,0.8267825398251414,-0.1890057192857377
1761317233259161600,6.72416162109375,0.27497078734636304,0.7820669075250625,-0.37208299837056547
1761317233269144600,6.73414453125,0.35009997034966944,0.7098769928440452,-0.54630460642986
1761317233279127600,6.74412744140625,0.4480886354148388,0.6534893351897597,-0.6865461669433861
1761317233289110500,6.754110595703125,0.5561556269019842,0.6017708383902907,-0.7913200351692735
1761317233299093500,6.764093505859375,0.6779606363624334,0.5923924769312143,-0.8432123541656881
1761317233309075700,6.77407568359375,0.7090554473280907,0.6409460799589752,-0.8434723202761262
1761317233319058400,6.784058349609375,0.6336433557301759,0.7497986688658594,-0.7358098910018801
1761317233329041400,6.79404150390625,0.513059412497282,0.9187851162180304,-0.5567221747435629
1761317233339024600,6.804024658203125,0.4236556204259395,1.085718722693622,-0.33873372300900517
1761317233349007400,6.81400732421875,0.4034434380024671,1.2287003756955266,-0.06758784597935155
1761317233358990300,6.823990234375,0.42325814554095265,1.3428405496165157,0.19743744754446668
1761317233368973600,6.8339736328125,0.49509237865209577,1.3909353029608726,0.4053430245460942
1761317233378956500,6.84395654296875,0.6108475865542888,1.3197349838390946,0.5320476060837507
1761317233388939300,6.853939208984375,0.8314572536379098,1.20410398683846,0.6006537074612454
1761317233398922500,6.863922607421875,1.1011059691786766,0.9921332610234618,0.5598676331624388
1761317233408905500,6.873905517578125,1.3889952748090029,0.7311378075376153,0.49351939371433107
1761317233418888400,6.883888427734375,1.6201935559242964,0.48964551142305135,0.4087068749560043
1761317233428871400,6.893871337890625,1.761921409472823,0.3087371556088328,0.38109011536445464
1761317233438854400,6.9038544921875,1.7645464972794054,0.17530279089212417,0.39325712116137146
1761317233448837600,6.913837646484375,1.6860919692456722,0.10376549490094185,0.44761531881466504
1761317233458820600,6.923820556640625,1.602174499630928,0.0882584214285016,0.5320714253507555
1761317233468803300,6.93380322265625,1.4571955353319643,0.12613193274885415,0.593166237782687
1761317233478786600,6.94378662109375,1.3169921148717403,0.1637421169579029,0.6162670543197543
1761317233488769500,6.95376953125,1.1576064395576715,0.19912585728913546,0.6036339288484305
1761317233498752500,6.96375244140625,0.9861340206086635,0.24453648611605167,0.6152742438901215
1761317233508735500,6.973735595703125,0.7726976061552763,0.2723421924084425,0.6797621328264475
1761317233518718500,6.983718505859375,0.540821864169836,0.2924450692385435,0.6762701990574598
1761317233528701400,6.993701416015625,0.4323977298080921,0.2898819407522678,0.6153192520756274
1761317233538684400,7.003684326171875,0.44808921993672846,0.25808950291126964,0.5420489948119968
1761317233548667400,7.01366748046875,0.3119207540810108,0.0973424761161208,0.42633850283436475
1761317233558649600,7.023649658203125,0.43402328518331046,-0.06256196237504481,0.34253625709712504
1761317233568632300,7.03363232421875,0.5095797536879778,-0.11842793424278497,0.3154490012723952
1761317233578615600,7.043615478515625,0.47109950864613054,-0.14088643428832293,0.20714979019826277
1761317233588598500,7.0535986328125,0.5539882197350263,-0.15229513253122567,0.03471398784350604
1761317233598581500,7.06358154296875,0.5607487999111413,-0.24392946013361214,0.02463123640816193
1761317233608564500,7.073564453125,0.5809001920580864,-0.3585173778221011,0.028524092827970162
1761317233618547500,7.08354736328125,0.6453986754536628,-0.4734776359543204,-0.021934501287608873
1761317233628531500,7.093531494140625,0.6719774702996015,-0.5828346672520041,-0.11674283070005476
1761317233638514200,7.10351416015625,0.7116302662521601,-0.7341571553587913,-0.1570061232337728
1761317233648497400,7.113497314453125,0.7494593539088964,-0.8732584597960114,-0.12727704766336828
1761317233658480400,7.12348046875,0.770889095428586,-0.988697441355884,-0.011425000923732295
1761317233668463400,7.13346337890625,0.7587129199445247,-1.0639295002117752,0.12004596389867364
