time,seconds_elapsed,z,y,x
1761315763978016300,0.069016357421875,-0.9287696268767118,0.6705930302038788,1.52391520190835
1761315763987998500,0.07899853515625,-0.9808394213318824,0.6452607282876968,1.4716405325308441
1761315763997980400,0.08898046875,-1.0134557427763937,0.6348676368281245,1.3974913004755973
1761315764007963400,0.09896337890625,-1.0007201798439025,0.6291288009151816,1.4001958832591772
1761315764017945300,0.1089453125,-0.9632616790652274,0.651302931061387,1.423382113057375
1761315764027927300,0.11892724609375,-0.8607575824022292,0.7289926122024655,1.4504131817154586
1761315764037909200,0.1289091796875,-0.7129553773760795,0.8336854510813951,1.4219148169837892
1761315764047891500,0.138891357421875,-0.5040998609721661,0.863932120785117,1.388888599564135
1761315764057874400,0.14887451171875,-0.3549854043036699,0.8381032675236463,1.3407985223948955
1761315764067856400,0.1588564453125,-0.31044717439711095,0.7944257460996508,1.2901577378295361
1761315764077838300,0.16883837890625,-0.33041444214880467,0.7556190455824137,1.2387908309467137
1761315764087820300,0.1788203125,-0.3929723128706217,0.7279159228816628,1.1539335962638257
1761315764097803300,0.18880322265625,-0.49833179896473884,0.7392918878987431,1.1131219125997274
1761315764107785500,0.198785400390625,-0.6153297004044056,0.7850482614234089,1.1235013408601284
1761315764117767400,0.208767333984375,-0.6975479648858308,0.8644707577064633,1.1237059235215185
1761315764127749400,0.218749267578125,-0.7040215448141097,1.0172659487143159,1.0994431505329907
1761315764137731300,0.2287314453125,-0.658559770321846,1.1894617135018108,1.069244119363278
1761315764147714300,0.23871435546875,-0.665094725048542,1.2820058494254947,1.066645481172204
1761315764157696500,0.248696533203125,-0.7349924371391534,1.216409049399197,1.1911133531663567
1761315764167678500,0.258678466796875,-0.7432242589116096,0.9922440279215574,1.4933390079893172
1761315764177660400,0.268660400390625,-0.630506226748228,0.7753747164100409,1.801165040102601
1761315764187642400,0.278642333984375,-0.47497371973097324,0.6950245838880539,1.8709508162513375
1761315764197624300,0.288624267578125,-0.33329496602118014,0.7985045398458838,1.528981399256736
1761315764207606500,0.2986064453125,-0.31010581361353395,1.1358335836887359,0.8633100433640182
1761315764217588700,0.308588623046875,-0.8506997142463922,1.4797604183614252,0.15411442038025705
1761315764227570400,0.3185703125,-1.771636163279414,1.8976123209446667,-0.396648517165333
1761315764237553700,0.3285537109375,-2.6449393389999867,2.377951659362018,-0.662132587307319
1761315764247535400,0.338535400390625,-3.3663013101935384,2.776194021590054,-0.5935762068230659
1761315764257517600,0.348517578125,-3.6640959237664936,3.122055915978551,-0.2195399006939493
1761315764267499500,0.35849951171875,-3.430426868623495,3.540933654478192,0.19946561063751578
1761315764277481500,0.3684814453125,-2.7678824125796555,3.8549011119559404,0.7370085992671549
1761315764287464700,0.378464599609375,-1.7567822930186985,3.9391958904504776,1.182095714778453
1761315764297446400,0.3884462890625,-0.6898445509016513,3.775176125594973,1.369742585067451
1761315764307428600,0.3984287109375,0.15323475146889687,3.3666946934252975,1.3635337935552
1761315764317410600,0.40841064453125,0.7006862629115581,2.83709360371083,1.2349549060456455
1761315764327393500,0.4183935546875,0.9957809698760509,2.400866671003401,1.0251268913477658
1761315764337375700,0.428375732421875,1.0851017598390578,2.0522811968699095,0.7536839858666062
1761315764347357400,0.438357421875,1.0531710825711489,1.761679125149548,0.4821276100736111
1761315764357339600,0.448339599609375,0.9598205987006425,1.5158490920916199,0.3365148779157549
1761315764367321600,0.458321533203125,0.8298726147949695,1.3647127742066978,0.38310057840403167
1761315764377304600,0.4683046875,0.7138543720424175,1.3469243117988108,0.5304559529781341
1761315764387286800,0.478286865234375,0.6101613578557967,1.468218741388619,0.803767648005858
1761315764397268500,0.4882685546875,0.5381704728782176,1.6352715903297066,1.1902215919584036
1761315764407250700,0.498250732421875,0.3802005095809698,1.753366639356315,1.5402610642924903
1761315764417232600,0.508232666015625,0.26052783597409723,1.8078110539883374,1.8149639944829046
1761315764427215600,0.518215576171875,0.19319909758865833,1.8082973762005567,2.0264147880770267
1761315764437197600,0.528197509765625,0.13572072208821773,1.758847701115906,2.1321037983864546
1761315764447179500,0.538179443359375,0.028427053061127663,1.6734990296542644,2.1936571682408452
1761315764457161700,0.54816162109375,-0.10462181946933269,1.5972832204580305,2.264806926219165
1761315764467144400,0.55814453125,-0.19623919593691824,1.560860784728825,2.377444002100825
1761315764477126700,0.568126708984375,-0.25658991200327874,1.5218144302368164,2.5454879079058763
1761315764487108400,0.5781083984375,-0.2790560108333826,1.4948533580750225,2.7975176723867654
1761315764497090600,0.588090576171875,-0.21716507958769796,1.5047045977428555,3.078069766996801
1761315764507072500,0.598072509765625,-0.16632161205708978,1.513060922677815,3.360110346598923
1761315764517055500,0.608055419921875,-0.2191641444504261,1.5073080582395195,3.5335593263179064
1761315764527037700,0.61803759765625,-0.33650925189256664,1.4779992539077997,3.533449436202645
1761315764537019400,0.628019287109375,-0.49675125177502627,1.414241359746456,3.6069118550375103
1761315764547001600,0.638001708984375,-0.7445020237624644,1.394508193011582,3.6152930221527813
1761315764556984600,0.647984619140625,-0.9781839383870362,1.4458040804848074,3.534189440914988
1761315764566966500,0.657966552734375,-1.283556878259778,1.5187667331039905,3.4354441122636197
1761315764576948700,0.66794873046875,-1.5709861651629209,1.5632809976130724,3.385810312783718
1761315764586930400,0.677930419921875,-1.7428022829830645,1.6375056329920887,3.2670120839238166
1761315764596912600,0.68791259765625,-1.862426441273093,1.7396379737332461,3.12966697550416
1761315764606895400,0.697895263671875,-1.9368413385272025,1.8202227917939424,3.010819062283635
1761315764616877600,0.707877685546875,-1.9538731373488902,1.9144296002328394,2.9297464607059953
1761315764626859800,0.71785986328125,-1.9464011940330266,2.0308178453415633,2.8597826976418492
1761315764636841500,0.727841552734375,-1.9416788416862487,2.1383774718284605,2.798454953236878
1761315764646823700,0.73782373046875,-1.8791560422778129,2.244461765065789,2.732836525900662
1761315764656806400,0.747806396484375,-1.7489789257913826,2.3349635815069076,2.6367560325443744
1761315764666788600,0.75778857421875,-1.6001345182359217,2.3416373601824043,2.4509096358060836
1761315764676770600,0.7677705078125,-1.4591314718306063,2.238523607188463,2.251896298980713
1761315764686752500,0.77775244140625,-1.2714140205234288,2.1446774487555027,2.006034117218852
1761315764696735700,0.78773583984375,-1.0241665218830107,2.0979870092511175,1.7084771117940545
1761315764706717400,0.797717529296875,-0.6564642593473196,2.049880273208022,1.4372931495100258
1761315764716699600,0.80769970703125,-0.2923018613755703,1.9991946265876293,1.2300170112520457
1761315764726681300,0.817681396484375,0.026711481314897537,1.9645286791369319,1.0656110966231673
1761315764736663600,0.82766357421875,0.34089725771844387,1.967738288833201,0.9212022603623569
1761315764746646500,0.837646484375,0.5781272202134132,1.9220669632434844,0.8005582575052976
1761315764756628500,0.84762841796875,0.6951531787037849,1.83395379550457,0.7282116909578442
1761315764766610700,0.857610595703125,0.6507663399666548,1.7117776146441697,0.6961429203934967
1761315764776592400,0.86759228515625,0.5522136112779379,1.5916615811839698,0.6367499434433878
1761315764786574600,0.87757470703125,0.492848399117589,1.4999968584433196,0.5742999900754541
1761315764796557600,0.8875576171875,0.47027883991301056,1.3558347634851933,0.5246976086471229
1761315764806539500,0.89753955078125,0.48460079525411126,1.1649483267530798,0.46855811706762757
1761315764816521700,0.907521728515625,0.48925417401790616,0.9865282806232571,0.44122167225480075
1761315764826503400,0.91750341796875,0.4757458731472492,0.8215890628352761,0.41189021769985557
1761315764836486700,0.927486572265625,0.4856617024838924,0.7077481641218066,0.3836380828142166
1761315764846468400,0.93746826171875,0.52236967715621,0.6507438358739018,0.3958543345803395
1761315764856450600,0.947450439453125,0.5830144077330828,0.5591311355814338,0.4381700661318376
1761315764866432500,0.9574326171875,0.6317512583732605,0.47449616534709926,0.5100282281078398
1761315764876414500,0.96741455078125,0.5861696568936109,0.4307297965958714,0.6561044861242175
1761315764886397700,0.977397705078125,0.5144277782410382,0.42680560888946056,0.804898478666693
1761315764896379400,0.98737939453125,0.4036538658827543,0.35285102262347934,0.9451898696713149
1761315764906361600,0.997361572265625,0.29918285306096076,0.10273176793903112,1.12777587637417
1761315764916343600,1.007343505859375,0.2312193239033222,-0.23235534219592807,1.2919267933286727
1761315764926326500,1.017326416015625,0.1721294215530157,-0.49552901650369163,1.3287087100200354
1761315764936308700,1.027308837890625,0.12399872011244296,-0.5886138351753354,1.1313636717330664
1761315764946290400,1.03729052734375,-0.052446811074018475,-0.5637886059984565,0.7479160699896514
1761315764956272600,1.047272705078125,-0.3333925811767578,-0.5212231374695897,0.36435795707646756
1761315764966254600,1.057254638671875,-0.7274550273716449,-0.45869829223453995,0.07039327705521137
1761315764976237600,1.067237548828125,-1.099551725474,-0.3280243321418762,-0.1746610589224845
1761315764986219500,1.077219482421875,-1.342742642199993,-0.10670476322323083,-0.34580841063559054
1761315764996201500,1.087201416015625,-1.4725906728625298,0.21347411611527203,-0.44313831953108307
1761315765006183700,1.09718359375,-1.4305793310850858,0.5641553934842348,-0.4203859511055052
1761315765016165400,1.107165283203125,-1.3899416157484055,0.7882967418253422,-0.22081921818107364
1761315765026148600,1.117148681640625,-1.3383049520134924,0.8725891822323203,0.008174903953447938
1761315765036130300,1.12713037109375,-1.2208622294157743,0.9524258122742175,0.11774221700094639
1761315765046112500,1.137112548828125,-1.097412375357747,1.0237553107336164,0.0723782403273508
1761315765056094700,1.1470947265625,-0.9875900646358727,0.995590708000958,-0.10416183727476745
1761315765066076400,1.157076416015625,-0.9432833053976297,0.9150488522991538,-0.2857003076860681
1761315765076059600,1.1670595703125,-0.9410878411799669,0.8984186200156807,-0.47415553521588444
1761315765086041300,1.177041259765625,-0.9558727378576993,0.9440168803691863,-0.6744236213427036
1761315765096023600,1.1870234375,-1.050374729850888,1.0385144884482025,-0.8373052490137517
1761315765106005500,1.197005615234375,-1.196949438908696,1.1494491443261503,-1.0090433331616222
1761315765115988500,1.206988525390625,-1.4044927036702632,1.2594699002295733,-1.175789819567278
1761315765125970700,1.216970703125,-1.5692033733993769,1.3765268383800984,-1.3502702612258493
1761315765135952400,1.226952392578125,-1.5718132636368274,1.4987342911615966,-1.4920863775797188
1761315765145934600,1.2369345703125,-1.453704770606756,1.5869965119823812,-1.6947912623994053
1761315765155916500,1.24691650390625,-1.2830436680406332,1.5746277365356682,-1.933636405006051
1761315765165899500,1.2568994140625,-1.0778712240636348,1.4705059755429624,-2.1237549261055886
1761315765175881700,1.2668818359375,-0.7668184849888086,1.356471307823062,-2.3301762010999023
1761315765185863400,1.276863525390625,-0.4506751447767019,1.254913844360411,-2.447275955478847
1761315765195845600,1.286845703125,-0.1030482865422964,1.1751380045950413,-2.471625383837521
1761315765205827800,1.296827880859375,0.25413608911037444,1.0679869589090347,-2.418183131985366
1761315765215811000,1.30681103515625,0.5404682284265756,0.9728674195393919,-2.2779525312572715
1761315765225793000,1.31679296875,0.8723749549597501,0.9493705163568258,-2.093834127355367
1761315765235775000,1.32677490234375,1.1553799956798554,0.9093892191022634,-1.9261593471236527
1761315765245757200,1.336757080078125,1.3917612323909998,0.8603501706451178,-1.7534890966922043
1761315765255740000,1.346739990234375,1.4921844311267136,0.794587658663094,-1.5794741536535322
1761315765265722000,1.35672216796875,1.4975059184104202,0.7007286407485603,-1.5061273240223525
1761315765275703800,1.366703857421875,1.4054530731350183,0.5738613794624805,-1.4927784514971076
1761315765285686000,1.37668603515625,1.273515376716852,0.44953328126519915,-1.5371895478926598
1761315765295668000,1.38666796875,1.1070943959385156,0.31337913619577884,-1.645104271427542
1761315765305651000,1.39665087890625,0.9317220469415187,0.13299743460416794,-1.7320187309011816
1761315765315633200,1.406633056640625,0.7253449033498763,-0.04618950424492359,-1.7514545221246778
1761315765325614800,1.41661474609375,0.5700415289133787,-0.17779314640313384,-1.7573831815212964
1761315765335597000,1.42659716796875,0.5485317078948021,-0.25590076069533824,-1.6942103937715292
1761315765345579000,1.4365791015625,0.6369803911983967,-0.30030221247971056,-1.6184405747771262
1761315765355562000,1.44656201171875,0.778744485104084,-0.34276392837315794,-1.5111878222823143
1761315765365544200,1.456544189453125,0.8737263695687055,-0.3914619083076715,-1.4030677854336797
1761315765375526000,1.46652587890625,0.8423229310452938,-0.40842911746054883,-1.336142513282597
1761315765385508000,1.476508056640625,0.6717331401497125,-0.38588323139250275,-1.3144004909433424
1761315765395491000,1.486490966796875,0.4878671035736799,-0.37396307649612426,-1.343600720334053
1761315765405473000,1.49647314453125,0.32712767556309696,-0.36714930482804775,-1.3759620441041887
1761315765415455000,1.506455078125,0.2405395254343748,-0.39268326679617166,-1.3976752787403761
1761315765425437000,1.51643701171875,0.20281623623967168,-0.47539223740398884,-1.4008673527799547
1761315765435419100,1.526419189453125,0.22673487196564673,-0.5698914529182016,-1.3983356423452495
1761315765445401900,1.53640185546875,0.32634909240603444,-0.6486671757303178,-1.3895336194694041
1761315765455384000,1.546384033203125,0.4810030630230903,-0.6845408915355801,-1.3647636276111006
1761315765465365800,1.55636572265625,0.6760001499444246,-0.6976195688173175,-1.3150129237532615
1761315765475348000,1.566347900390625,0.9014771308034658,-0.7079495319128036,-1.2312787017509341
1761315765485330200,1.576330078125,1.111461358976364,-0.7439340146161615,-1.1343049858819694
1761315765495313000,1.58631298828125,1.2906705096572637,-0.8227787110112607,-1.0574899686835706
1761315765505295000,1.596295166015625,1.3742214840471745,-0.9324402782134711,-1.0135472204521299
1761315765515276800,1.60627685546875,1.3644716589272021,-1.0573398926883935,-1.0126058479487896
1761315765525259000,1.616259033203125,1.3086474803745747,-1.173418925717473,-0.9663689974308013
1761315765535241000,1.626240966796875,1.191860006815195,-1.2987507941298186,-0.9544953120246529
1761315765545224000,1.636223876953125,1.088441717916727,-1.396242177197337,-0.858444483154267
1761315765555206100,1.6462060546875,0.8791548243582248,-1.4648912044011055,-0.802325924764946
1761315765565187800,1.656187744140625,0.7112900745123625,-1.5098966134279965,-0.77426193286255
1761315765575170000,1.666170166015625,0.5546814626961947,-1.5687888012491165,-0.7312552964374422
1761315765585153000,1.676153076171875,0.41258243774771686,-1.62303535522148,-0.654208589375019
1761315765595135000,1.686135009765625,0.37799920014441013,-1.673655243129283,-0.5564112090982496
1761315765605117200,1.6961171875,0.38768823498785493,-1.6794373336620627,-0.4670425614055246
1761315765615099000,1.706098876953125,0.3489069611728191,-1.6978040343493221,-0.3571531767968088
1761315765625081000,1.7160810546875,0.21207214036285876,-1.6900296009555458,-0.19645923189576714
1761315765635063800,1.726063720703125,-0.05040799872279167,-1.6161952800683677,-0.13659056372530756
1761315765645046000,1.7360458984375,-0.4054442564308643,-1.4995295331925154,-0.0935882381491363
1761315765655028200,1.7460283203125,-0.8150327730596065,-1.3336987733922898,-0.034176593031175435
1761315765665010000,1.756010009765625,-1.1906570607662201,-1.1308997805483638,-0.0031777532532811163
1761315765674992000,1.7659921875,-1.5859224530100822,-1.0016533690407872,0.04603646910768002
1761315765684974800,1.775974853515625,-1.939165982082486,-0.9287624664835631,0.14235292664431035
1761315765694957000,1.78595703125,-2.220403428608179,-0.8518092829234898,0.2126779973015189
1761315765704939000,1.79593896484375,-2.3856407525599,-0.8094885829359293,0.31079025221373885
1761315765714921000,1.8059208984375,-2.3825720126390455,-1.0078916789084673,0.5897228923957795
1761315765724903200,1.815903076171875,-2.1225386821836234,-1.3034824988268314,0.8607205383274704
1761315765734886000,1.825885986328125,-1.80064481562078,-1.4615294728830457,0.9358986019738018
1761315765744868000,1.8358681640625,-1.5972791288048027,-1.5326269161522388,0.9114765467703342
1761315765754849800,1.845849853515625,-1.5349375311821698,-1.5653322310544548,0.8820010806348174
1761315765764832000,1.85583203125,-1.6311556794434785,-1.472377322372794,0.8685241247504949
1761315765774815000,1.86581494140625,-1.8117466398715971,-1.2529421058960257,0.6979086879570037
1761315765784797000,1.875796875,-2.0972131022691727,-0.9404774541966616,0.46155068599097426
1761315765794779100,1.885779052734375,-2.458291562750935,-0.6354213251881301,0.20489830321073532
1761315765804760800,1.8957607421875,-2.790611546260118,-0.4254848816797137,0.03209876384381204
1761315765814743000,1.905742919921875,-2.904724832174182,-0.24793197377324103,0.013288776368461548
1761315765824726000,1.91572607421875,-2.7555267888754607,-0.06443944668471813,0.10358129744045436
1761315765834708000,1.9257080078125,-2.3914111526548862,0.1472802269786596,0.3365434098904952
1761315765844690200,1.935690185546875,-1.8365525798261164,0.3962576181516051,0.5692918065246194
1761315765854672000,1.945671875,-1.1687667159974575,0.6385252825528382,0.728952207126841
1761315765864654000,1.955654052734375,-0.4905214174747467,0.846932762928307,0.8753605466417967
1761315765874636800,1.96563671875,0.06482640017569065,0.997526352238655,0.9747318982370197
1761315765884619000,1.975618896484375,0.5614379512190818,1.0695818268850446,1.0974842715501785
1761315765894601200,1.985601318359375,0.9793816237390041,1.0719526476696133,1.2147668351501226
1761315765904583000,1.9955830078125,1.2946674703389405,1.0239806439220904,1.329281395341456
1761315765914565000,2.005565185546875,1.5361241106182335,0.917883198942244,1.4696259778380394
1761315765924547800,2.0155478515625,1.7313240266352892,0.7820891193568706,1.619569286546111
1761315765934530000,2.025530029296875,1.8161562730073928,0.6787292826473712,1.6876769003495573
1761315765944512000,2.035511962890625,1.8080097914308308,0.5927136717095971,1.7496426503971219
1761315765954494000,2.045493896484375,1.702287901765108,0.5295525743976235,1.7564703044600785
1761315765964477200,2.055477294921875,1.515358385965228,0.5073097629293799,1.8137458508647977
1761315765974459000,2.065458984375,1.3053519459605216,0.5452417264387012,1.8604545566782353
1761315765984441000,2.075441162109375,1.145163722091913,0.6594187252387405,1.9284743460677563
1761315765994423000,2.085423095703125,0.9996464131325483,0.8281187568649649,2.0085181891195476
1761315766004405000,2.095405029296875,0.8458815003097057,0.9756374687746167,2.0505263160265983
1761315766014387000,2.105386962890625,0.6075134736955166,1.0859513624057173,2.040244137595594
1761315766024370000,2.115369873046875,0.23339491437673568,1.2020944005817173,2.016311765605211
1761315766034352000,2.12535205078125,-0.21121406222879885,1.358921623584628,2.0318552255652844
1761315766044333800,2.135333740234375,-0.6691723497509956,1.566795143213868,2.002686560356617
1761315766054316000,2.14531591796875,-1.0447580590128898,1.7689955856427548,1.922619628690183
1761315766064299000,2.155299072265625,-1.279891926011443,1.9027815402761101,1.820549831791222
1761315766074281000,2.165281005859375,-1.3745236818641424,1.9038100065410135,1.6995162450946866
1761315766084263200,2.17526318359375,-1.3406301800906657,1.8897016939505933,1.5469621693663298
1761315766094244900,2.185244873046875,-1.1117571270525455,1.8498361320301888,1.3814252779461442
1761315766104227000,2.19522705078125,-0.7328554251104593,1.7391735710918903,1.2432615466199815
1761315766114209800,2.205209716796875,-0.25569033281505105,1.600798242841661,1.165239199458435
1761315766124192000,2.21519189453125,0.2566255678385496,1.475122821688652,1.1409880438424647
1761315766134174200,2.22517431640625,0.7052823585301637,1.356049575279653,1.0993811181474475
1761315766144156000,2.235156005859375,1.0353753136396406,1.223669395790994,1.0591459191970527
1761315766154138000,2.24513818359375,1.2784306212872265,1.0973895790040493,0.9735109781399369
1761315766164120800,2.255120849609375,1.4494780928224325,0.998330069836974,0.8593984228782355
1761315766174103000,2.26510302734375,1.4970488222926854,0.866252380426228,0.7537794821303337
1761315766184085000,2.2750849609375,1.4604220961630343,0.7471741655811667,0.702732016460225
1761315766194067000,2.28506689453125,1.330282973599434,0.6727490391939878,0.6409161962773651
1761315766204049000,2.295048828125,1.1377549071401356,0.619221154884994,0.5881213754832745
1761315766214031600,2.305031494140625,0.9479168104171752,0.598545738863945,0.6102769835921004
1761315766224013800,2.315013916015625,0.7942156104803085,0.5964359071031212,0.6314390506189316
1761315766233995800,2.324995849609375,0.7246738722205162,0.5926327154278754,0.6116799457252026
1761315766243977700,2.334977783203125,0.69092883900702,0.5523986124560236,0.623297537478432
1761315766253961000,2.3449609375,0.6535363892018795,0.43978024127483367,0.6445694580879062
1761315766263942700,2.354942626953125,0.573036034554243,0.33156302766203877,0.6260976165257394
1761315766273924900,2.3649248046875,0.4807476269572973,0.23048399536609648,0.5558549269223585
1761315766283906800,2.37490673828125,0.3796083889067173,0.08556903621405362,0.4844058937365189
1761315766293888800,2.384888671875,0.353051221370697,-0.0962818611472845,0.4284121673032641
1761315766303871700,2.394871826171875,0.3568488600879907,-0.2994032178133726,0.38139468780159946
1761315766313853700,2.404853759765625,0.3604156126588583,-0.5082745163083077,0.3618543767577037
1761315766323836000,2.4148359375,0.25922026050686836,-0.7074678858757019,0.36114867617376145
1761315766333817600,2.424817626953125,0.06425824489891528,-0.8668702200636267,0.2990298544563353
1761315766343799800,2.4347998046875,-0.20899989331066607,-0.9908838454842567,0.20700376932369544
1761315766353782500,2.444782470703125,-0.5383265402227639,-1.077960363651812,0.07306589379794895
1761315766363764700,2.4547646484375,-0.8394231179505586,-1.1170803679019212,-0.07126673542149364
1761315766373747000,2.464746826171875,-1.083596615973115,-1.1050362943649292,-0.1616006479497999
1761315766383728600,2.474728759765625,-1.302559100371599,-1.0136024577707052,-0.22558336384296415
1761315766393710800,2.4847109375,-1.5487877773582934,-0.9031292819246649,-0.20609697494339196
1761315766403693600,2.494693603515625,-1.756160361728072,-0.7696300352782011,-0.17381551147643476
1761315766413675800,2.50467578125,-1.9113935935378072,-0.6434022409394383,-0.11957469312511383
1761315766423657700,2.51465771484375,-2.0785113244086504,-0.6159209442958236,-0.019453253814950583
1761315766433639700,2.5246396484375,-2.180721991083026,-0.8631409704074263,0.2822247770626098
1761315766443621600,2.53462158203125,-2.008594323095679,-1.2305834129631519,0.5884039918169379
1761315766453604600,2.5446044921875,-1.6284341455250977,-1.4568667417690158,0.6753621443018317
1761315766463586800,2.5545869140625,-1.2898615313619375,-1.4927178073510528,0.5035231205301359
1761315766473568800,2.56456884765625,-1.1813923888146876,-1.448658300872147,0.19337357737272975
1761315766483550700,2.57455078125,-1.3548656261920928,-1.3540060867533088,-0.1520590587530285
1761315766493534000,2.584533935546875,-1.7668062589049338,-1.1166691567525266,-0.40616752920411525
1761315766503515600,2.594515625,-2.2447031726062296,-0.7528089565977454,-0.4879406802665442
1761315766513497900,2.604497802734375,-2.6957296150386334,-0.35443186207413674,-0.41506497527845204
1761315766523479800,2.614479736328125,-2.9889152735114095,0.04092851497679949,-0.22721900222077965
1761315766533461800,2.624461669921875,-3.156179134854674,0.3599062018319964,0.05566504246816039
1761315766543445000,2.634445068359375,-3.164024003136158,0.6527247805580496,0.3065604691568762
1761315766553426700,2.6444267578125,-3.040832507753372,0.8889601790577173,0.47409635237455366
1761315766563409000,2.654408935546875,-2.7627853817015886,1.0490800138652323,0.541411354495585
1761315766573390800,2.664390869140625,-2.367274490264058,1.1524807671070099,0.45465858838967976
1761315766583372800,2.674372802734375,-1.8977537752419709,1.1372948884129523,0.26062727776058014
1761315766593355800,2.684355712890625,-1.3782242899477481,1.0557207670539617,0.08747428531348705
1761315766603337700,2.694337646484375,-0.7803145108997821,0.9857412218987941,-0.0702922643661499
1761315766613319700,2.704319580078125,-0.208293206346035,0.9773591780006885,-0.1041102166853845
1761315766623301600,2.714301513671875,0.3289735956907272,0.9955693729519843,0.013703677312284708
1761315766633283800,2.724283935546875,0.813383252286911,1.0514017348110676,0.23399331866130232
1761315766643266600,2.7342666015625,1.1897989826321602,1.1446896748393773,0.42522915335297584
1761315766653248800,2.744248779296875,1.5161708713918924,1.2264651639893651,0.5228734619598835
1761315766663230700,2.754230712890625,1.7634131093353032,1.2148176885545252,0.5668561038102954
1761315766673212700,2.764212646484375,1.9286948569506406,1.0815122109144926,0.5100645415302366
1761315766683196000,2.77419580078125,2.012373257112503,0.8645078748464584,0.3611449498467147
1761315766693177600,2.784177490234375,1.9999433991283178,0.6282116860702633,0.16898863930925725
1761315766703159800,2.794159912109375,1.8469149838864802,0.4696735674962401,-0.010168927314877509
1761315766713141800,2.804141845703125,1.644620141172409,0.434244234457612,-0.20522863114364445
1761315766723123700,2.814123779296875,1.3752017272561787,0.48367637388557194,-0.36206747151911256
1761315766733107000,2.82410693359375,1.1268132418870924,0.5431175738915801,-0.4362147308129817
1761315766743088600,2.834088623046875,0.9182038091987371,0.6240490134328603,-0.36186756503283973
1761315766753070800,2.84407080078125,0.722488344874978,0.7159644960641861,-0.23207886334210634
1761315766763052800,2.854052734375,0.5936030217647552,0.8381652268439531,-0.06149623283967375
1761315766773034800,2.86403466796875,0.5153904857933521,0.9721960961490869,0.17922639407664537
1761315766783017700,2.874017822265625,0.500869793009758,1.0533578373149037,0.4743147443655878
1761315766792999700,2.883999755859375,0.5449392363607883,1.0771820727556942,0.784800862533599
1761315766802982000,2.89398193359375,0.6189630884706974,1.027208081535995,1.019646560240537
1761315766812963800,2.9039638671875,0.7469529240459203,0.9211150204703211,1.226194822615385
1761315766822945800,2.91394580078125,0.8662100025892258,0.8193018286809325,1.3679615468695758
1761315766832928800,2.9239287109375,0.9889292042851447,0.7252823595076799,1.453101982408017
1761315766842910700,2.93391064453125,1.0626824227601288,0.6431064728632568,1.5056450934633612
1761315766852892700,2.943892578125,1.0578799909144638,0.5414961101695895,1.526074425768852
1761315766862874600,2.95387451171875,1.02696579721272,0.47015579805523156,1.5020005994811654
1761315766872856800,2.96385693359375,0.971179612582922,0.40059447831213474,1.4355821078084408
1761315766882839600,2.973839599609375,0.9269967719852924,0.3254448370426893,1.3588548419587314
1761315766892821800,2.98382177734375,0.8273644313663244,0.2511114805921912,1.3051678215652704
1761315766902803700,2.9938037109375,0.6694213560760021,0.2520423317015171,1.2852648512214422
1761315766912785700,3.00378564453125,0.4658452413797378,0.3255474206343293,1.2633277447015046
1761315766922769000,3.013768798828125,0.26236148114204405,0.4319593383908272,1.2128054719492793
1761315766932750600,3.02375048828125,0.08303951773643493,0.5296390836372972,1.1554529147855936
1761315766942732800,3.03373291015625,-0.0747445675998926,0.5727224385604262,1.1250251894265413
1761315766952714800,3.04371484375,-0.21002456018328666,0.5454585840597749,1.089293585505709
1761315766962696700,3.05369677734375,-0.31212358317673206,0.5243237338334321,1.067094978505373
1761315766972680000,3.063679931640625,-0.26987843264341355,0.5287041408747434,1.0467287745639682
1761315766982661600,3.07366162109375,-0.10359890616238117,0.5241083375170826,1.0621905475899576
1761315766992643800,3.083643798828125,0.11831366021335124,0.4859168462887406,1.0850402389101683
1761315767002625800,3.093625732421875,0.3860603415250778,0.43202334353774785,1.0870632691703737
1761315767012607700,3.103607666015625,0.6616963147819042,0.3599289981856942,1.0630277290664614
1761315767022590700,3.1135908203125,0.8414443946450948,0.26201047574728725,1.0079556840553878
1761315767032572700,3.12357275390625,0.8912871607005596,0.13368132521510123,0.8977632248468697
1761315767042555000,3.133554931640625,0.8351151916235685,0.020552666424214838,0.7512204452972858
1761315767052536800,3.143536865234375,0.7661725883007049,-0.04138941048681736,0.6416456065304577
1761315767062518800,3.153518798828125,0.7044084983050822,-0.08921879089325666,0.5596512869980186
1761315767072501800,3.163501708984375,0.5976999356895685,-0.16875176181346177,0.4874645871873945
1761315767082483700,3.173483642578125,0.44113574753701684,-0.2909890252113342,0.455265504774265
1761315767092465700,3.183465576171875,0.37370004164576526,-0.3782981830909848,0.4145556740494445
1761315767102447900,3.19344775390625,0.41165713959634304,-0.4178773292854428,0.3693640217354521
1761315767112430800,3.203430908203125,0.44937984426915645,-0.48960313358604907,0.39942415589112784
1761315767122412800,3.213412841796875,0.42028585173189636,-0.6023050913974642,0.4520339755071327
1761315767132394800,3.223394775390625,0.3546452125638723,-0.6633534343391656,0.40647586450092493
1761315767142376700,3.233376708984375,0.22331249630153177,-0.6974398283362389,0.2701086794690229
1761315767152358700,3.243358642578125,0.04674713812768459,-0.7750546906754374,0.13547273867651818
1761315767162342000,3.253341796875,-0.1423451086640358,-0.8744026613950728,0.06816949092536233
1761315767172323600,3.263323486328125,-0.2669400411039591,-0.9330383902370929,0.051567251760512585
1761315767182305800,3.273305908203125,-0.36124914087355137,-0.9108043465971947,0.09149356742482632
1761315767192287700,3.283287841796875,-0.5609779324918985,-0.8701564021274447,0.1366936039746739
1761315767202269700,3.293269775390625,-0.8758470149844885,-0.8147583400323987,0.1533302477326244
1761315767212253000,3.3032529296875,-1.2140689160138367,-0.7446659821525216,0.18368713634517042
1761315767222234600,3.313234619140625,-1.5344091233938932,-0.6887348360940814,0.21879801455177367
1761315767232216800,3.323216796875,-1.7316683100283146,-0.6673752372011542,0.2641898290803656
1761315767242198800,3.33319873046875,-1.8809855957925319,-0.7486763868376612,0.44931795801408586
1761315767252180700,3.3431806640625,-1.875367755910754,-0.958048036070168,0.7547402169212698
1761315767262163700,3.353163818359375,-1.6576748530566692,-1.2208262813195585,1.0689026124492287
1761315767272145700,3.363145751953125,-1.2476993829369545,-1.4170117012426255,1.254973465593159
1761315767282128000,3.3731279296875,-0.8853408195167779,-1.4933298017695544,1.30504711779505
1761315767292109800,3.38310986328125,-0.7537959218084812,-1.5914777490496634,1.2490487517192959
1761315767302091800,3.393091796875,-0.9118892192244529,-1.6015052220672368,1.0133744211684912
1761315767312074800,3.40307470703125,-1.390214587470889,-1.3666101322606206,0.5971982697777449
1761315767322056700,3.413056640625,-2.192972985368967,-1.0094880081892013,0.1444919844996184
1761315767332038700,3.42303857421875,-3.057351096355915,-0.5760498294174671,-0.1254214463919401
1761315767342020900,3.433020751953125,-3.5486242089807987,-0.06224105985760688,-0.18760405406057834
1761315767352002800,3.4430029296875,-3.7708565088301893,0.42178368907421826,-0.04418232914097607
1761315767361985800,3.45298583984375,-3.642682548859715,0.9133689363881945,0.10684650978147983
1761315767371967700,3.4629677734375,-3.2923271424442526,1.2967939609736203,0.25566395626477895
1761315767381949700,3.47294970703125,-2.6950650136500593,1.537786783133447,0.4535623906508088
1761315767391931600,3.482931640625,-1.9180659109085798,1.6450035875320435,0.5911434997834265
1761315767401915000,3.492914794921875,-1.143427692079544,1.655330628018081,0.5858337029375136
1761315767411896800,3.502896728515625,-0.42516660951077934,1.6213719520539045,0.47689248589910566
1761315767421878800,3.512878662109375,0.16968261292278766,1.595930636805296,0.4416315682299435
1761315767431860700,3.52286083984375,0.7048205862373114,1.5460522149145601,0.5196384255614132
1761315767441842700,3.5328427734375,1.2705308079481124,1.4483122639134525,0.6045055971164256
1761315767451826000,3.542825927734375,1.8651731096327304,1.3404434253469109,0.7018702850643544
1761315767461807600,3.5528076171875,2.4250854587197304,1.184029167059064,0.7803053777452558
1761315767471789800,3.562789794921875,2.9423130968123674,0.9761965639621019,0.9089473936188965
1761315767481771800,3.572771728515625,3.2659026613771913,0.7716209168344735,1.1310553364362568
1761315767491753700,3.582753662109375,3.4142858811616894,0.6410115464106202,1.3207961833298205
1761315767501736700,3.59273681640625,3.4675931084573266,0.5898214573994278,1.51026793095842
1761315767511718700,3.60271875,3.264985546532273,0.5836027290150523,1.6912063896499574
1761315767521700900,3.612700927734375,2.775328636932373,0.6108481710761785,1.785095948833227
1761315767531682800,3.622682861328125,2.1387235087871552,0.7162330838724971,1.707080688999593
1761315767541664800,3.632664794921875,1.4336796351879835,0.9197788034304976,1.5902052448958157
1761315767551647700,3.642647705078125,0.7882482265084981,1.1697867066949605,1.5205143074236809
1761315767561629700,3.652629638671875,0.21594927405714986,1.4075754721164702,1.5205259978614747
1761315767571611600,3.662611572265625,-0.2631780582219362,1.5390136945798991,1.5744731304958461
1761315767581593900,3.67259375,-0.645745296934247,1.684413806900382,1.6873768944896756
1761315767591576800,3.682576904296875,-0.8819429937720298,1.8786214970096944,1.8523710573352872
1761315767601558800,3.692558837890625,-0.9947592256128788,2.0689996919587252,2.0252241169877347
1761315767611540700,3.702540771484375,-1.0220072980225086,2.21469440331161,2.226580071416497
1761315767621522700,3.712522705078125,-1.0055436544775962,2.318782262034714,2.4431373943693933
1761315767631505000,3.7225048828125,-0.8913134641855954,2.321675645388663,2.5528920466825364
1761315767641488000,3.73248779296875,-0.7491466346979141,2.231360291430354,2.592858438628912
1761315767651469800,3.7424697265625,-0.5435293695628642,2.0245731057330967,2.5280092420995235
1761315767661451800,3.75245166015625,-0.2938268789857626,1.746760665220022,2.3496670835115014
1761315767671433700,3.762433837890625,-0.08360475040376186,1.419168879276514,2.080848827445507
1761315767681415700,3.772415771484375,0.08302724277675151,1.0950713651895523,1.755070082273334
1761315767691399000,3.78239892578125,0.21481354802548885,0.8271469892233609,1.4655835705794393
1761315767701380600,3.792380615234375,0.3187041306108236,0.6415554440289736,1.2236621623326092
1761315767711362800,3.80236279296875,0.41343700875043865,0.5297217934846877,1.0349201172180473
1761315767721344800,3.8123447265625,0.46962709800601005,0.44205461594760415,0.8654447903703898
1761315767731326700,3.82232666015625,0.47512861803174017,0.374440923140943,0.7787120441392064
1761315767741309700,3.832309814453125,0.4072825777739286,0.30537615474313495,0.7154507013231516
1761315767751291600,3.842291748046875,0.34470950948297974,0.27863018663674594,0.6669644644431769
1761315767761273900,3.85227392578125,0.30271979501545426,0.320516148468852,0.6570401595391333
1761315767771255800,3.862255859375,0.3007809359073639,0.3353457610711455,0.6513935319542884
1761315767781237800,3.87223779296875,0.31779929072558877,0.2920420413956046,0.6282151932016015
1761315767791220700,3.882220703125,0.30967735906839366,0.20538111829161643,0.6046031757393852
1761315767801202700,3.89220263671875,0.2939519666701555,0.10154723432958125,0.571616815406084
1761315767811184600,3.9021845703125,0.32871056084036826,0.021863164500892162,0.5045053730331361
1761315767821166800,3.912166748046875,0.3696381990343332,-0.08904781824052334,0.4186265036849305
1761315767831148800,3.922148681640625,0.3977846815884113,-0.22494711176604032,0.361719315668568
1761315767841131800,3.9321318359375,0.41592590295672416,-0.4055675905495882,0.2969392023200169
1761315767851113700,3.94211376953125,0.4038327295809984,-0.5972001694738864,0.28526458314992487
1761315767861095700,3.952095703125,0.4305284288048744,-0.7285472065225244,0.242932667648606
1761315767871078000,3.962077880859375,0.4003659302532673,-0.8175544004917145,0.2436921807790175
1761315767881060900,3.972060791015625,0.293233004745841,-0.8551008718147873,0.31231695032436396
1761315767891042800,3.982042724609375,0.09496785593926906,-0.8722773398041724,0.32233572857882825
1761315767901024800,3.992024658203125,-0.15264789149165153,-0.8862997276768088,0.26072544090542943
1761315767911006700,4.0020068359375,-0.3990589393079281,-0.9435969013914466,0.20498766199462115
1761315767920988700,4.01198876953125,-0.5806809963494539,-1.04593236348927,0.13817238955665379
1761315767930972000,4.021971923828125,-0.6910065804183483,-1.1386524405017495,0.08229193250583484
1761315767940953900,4.031953857421875,-0.8067547740578651,-1.1798378528490663,0.0404023539445363
1761315767950935800,4.041935791015625,-1.0076146155327559,-1.1951400513991712,0.07030061206938698
1761315767960917800,4.051917724609375,-1.1789601932317018,-1.1231211093708873,0.14042208644589407
1761315767970899700,4.061899658203125,-1.421263221207261,-1.129805701701343,0.3114426882404834
1761315767980882700,4.071882568359375,-1.4964011720389128,-1.4044260681748388,0.6123087086154148
1761315767990864600,4.08186474609375,-1.3494406785339117,-1.696795441828668,0.8974290244564413
1761315768000846800,4.091846923828125,-1.1755641210526226,-1.920581400860846,1.018739236137271
1761315768010828800,4.101828857421875,-1.077535123977065,-1.9726514875769614,0.8716662952337414
1761315768020810800,4.111810791015625,-1.0566443116396664,-1.8573662352740763,0.5253081052282825
1761315768030793700,4.121793701171875,-1.292851945349574,-1.625960741148889,0.15764206478344275
1761315768040775700,4.131775634765625,-1.794616641372442,-1.3076421027243137,-0.06806782978232949
1761315768050757600,4.141757568359375,-2.5385738907337188,-0.944315863315761,-0.18606230451129377
1761315768060739800,4.15173974609375,-3.1537796724975107,-0.5421943215668201,-0.1980136217309162
1761315768070721800,4.1617216796875,-3.4667893908590077,-0.17055471958220003,-0.03840856804512441
1761315768080704800,4.171704833984375,-3.6195500950753687,0.08079232333153485,0.24033465051203964
1761315768090686700,4.181686767578125,-3.6027334003090856,0.23126024043560026,0.5084758110340685
1761315768100668700,4.191668701171875,-3.3491941080480814,0.3754799107998609,0.7230363341465592
1761315768110651000,4.20165087890625,-2.889404513445496,0.540109624247253,0.8284981115713715
1761315768120632600,4.211632568359375,-2.4816467193752527,0.6076739249542356,0.7896355161484331
1761315768130615800,4.22161572265625,-2.178388579699397,0.5592632375285029,0.7017986080676317
1761315768140597800,4.23159765625,-1.9542191743075847,0.5617074158102273,0.6329810193639248
1761315768150579700,4.241579833984375,-1.7581594265908003,0.64760466106534,0.5287203248245641
1761315768160562000,4.25156201171875,-1.6435826148182153,0.6987550025880336,0.5031050047159195
1761315768170545000,4.261544921875,-1.5267513021171093,0.7602876219153404,0.5807807303968817
1761315768180526800,4.27152685546875,-1.286665950191021,0.8440230129614472,0.6275815714731812
1761315768190508800,4.2815087890625,-0.9461714280545711,0.9443819142892956,0.52900655788742
1761315768200491000,4.291490966796875,-0.566558947494626,1.0476397519290446,0.32176739063896237
1761315768210473000,4.301472900390625,-0.11755144366919994,1.1062743117272853,0.11367931494358927
1761315768220456200,4.311456298828125,0.3362508932173252,1.096787229196727,-0.13389305000333115
1761315768230438000,4.32143798828125,0.7401818224757909,1.0513856604591012,-0.396045473238267
1761315768240420000,4.331420166015625,1.021825511714816,0.9978586529329418,-0.6041491483615711
1761315768250402000,4.341402099609375,1.1562824974775314,0.9590934534698724,-0.7691972698841244
1761315768260384000,4.351384033203125,1.2439596118867398,0.9173810946390032,-0.8564785899087786
1761315768270367000,4.361366943359375,1.2562673047959805,0.913642200371623,-0.9235236159820109
1761315768280349000,4.371348876953125,1.3756056318819523,1.0094339399144052,-0.9596128011688589
1761315768290331000,4.381330810546875,1.5797095698446035,1.1079247092828155,-0.9436998503092676
1761315768300313000,4.39131298828125,1.7980705812186002,1.198822247043252,-0.9320837198607623
1761315768310295000,4.401294921875,1.9954086783081293,1.2598460400655864,-0.8841418920557945
1761315768320278000,4.411278076171875,2.1202853502988814,1.3003899396389722,-0.8249697913147509
1761315768330260000,4.421260009765625,2.2277935388594865,1.2829378695785998,-0.7560176895111799
1761315768340242000,4.431241943359375,2.31702781958282,1.2483707063272595,-0.7258455463483929
1761315768350224100,4.44122412109375,2.333653960213065,1.1880430788755416,-0.7034162723973393
1761315768360205800,4.451205810546875,2.1288176163226367,1.0910238433644175,-0.5660058436565101
1761315768370189000,4.46118896484375,1.8435346937984227,1.037075395555794,-0.4632183634748682
1761315768380171000,4.4711708984375,1.569217986446619,1.0612933064892887,-0.5547320238396525
1761315768390153000,4.481153076171875,1.3699690872997046,1.0012480031102895,-0.7263510847177356
1761315768400135200,4.49113525390625,1.2810486948311328,0.8241352401867509,-0.8436020110704004
1761315768410116900,4.501116943359375,1.3849001144498585,0.6317039121001958,-0.9408261945690959
1761315768420100000,4.51110009765625,1.6007412519574165,0.49342006152570245,-1.0336494396951048
1761315768430082000,4.52108203125,1.8492033870846032,0.3303337781280279,-1.1083993410572408
1761315768440064000,4.53106396484375,2.0013164410471913,0.1190735386699438,-1.0595644368700683
1761315768450046000,4.5410458984375,2.0832722552001477,-0.026574703192710873,-1.0146703792631626
1761315768460029000,4.55102880859375,2.1725264096677304,-0.05011866038739681,-1.0801805969845504
1761315768470011000,4.561010986328125,2.1111329065501687,-0.0023597148686647414,-1.0402131090596318
1761315768479993000,4.5709931640625,1.9214561378687618,0.002762450450658798,-0.7516250805754214
1761315768489975000,4.58097509765625,1.7592893074035643,0.026367782443761825,-0.3316887729335576
1761315768499957000,4.59095703125,1.6707962004363537,-0.07014759519845247,0.0684412296719849
1761315768509940000,4.60093994140625,1.499037950283289,-0.3380015362769365,0.42229689929336306
1761315768519922000,4.610921875,1.1065712488472461,-0.5596203804031014,0.7345447664368897
1761315768529903900,4.62090380859375,0.5773275942683219,-0.6165756088122725,0.8981726093653589
1761315768539886000,4.630885986328125,-0.02743161228299141,-0.5488400431916117,0.8009886848118156
1761315768549868000,4.640867919921875,-0.546271361747384,-0.5455623366951942,0.5733418125677854
1761315768559851000,4.65085107421875,-0.9161959765076637,-0.6905395474284887,0.50244880582951
1761315768569833000,4.6608330078125,-1.0648059907853602,-0.8858668892174959,0.5137382616069167
1761315768579815000,4.67081494140625,-0.99253745791018,-1.1280632419481873,0.5377586772069335
1761315768589797000,4.680797119140625,-0.8106973742038011,-1.4203472754061222,0.5109606866523623
1761315768599778800,4.69077880859375,-0.6459861199527979,-1.7254855297401546,0.32871384877599774
1761315768609762000,4.700761962890625,-0.5666109699428081,-2.0000293238461015,0.05887092583738267
1761315768619744000,4.710743896484375,-0.5950888764083385,-2.1939365697041153,-0.15766608497984708
1761315768629726000,4.720725830078125,-0.7738882772445679,-2.303676462839544,-0.19191198038756846
1761315768639708200,4.730708251953125,-0.9396651149004698,-2.3166394047871233,-0.16687288926430047
1761315768649689900,4.74068994140625,-1.0376847596257925,-2.175126655294001,-0.1441469704542309
1761315768659673000,4.750673095703125,-1.0465233151197433,-1.878631433881819,-0.13194975218214094
1761315768669655000,4.760655029296875,-1.0561673417776822,-1.4808528897732496,-0.0708439068995416
1761315768679637000,4.770636962890625,-1.1690589769423008,-1.0701809618219733,0.03897840382233262
1761315768689619000,4.780618896484375,-1.4054402136534452,-0.779117410069704,0.10158683568760753
1761315768699601000,4.790600830078125,-1.672727460759878,-0.5940162787407637,0.098140348495543
1761315768709584000,4.800583984375,-1.8541443506181239,-0.46148675390928984,0.07755977115109562
1761315768719566000,4.810566162109375,-1.9020248766899108,-0.3426853101789951,0.06539134058207273
1761315768729548000,4.820548095703125,-1.885783935984969,-0.2080591053292155,0.1194185527153313
1761315768739530000,4.830530029296875,-1.9166952070772647,-0.13494330797493456,0.25570304616615175
1761315768749513000,4.840512939453125,-2.025101805782318,-0.32459026603996755,0.39121290198266506
1761315768759495000,4.850494873046875,-2.058709476351738,-0.8266518991827965,0.5257243944115937
1761315768769476900,4.860476806640625,-1.8945839130342006,-1.416418119263649,0.526918134240806
1761315768779459000,4.870458984375,-1.5906903980642557,-1.820547785964608,0.27223259455412624
1761315768789441000,4.88044091796875,-1.134977259120345,-1.9437845817938446,-0.22806290569901466
1761315768799424000,4.890424072265625,-0.7665197943031787,-1.9802707304090261,-0.8719717809863388
1761315768809406000,4.900406005859375,-0.648376814481616,-2.0311428395122286,-1.4928529780380426
1761315768819388000,4.910387939453125,-0.650959816712141,-2.004459999769926,-1.9542266269616781
1761315768829370000,4.9203701171875,-0.8917308128148317,-1.7681141266331075,-2.22226206208691
1761315768839351800,4.930351806640625,-1.2555845832288264,-1.2515516744509338,-2.28129789616242
1761315768849335000,4.9403349609375,-1.5919629022181032,-0.48691170254498717,-2.0799808124393224
1761315768859317000,4.95031689453125,-1.6585545585006474,0.24937603510171175,-1.5903157195329665
1761315768869299000,4.960298828125,-1.6584446683853864,0.6836500801756977,-0.888425341528654
1761315768879281200,4.97028125,-1.7698937035262583,0.8865598399177194,-0.1969220636345446
1761315768889262800,4.980262939453125,-1.9286457571119069,1.0053101379826663,0.10220350628122686
1761315768899246000,4.99024609375,-2.0382804363071916,1.0649415998637675,0.25408143631368874
1761315768909228000,5.00022802734375,-2.1283324631541967,1.111055116263032,0.387828958632797
1761315768919210000,5.0102099609375,-2.1251900734752414,1.120010868395865,0.49770358406379817
1761315768929192200,5.020192138671875,-1.8161153564751147,1.1188961851522325,0.4521222748450935
1761315768939174000,5.030173828125,-1.1753075159430504,1.0427803291991353,0.2302976790137589
1761315768949157000,5.0401572265625,-0.39883214481472967,0.9070955552071333,-0.008741378729790448
1761315768959139000,5.05013916015625,0.294005158162117,0.8562643626362085,-0.197968503947556
1761315768969121000,5.06012109375,0.7150964810580015,0.9612436172410845,-0.37452275620549913
1761315768979103000,5.07010302734375,0.8919938476651906,1.2314385684877633,-0.5411385289035737
1761315768989085000,5.0800849609375,0.9405968427926301,1.5742080498188733,-0.6070369422249495
1761315768999068000,5.09006787109375,0.9598802199333906,1.8144947695359586,-0.5073312441088259
1761315769009049900,5.1000498046875,1.0573422307759524,1.8851000453740356,-0.3547723460748792
1761315769019032000,5.110031982421875,1.1502233435690403,1.8600620502293108,-0.24185616099089383
1761315769029014000,5.120013916015625,1.2215291688919068,1.8153095930501817,-0.1949737060457468
1761315769038997000,5.1299970703125,1.4183376891493797,1.9229744334772227,-0.25016236317381263
1761315769048979000,5.13997900390625,1.6748364157378672,2.1443200136199594,-0.4071779483556747
1761315769058961000,5.1499609375,1.9216829323619602,2.3793290851950646,-0.6117345985218883
1761315769068943000,5.159943115234375,2.097797624158859,2.537192957769334,-0.7322413848653435
1761315769078924800,5.1699248046875,2.2317361390054224,2.621868552275002,-0.6557338992461562
1761315769088908000,5.179907958984375,2.2445821765750646,2.684810746139288,-0.4687621517397463
1761315769098890000,5.189889892578125,2.23241243083179,2.821687360264361,-0.46633083293959493
1761315769108872000,5.199871826171875,2.232554469650984,2.9836648056372996,-0.6364037603542209
1761315769118854100,5.209854248046875,2.0721657547742125,2.8790631521731616,-0.7402205470509827
1761315769128835800,5.2198359375,1.7585165694653986,2.366288109575212,-0.9835060101926326
1761315769138819000,5.229819091796875,1.5667513040721415,1.832026919095218,-1.5486096443124115
1761315769148801000,5.239801025390625,1.5648381639271973,1.320562082313001,-1.7140968513719737
1761315769158783000,5.249782958984375,1.7000035902202129,0.8241530681043863,-1.3852085958771407
1761315769168765200,5.25976513671875,1.8593395811736582,0.5226061162605882,-1.0010279306188226
1761315769178747000,5.269746826171875,1.8422551753818988,0.4737836331635713,-0.8589962718181312
1761315769188730000,5.279730224609375,1.5440397060483693,0.6229349147111177,-0.9469850825250148
1761315769198712000,5.289712158203125,0.9666700262039899,0.5908484623596072,-0.9970651644676923
1761315769208694500,5.299694580078125,0.32399639180004597,0.2696405322343111,-0.9602414544612169
1761315769218676200,5.30967626953125,-0.1261193655282259,-0.06649696373641491,-0.9397638990998267
1761315769228658400,5.319658447265625,-0.39322599537074565,-0.31069968785345553,-1.0652511042043566
1761315769238641200,5.32964111328125,-0.5021873053491115,-0.5760451532423496,-1.2096635206617414
1761315769248623400,5.339623291015625,-0.5012865571171045,-0.86105451952219,-1.1435086483612655
1761315769258605600,5.34960546875,-0.36670799080133437,-1.1054665024757384,-0.9502214340977371
1761315769268587300,5.359587158203125,-0.13435060277879238,-1.2448755576878785,-0.8173929263196885
1761315769278569500,5.369569580078125,0.11678104381859301,-1.3663476819321512,-0.6928944399915635
1761315769288552200,5.37955224609375,0.1307078623622656,-1.5062436438784002,-0.4486876242212951
1761315769298534400,5.389534423828125,-0.10853343995511532,-1.6230711571872234,-0.10658128297403455
1761315769308516400,5.399516357421875,-0.4952671506971121,-1.739727990104258,0.14749723073020576
1761315769318498300,5.409498291015625,-0.8062900791555643,-1.8097823540613054,0.23074498438984153
1761315769328480500,5.41948046875,-0.9308218832314014,-1.7982728257924316,0.23224852082058786
1761315769338463200,5.429463134765625,-0.9239420605897903,-1.7933111117318272,0.165527685200423
1761315769348445400,5.439445556640625,-0.8441291036844253,-1.7140344536602496,0.08134250456020235
1761315769358427400,5.449427490234375,-0.7608931865930557,-1.5769959269717335,0.0648348757430911
1761315769368409300,5.459409423828125,-0.6635106707274914,-1.4653046075075864,0.09080547556281089
1761315769378391300,5.469391357421875,-0.530549476480484,-1.4019368817076086,0.171999219302088
1761315769388374300,5.479374267578125,-0.39015374831855293,-1.3495046836808322,0.32740152406841516
1761315769398356500,5.4893564453125,-0.21164076320827005,-1.336157418590784,0.44067938207164403
1761315769408338400,5.49933837890625,-0.02158697790801525,-1.3893570938587188,0.5403207827799021
1761315769418320400,5.5093203125,0.12483867806792258,-1.5478116258025167,0.6857349236257374
1761315769428303400,5.519303466796875,0.1644780300170183,-1.7094281289085744,0.8050032542154193
1761315769438285300,5.529285400390625,0.08367255494296551,-1.8008689797654747,0.8541330496959387
1761315769448267500,5.539267578125,-0.2559802556723356,-1.7571435275465248,0.6955459774136543
1761315769458249200,5.549249267578125,-0.9016390433669089,-1.6630141682580113,0.5818626073494553
1761315769468231400,5.5592314453125,-1.6077473313272,-1.5873817119076847,0.6843892081052064
1761315769478214100,5.569214111328125,-2.1252140388727185,-1.3453960793182254,0.7904647335141897
1761315769488196400,5.5791962890625,-2.5928742207199336,-1.0095324318528174,0.996493209798634
1761315769498178600,5.589178466796875,-2.8967426012486217,-0.8729945481628179,1.3989483674161136
1761315769508160300,5.59916015625,-2.8985224704027175,-0.9906576355129479,1.7375072453148661
1761315769518142500,5.609142578125,-2.413216741749644,-1.2551868160828947,1.8397981376186012
1761315769528125200,5.619125244140625,-1.727612897157669,-1.575340853241086,1.7848947271727025
1761315769538107400,5.629107421875,-1.2370944022923707,-1.7681559199482202,1.5829688639014958
1761315769548089300,5.63908935546875,-1.105057337152958,-1.7296999325647948,1.2503209636121988
1761315769558071300,5.6490712890625,-1.3301789287030696,-1.4724462959557771,0.8228978073462844
1761315769568053500,5.659053466796875,-1.8318243822604416,-1.030826272033155,0.44725897965766487
1761315769578036200,5.6690361328125,-2.461699325367808,-0.4662582060948014,0.17262188124507666
1761315769588018400,5.679018310546875,-3.1197657592147587,0.11208908661007881,-0.079390493709594
1761315769598000400,5.68900048828125,-3.7463767320901153,0.6430991663396358,-0.42662732971310613
1761315769607982300,5.698982421875,-4.147368100765347,1.2115423201456665,-0.7563937562819569
1761315769617964300,5.70896435546875,-4.2022284027218815,1.780815495035052,-0.9756549313660711
1761315769627947300,5.718947265625,-3.87466116669774,2.238501979878545,-1.082043979703635
1761315769637929500,5.728929443359375,-3.1496354122996326,2.5155960429891944,-1.211725129366666
1761315769647911400,5.738911376953125,-2.1948849564701316,2.62720582164973,-1.3691639083966611
1761315769657893400,5.748893310546875,-1.2146265498965978,2.6392323595300313,-1.5786813958406447
1761315769667875300,5.758875244140625,-0.38895547844469547,2.537407769563794,-1.783931873489916
1761315769677858300,5.7688583984375,0.41853403962850566,2.3599667975991965,-2.0950122312240302
1761315769687840500,5.778840576171875,1.117718665805459,2.2591621983304617,-2.5017267998516557
1761315769697822200,5.788822265625,1.7114193027257918,2.113296222063899,-2.753677361616492
1761315769707804400,5.798804443359375,2.122387875536084,1.9635268086180089,-2.7949481141597032
1761315769717787400,5.808787353515625,2.4073966572940346,1.8141706521481273,-2.674843478876352
1761315769727769300,5.818769287109375,2.4893904653698202,1.7629738411352038,-2.4371380078241227
1761315769737751600,5.82875146484375,2.4905501567989585,1.872327657562494,-2.245701535993814
1761315769747733200,5.838733154296875,2.3599194513261317,2.118784298086166,-2.142264104003459
1761315769757715500,5.848715576171875,2.2823446287363764,2.3376985594287514,-2.170613269522786
1761315769767698200,5.8586982421875,2.21892809535861,2.318136657607555,-2.183803152094036
1761315769777680400,5.868680419921875,2.1013754826456306,1.965421828584373,-2.2153872078813612
1761315769787662300,5.878662353515625,1.9350766669422388,1.4487164608001708,-2.364968697539717
1761315769797644300,5.888644287109375,1.7441501904606818,1.0128335192248226,-2.6664576355859637
1761315769807626500,5.89862646484375,1.586702205210924,0.7640271007046103,-2.9530954798504707
1761315769817609200,5.908609130859375,1.4784271239310502,0.6243646552532911,-3.092508626715839
1761315769827591400,5.91859130859375,1.38135382014513,0.4453554110586643,-2.996007277598977
1761315769837573400,5.928573486328125,1.2951286581099033,0.2640580559268594,-2.6444302204340695
1761315769847555300,5.938555419921875,1.1467010146617889,0.15088058955818415,-2.0762674910046157
1761315769857537300,5.948537353515625,0.9275637582182884,0.11445464669764041,-1.558597662102431
1761315769867520300,5.958520263671875,0.6844079128056764,0.09526011688411236,-1.1383484891191125
1761315769877502500,5.96850244140625,0.4261299015849829,0.005434300008416175,-0.853848241405189
1761315769887484400,5.978484375,0.15317922188937663,-0.10066899019032716,-0.7293430330753325
1761315769897466400,5.98846630859375,-0.15481529865860938,-0.19239596451222896,-0.6180315067090094
1761315769907448300,5.9984482421875,-0.4167950870066881,-0.23019202668219804,-0.33406244326233864
1761315769917431300,6.008431396484375,-0.6294388897776604,-0.17929653670340776,0.077627137298882
1761315769927413500,6.01841357421875,-0.7148942364841699,-0.14962445201724767,0.4601309553861618
1761315769937395500,6.0283955078125,-0.6225210732132196,-0.08132102338075638,0.7279732060268521
1761315769947377400,6.03837744140625,-0.37809272364675994,0.08761924674212931,0.8676641469202935
1761315769957359400,6.048359375,-0.09785714763998984,0.20660978330373764,0.996092958434671
1761315769967342300,6.05834228515625,0.16984394096434116,0.17728724270761012,1.2024608958065508
1761315769977324500,6.068324462890625,0.3805839559406042,0.1868728171765804,1.2452103426001966
1761315769987306200,6.07830615234375,0.4366542182087898,0.18276918125003574,1.1213996924057603
1761315769997288400,6.088288330078125,0.30107728850543497,0.10930559337139129,0.9405236314259469
1761315770007270400,6.0982705078125,0.04301847299337387,0.05040653741806745,0.797466282839328
1761315770017253400,6.10825341796875,-0.15628186407983302,0.08729805196374654,0.6392763931810855
1761315770027235300,6.1182353515625,-0.11124269891381264,0.1976891024842858,0.34911052092090245
1761315770037217300,6.12821728515625,0.11556757637560366,0.31268063253760336,0.14768544677868484
1761315770047199500,6.138199462890625,0.3397492567270994,0.3590072071656584,0.16565613388568162
1761315770057182200,6.14818212890625,0.46076282354891296,0.27986382008492944,0.28889570619389415
1761315770067164400,6.158164306640625,0.5821703581243753,0.16089023465812205,0.3866754046835005
1761315770077146400,6.168146484375,0.5356751489311457,0.035652035878598685,0.397483068293333
1761315770087128300,6.17812841796875,0.30350013173818585,-0.12902473158091307,0.28305633251592516
1761315770097110300,6.1881103515625,-0.07404957107305526,-0.25975977421104907,0.11809709485322237
1761315770107093200,6.19809326171875,-0.42989422255456444,-0.43183162035793066,0.028127339462190863
1761315770117075500,6.208075439453125,-0.6132914725750684,-0.7243471244841814,0.09516498594656586
1761315770127057400,6.218057373046875,-0.6382675083994865,-1.0433809254407882,0.19201953241527078
1761315770137039400,6.228039306640625,-0.5906582004845142,-1.2750105837106704,0.24265125689134
1761315770147021300,6.238021240234375,-0.5449971040278673,-1.3564137324169276,0.24649215022847054
1761315770157004300,6.24800439453125,-0.5629553700447082,-1.3193755028769374,0.26245208203494547
1761315770166986500,6.257986572265625,-0.6892799027562141,-1.2572232903465628,0.3047569999314844
1761315770176968400,6.267968505859375,-0.8003326320558786,-1.1200938705042003,0.36957653197497126
1761315770186950400,6.277950439453125,-0.9234779502093792,-0.9100319009199738,0.44723581797778605
1761315770196932400,6.287932373046875,-1.0825871466696262,-0.6921548736706375,0.5029411924563348
1761315770206914300,6.297914306640625,-1.308491997551918,-0.4683335510641336,0.5248534567959606
1761315770216896500,6.307896484375,-1.509720672339201,-0.38546062206625936,0.5773408921413123
1761315770226878500,6.31787841796875,-1.6283318541944025,-0.4707929269149899,0.7004922016441821
1761315770236860400,6.3278603515625,-1.5354980876743793,-0.615485475488007,0.6973395828321576
1761315770246842600,6.337842529296875,-1.2964707203686237,-0.7811100451916456,0.6597608166746795
1761315770256825300,6.347825439453125,-1.0529577320814132,-0.9807771697506308,0.6098590139083564
1761315770266807600,6.3578076171875,-0.8961702565670013,-1.1072472484126687,0.37088315759412943
1761315770276789500,6.36778955078125,-0.8357786239683628,-1.0606170146629215,-0.07952624891847372
1761315770286771500,6.377771484375,-0.9246224440693854,-0.9295324279427528,-0.5527056325785815
1761315770296753400,6.38775341796875,-1.1261094775319098,-0.7562517905279994,-0.9472975825402885
1761315770306736400,6.397736328125,-1.2896259690403937,-0.5128638899251818,-1.2498735121056437
1761315770316718600,6.407718505859375,-1.3811106590390205,-0.18488807310014962,-1.4424679217994212
1761315770326700500,6.417700439453125,-1.3187491876721382,0.13506079687476158,-1.5182516231887042
1761315770336682500,6.4276826171875,-1.145327972742915,0.4127683157086372,-1.4442895842686294
1761315770346664400,6.43766455078125,-1.041093106764555,0.6105699386566877,-1.2193616155944764
1761315770356647400,6.4476474609375,-0.9831593887120484,0.865092396736145,-0.9230405086401849
1761315770366629600,6.457629638671875,-0.9266104030162096,1.2518433508738875,-0.6298791078258306
1761315770376611600,6.467611572265625,-0.8272107021093368,1.58155285962373,-0.3362558616533875
1761315770386593500,6.477593505859375,-0.5843740056484937,1.7404840691685675,-0.027622093353793023
1761315770396575500,6.487575439453125,-0.15297873088121414,1.7108189987450837,0.275015137944743
1761315770406558500,6.497558349609375,0.4937234283864498,1.6318109284818172,0.474791348901391
1761315770416540700,6.507540771484375,1.0598106667160987,1.4462421796411276,0.5444955842465162
1761315770426522400,6.5175224609375,1.4380840076267718,1.206026479333639,0.6099553138896823
1761315770436504600,6.527504638671875,1.668010953631997,1.0394134831145405,0.6678841365713626
1761315770446486500,6.537486572265625,1.7579636117577553,0.9413938383892178,0.6530472905106842
1761315770456469500,6.547469482421875,1.75929749071002,0.8556617205679417,0.5966838905148207
1761315770466451500,6.557451416015625,1.669141418966651,0.7562696184456348,0.5666461873866617
1761315770476433400,6.567433349609375,1.4978952099889515,0.6922668096125125,0.473819215933606
1761315770486415400,6.577415283203125,1.2621142772585152,0.6724772365152836,0.3177735717624426
1761315770496398300,6.5873984375,0.9645780223608016,0.6663280662357807,0.1472355110540986
1761315770506380500,6.597380615234375,0.6356763228625059,0.6751032011047006,0.08370653027780353
1761315770516362500,6.607362548828125,0.2770294734418392,0.7431427181079984,0.1733964458141476
1761315770526344400,6.617344482421875,-0.10123860677182674,0.8807856404304504,0.3433176167331636
1761315770536326400,6.627326416015625,-0.48317573088705534,1.037609064041078,0.426339964139089
1761315770546309400,6.637309326171875,-0.7234165656358004,1.138491112460196,0.4659438063833862
1761315770556291600,6.64729150390625,-0.8734931453347206,1.1453104370862246,0.5328069730836897
1761315770566273500,6.6572734375,-0.9054366820842027,1.078191542059183,0.6167194742623716
1761315770576255500,6.66725537109375,-0.8018658329725264,1.0259595427796244,0.6633577451881021
1761315770586237400,6.677237548828125,-0.6050842007219791,1.0254749741330742,0.6770164143148809
1761315770596220400,6.687220458984375,-0.3901391352713108,1.0248065733522176,0.6485829315129668
1761315770606202600,6.69720263671875,-0.19879121850728987,0.9494619940325617,0.5925250903349369
1761315770616184600,6.7071845703125,0.02466916183233261,0.8196659858182073,0.5009142166733741
1761315770626166500,6.71716650390625,0.2521703419953584,0.6530284396797418,0.3973037662036717
1761315770636148500,6.7271484375,0.48468788901567456,0.5010097860023379,0.3335590968500823
1761315770646131500,6.73713134765625,0.7319242817401885,0.4146320637539029,0.25256745155416427
1761315770656113400,6.747113525390625,0.885959828197956,0.338479967443645,0.16668759582526982
1761315770666095600,6.757095703125,0.8838941278398036,0.24005203417837617,0.09319280909076333
1761315770676077600,6.76707763671875,0.7309083826959133,0.120790863981843,0.056927573217265305
1761315770686059500,6.7770595703125,0.5559498751968145,0.07083937685489654,0.04196885434258729
1761315770696042500,6.78704248046875,0.4261790014237165,0.041815234683454036,0.07346106712799519
1761315770706024400,6.7970244140625,0.39737902339696884,-0.019313187757134437,0.11206197940744458
1761315770716006400,6.80700634765625,0.418436424472928,-0.14784341381937263,0.12602255409024654
1761315770725988400,6.81698828125,0.46105391544997687,-0.2809659361079335,0.1412381338028237
1761315770735970600,6.826970458984375,0.5180477223038673,-0.4147612430915236,0.1246471010185778
1761315770745953500,6.83695361328125,0.5733417395025492,-0.5446887687310576,0.06359042863994836
1761315770755935500,6.846935546875,0.5557067140907049,-0.6623533173859119,0.016478768048807976
1761315770765917400,6.85691748046875,0.5020850140184163,-0.7733005404844879,0.0077990198457613584
1761315770775899400,6.8668994140625,0.3972551047563553,-0.8377002396807074,0.08697207141239195
1761315770785881600,6.876881591796875,0.3257067028492689,-0.8545826931595801,0.23750132678225636
1761315770795864600,6.886864501953125,0.2811485991984606,-0.8519649118766188,0.32656423299405724
1761315770805846500,6.896846435546875,0.24885201122760772,-0.9132669373184442,0.3392558471869677
1761315770815828500,6.906828369140625,0.2069768630504608,-1.0154933860838413,0.2867903679450974
1761315770825810400,6.916810546875,0.14106909737884998,-1.1400672757357357,0.1651097520492971
1761315770835792600,6.926792724609375,-0.029797172370553016,-1.235670799230039,0.06530134247737004
1761315770845775600,6.936775634765625,-0.2951695257663727,-1.2934773837715388,-0.0902787939407397
1761315770855757600,6.946757568359375,-0.6059054539769888,-1.335657652375102,-0.24525742080174384
1761315770865739500,6.956739501953125,-0.9101859224379062,-1.3358663266897202,-0.33838998760525135
1761315770875721500,6.966721435546875,-1.1952438040345907,-1.3241200670555233,-0.31300818399153646
1761315770885703700,6.97670361328125,-1.3625614413917064,-1.2969208022236822,-0.22647501545306295
1761315770895686400,6.986686279296875,-1.4052899915277957,-1.217584230658412,-0.1268469308841042
1761315770905668600,6.996668701171875,-1.392291978266835,-1.104348312100768,-0.01799848842937499
1761315770915650600,7.006650634765625,-1.4090537279754876,-0.9938470792040228,0.04035308970902115
1761315770925632500,7.016632568359375,-1.5485978077441453,-0.9407678154453635,0.039339346089214085
1761315770935614500,7.026614501953125,-1.7881144198715686,-0.8377969780534505,0.02030545019749552
1761315770945597400,7.036597412109375,-2.0305892972826958,-0.6998875137493014,-0.0412574181376025
1761315770955579400,7.046579345703125,-2.18772631688714,-0.5698106427669525,-0.06473382652141153
1761315770965561300,7.056561279296875,-2.102652078452706,-0.6465761948004365,0.16733433276358992
1761315770975543600,7.06654345703125,-1.671733773547411,-0.9647405194461345,0.5748625558616594
1761315770985525500,7.076525390625,-0.9479127187639474,-1.221916706904769,0.8352518236152827
1761315770995508500,7.086508544921875,-0.3276765416175127,-1.3389219148680567,0.8200407374147325
1761315771005490400,7.096490478515625,0.042558454266190524,-1.4723229618370532,0.689193247386068
1761315771015472400,7.106472412109375,0.18703823687136173,-1.585962200498581,0.463464008799009
1761315771025454600,7.11645458984375,0.010265373426675797,-1.6312869046077132,0.18054500239454208
1761315771035436300,7.126436279296875,-0.5014245042830705,-1.5680369599685071,-0.19972952227070925
1761315771045419500,7.13641943359375,-1.3073475036919115,-1.355885324628651,-0.5953674741540104
1761315771055401500,7.1464013671875,-2.0902046848118303,-0.957206909070909,-0.8238726437278091
1761315771065383400,7.156383544921875,-2.5856489456415175,-0.48650925922393795,-0.8632903157502412
1761315771075365600,7.16636572265625,-2.752157604703307,0.03818564600944519,-0.7645958405032753
1761315771085347300,7.176347412109375,-2.7072680771410464,0.5366153523907065,-0.5568156982459127
1761315771095330600,7.18633056640625,-2.5316905609607696,0.970633084616065,-0.29762539448589087
1761315771105312500,7.1963125,-2.27280873862803,1.315565881460905,-0.11299392649531363
1761315771115294500,7.20629443359375,-1.956751323133707,1.4896774167418478,-0.035668840882927176
1761315771125276700,7.216276611328125,-1.52380297370553,1.5211660493306816,-0.01259425476565957
1761315771135258400,7.22625830078125,-0.9492366608440875,1.4785485583536326,-0.08743570686876773
1761315771145241600,7.23624169921875,-0.2447434068650007,1.398938868935406,-0.18333824984226374
1761315771155223600,7.2462236328125,0.5227881948292256,1.2822253373950718,-0.30458562541995193
1761315771165205500,7.25620556640625,1.2106412796527146,1.1521879216402768,-0.4353325046183541
1761315771175187700,7.266187744140625,1.7771189786046742,1.0792053952768443,-0.5878153052087873
1761315771185169400,7.27616943359375,2.027459767085314,1.0297016519173978,-0.6042064315067603
1761315771195152600,7.286152587890625,1.9625223077505827,1.0272270784974098,-0.530782700714469
1761315771205134800,7.296134765625,1.6045798072069883,1.1004586111858488,-0.5425570539319887
1761315771215116800,7.30611669921875,1.1339145983248948,1.1865721295401452,-0.7422130360424518
1761315771225098800,7.3160986328125,0.738107938811183,1.1807514605626463,-1.034735992822796
1761315771235080700,7.326080810546875,0.58499652146101,1.0623740874633192,-1.341543495543301
1761315771245063700,7.336063720703125,0.6826262900859117,0.9134209588363766,-1.5740364926442503
1761315771255045600,7.346045654296875,0.9497165533155202,0.8035036633074283,-1.708300586183369
1761315771265027800,7.35602783203125,1.1633125422447919,0.7465083951488137,-1.7778081299126147
1761315771275009800,7.366009765625,1.1755308033049106,0.756299136801064,-1.7828718430429695
1761315771284991700,7.37599169921875,0.9724918642252683,0.8211515482008457,-1.7005772984549403
1761315771294974700,7.385974609375,0.6517723021388053,0.882466725385189,-1.5498923775993287
1761315771304956700,7.395956787109375,0.3408785530179739,0.9153083800181746,-1.3221272858031092
1761315771314939000,7.40593896484375,0.21013854195177553,0.9685846276536584,-1.0908702602379023
1761315771324920600,7.415920654296875,0.28126258096694945,0.9789186824023723,-0.8580373636581003
1761315771334902800,7.42590283203125,0.5085615165561437,0.9244093858405947,-0.6405519660748541
1761315771344885800,7.4358857421875,0.7755857288122177,0.8133855903744697,-0.44564263050220904
1761315771354867700,7.44586767578125,0.9364677801638841,0.7237348378047347,-0.2906406866976991
1761315771364850000,7.455849853515625,1.0317968706309795,0.6592009908348322,-0.21887714420258997
1761315771374831600,7.46583154296875,1.0686579900383948,0.5804477721154689,-0.20243900042511523
1761315771384813800,7.475813720703125,1.1086726050406694,0.47404900610148903,-0.22868052614070475
1761315771394796800,7.485796875,1.1667150441646574,0.3545966972470283,-0.32231417433414605
1761315771404778800,7.49577880859375,1.26352297501266,0.22733780629485845,-0.3738736811796203
1761315771414760700,7.5057607421875,1.436992705258727,0.10809826340824365,-0.4657701668495312
1761315771424742700,7.51574267578125,1.6149480564862488,0.011166121658682823,-0.5312202884141355
1761315771434724900,7.525724853515625,1.7008523160040379,-0.06769114195704459,-0.5550626075008884
1761315771444707800,7.535707763671875,1.6658967379570007,-0.17168898430913684,-0.5648576600020752
1761315771454689800,7.545689697265625,1.5034300477623939,-0.23470570471435784,-0.49060558862686154
1761315771464671700,7.555671630859375,1.2878349939703941,-0.25170389352738853,-0.34727559711132194
1761315771474653700,7.56565380859375,1.0828408291697502,-0.2696446238875389,-0.23608550516758112
1761315771484636000,7.575635986328125,0.9634569093763827,-0.3211398333251476,-0.12367885877462104
1761315771494618600,7.58561865234375,0.9698410574555396,-0.3700923725426197,-0.06941188306873664
1761315771504600800,7.595600830078125,1.0439081641852854,-0.44647155560702084,-0.00683203797712922
1761315771514582800,7.605582763671875,1.1316858163595198,-0.551293866084516,0.03285592062035576
1761315771524564700,7.615564697265625,1.2304472193628548,-0.6354536200225352,0.056316364250052715
1761315771534547000,7.625546875,1.3318594291359185,-0.7219391865596175,0.12173629160579293
1761315771544529700,7.63552978515625,1.3368880709528923,-0.8497218091249465,0.28801556235849857
1761315771554512000,7.645511962890625,1.182684182190895,-0.973555401803553,0.4752294480577111
1761315771564493600,7.65549365234375,0.9842354935109615,-1.084562538395822,0.6420460770901292
1761315771574475800,7.665475830078125,0.7707680993974209,-1.1779194520071148,0.7422114286072552
1761315771584457700,7.675457763671875,0.5455494772136211,-1.2527630960673093,0.842308464128524
1761315771594440700,7.685440673828125,0.24712357999980447,-1.3667252830728889,0.9520769988365471
1761315771604423000,7.6954228515625,-0.09078267920911312,-1.462748493283987,0.9806116769906132
1761315771614404600,7.705404541015625,-0.4247247109621763,-1.5454206390127538,0.8571136729419231
1761315771624386800,7.71538671875,-0.699753950497508,-1.5639651804849504,0.6920911607846617
1761315771634368800,7.72536865234375,-0.8808914388924837,-1.5492618246108292,0.5583912039343267
1761315771644351700,7.735351806640625,-1.015299909338355,-1.5565446750953793,0.46916875977925954
1761315771654334000,7.745333984375,-1.1478723965287208,-1.5329019337013363,0.3643742871567607
1761315771664315600,7.755315673828125,-1.2055781510442494,-1.4607272165894507,0.26214504364607855
1761315771674297900,7.7652978515625,-1.3151549625724552,-1.4332412437707185,0.25145987390475344
1761315771684279800,7.77527978515625,-1.4518962598800658,-1.685810814216733,0.4652718254059553
1761315771694262800,7.7852626953125,-1.5688760411411522,-2.0248963463380933,0.8281850270342082
1761315771704244700,7.79524462890625,-1.5206407102823256,-2.1793121242851017,1.09441348580271
1761315771714226700,7.805226806640625,-1.5031903937876223,-2.218338897293806,1.2524310876339673
1761315771724209000,7.815208984375,-1.7505203100144862,-2.243806808288395,1.2366703316614032
1761315771734190600,7.825190673828125,-2.248643434664607,-2.108937880723923,0.8947409544162451
1761315771744173800,7.835173828125,-2.9618747063726185,-1.6962525671236217,0.2717666210101917
1761315771754155500,7.845155517578125,-3.6678988231807943,-1.212966507729888,-0.20973737727236003
1761315771764137700,7.8551376953125,-4.224326252761483,-0.8666115691274404,-0.3083565222607925
1761315771774120000,7.865119873046875,-4.453071295505762,-0.5056726632468402,-0.16377956289146095
1761315771784101600,7.8751015625,-4.260564271834492,-0.14040683407783508,0.000181274851039052
1761315771794084900,7.8850849609375,-3.7694852204769846,0.1495071092478931,0.11475783089529722
1761315771804066600,7.895066650390625,-3.081908029985428,0.26835779894739387,0.23381189767979085
1761315771814048800,7.905048828125,-2.3061609731316564,0.20774594772681593,0.29050029184632004
1761315771824030700,7.91503076171875,-1.6707821719110012,0.1282972940891981,0.3069338325139135
1761315771834012700,7.9250126953125,-1.3235504504740236,0.18893252618536352,0.301636675953865
1761315771843996000,7.934995849609375,-1.106295354515314,0.33177477071657774,0.2663131413772702
1761315771853977600,7.9449775390625,-0.8851017500638961,0.4607986255146563,0.2902809500072151
1761315771863959800,7.954959716796875,-0.5934580603361129,0.5157802157633006,0.46081798780225214
1761315771873941800,7.964941650390625,-0.265373522439599,0.5227670059107243,0.6979227164823562
1761315771883923700,7.974923828125,0.05490355657637119,0.5230163044966757,0.8446968936350197
1761315771893907000,7.984906982421875,0.30903087785840033,0.596898848439753,0.8755763082843273
1761315771903888600,7.994888671875,0.591246229505539,0.6876102159783244,0.8682374167636037
1761315771913870800,8.004870849609375,0.7595207291960716,0.7272431381866336,0.9065635672222823
1761315771923852800,8.014852783203125,0.8870043688148259,0.7505988793328404,0.8461039108887314
1761315771933834800,8.024834716796875,0.9243027105957269,0.7698647208169103,0.7612625313621014
1761315771943817700,8.034817626953124,0.88326693585217,0.8653188989683985,0.7188126520369201
1761315771953799700,8.044799560546876,0.7460995220869779,1.024039096111059,0.6312730464022607
1761315771963782000,8.054781982421876,0.5136135392487049,1.2275573431402445,0.5585303932093083
1761315771973763600,8.064763671875,0.22835867377519606,1.4332473812505602,0.4911569388993084
1761315771983745800,8.074745849609375,-0.024036124625802038,1.5847358735740185,0.43037141161225734
1761315771993728500,8.084728515625,-0.11167232250273228,1.6780124154254794,0.4421458744276315
1761315772003710700,8.094710693359374,-0.12954524832367897,1.7356319529622792,0.4825352410264313
1761315772013693000,8.10469287109375,-0.04069207587242126,1.826370500768721,0.49366636443696915
1761315772023674600,8.114674560546876,0.1715109973937273,1.9242565822422504,0.5711541663303971
1761315772033656800,8.12465673828125,0.4450269097566604,1.9939248694911598,0.5979018880024553
1761315772043639600,8.1346396484375,0.7848498162418603,1.965425335715711,0.5941599980603903
1761315772053621800,8.144621826171875,1.131247424942255,1.8690277392342685,0.5207192065354437
1761315772063603700,8.154603759765624,1.5002356356352566,1.7433800828710198,0.49818530316613613
1761315772073585700,8.164585693359374,1.837439299532771,1.6043696715876459,0.47192200401015577
1761315772083567900,8.17456787109375,2.126830826419592,1.4729218045130372,0.4004558004938066
1761315772093550600,8.184550537109375,2.347133619511127,1.3489602015405893,0.3559012039743364
1761315772103532800,8.19453271484375,2.454415598100424,1.2420970328852534,0.39938020715154704
1761315772113514800,8.2045146484375,2.467826283815503,1.1701853506237267,0.48840011447183784
1761315772123496700,8.21449658203125,2.4073288527548313,1.165117838101089,0.5462932082530111
1761315772133478700,8.224478759765624,2.2660563417583703,1.1694833398342133,0.5978745616041123
1761315772143461600,8.234461669921876,2.0555168177902696,1.1616957546979187,0.6638209057204425
1761315772153443800,8.24444384765625,1.7787953873842954,1.147509992957115,0.6894423267763108
1761315772163425800,8.25442578125,1.5336995138198137,1.1272776445284485,0.6611120851531624
1761315772173407700,8.26440771484375,1.3884487468421458,1.1239900011599062,0.6311048502285033
1761315772183389700,8.2743896484375,1.3032149339318275,1.095077502669394,0.5938664950065314
1761315772193372700,8.28437255859375,1.2516706246554852,0.9972080800697207,0.6059924746733159
1761315772203355000,8.29435498046875,1.2176444364130496,0.8690221374005078,0.6216730780817568
1761315772213336600,8.304336669921875,1.1841267822146415,0.787659320704639,0.6358558441478759
1761315772223318500,8.314318603515625,1.1206699168264864,0.759357647588849,0.6558926700044423
1761315772233300500,8.324300537109375,0.9951806658953428,0.6908221637621521,0.6712351274996996
1761315772243283500,8.334283447265625,0.8560305538803339,0.5811822238698602,0.6772307146526872
1761315772253265700,8.344265625,0.7332394559919834,0.46369741569608447,0.7529049643181264
1761315772263247600,8.35424755859375,0.6022375791192054,0.31783494656085964,0.8136646995767951
1761315772273229600,8.3642294921875,0.479506102463603,0.10106149663925171,0.8277736697543412
1761315772283211500,8.37421142578125,0.3879863411515951,-0.1202867138519883,0.8050486277271062
1761315772293194500,8.384194580078125,0.2726069808244705,-0.3374593922242522,0.7500406609281897
1761315772303176400,8.394176513671875,0.11735036813914775,-0.5912523669853806,0.6301270912375301
1761315772313158400,8.404158447265624,-0.05371054739952087,-0.8583248022973536,0.4654244952170178
1761315772323140600,8.414140625,-0.27757950854003427,-1.0658645599275827,0.26981387950722124
1761315772333122600,8.42412255859375,-0.5361643937528133,-1.2038462126851082,0.13279964700974523
1761315772343105500,8.43410546875,-0.8830319580525159,-1.2370058472260832,-0.035799116199091076
1761315772353087500,8.44408740234375,-1.2952198435246944,-1.206576806692779,-0.22295208375761283
1761315772363069400,8.4540693359375,-1.788673222798109,-1.1468021369487047,-0.32552667010724545
1761315772373051400,8.464051513671874,-2.2589245901823043,-1.0477703925713897,-0.42033962774574757
1761315772383033600,8.47403369140625,-2.6959260143935677,-0.9206719528779387,-0.44843503769971427
1761315772393016600,8.4840166015625,-2.9773633674055335,-0.8312222758382558,-0.41600985491313036
1761315772402998500,8.49399853515625,-3.140103029322624,-0.86895287155658,-0.18005637862738222
1761315772412980500,8.50398046875,-3.06903510440886,-1.0749098900400103,0.13607163615142925
1761315772422962400,8.51396240234375,-2.7573651102185246,-1.242910979616642,0.2868705935744569
1761315772432944600,8.523944580078124,-2.313835161021352,-1.2718575265072285,0.23853567479867488
1761315772442927600,8.533927734375,-1.9417793794512748,-1.2996196859188378,0.06787802456496284
1761315772452909600,8.54390966796875,-1.7197615991353987,-1.364390118123591,-0.140729818954505
1761315772462891500,8.5538916015625,-1.6760972294539211,-1.3565360436223446,-0.4044386961175129
1761315772472873500,8.56387353515625,-1.8007143737256526,-1.2006243280291558,-0.6791445123847574
1761315772482855700,8.573855712890625,-2.005282422068715,-0.9238410844333469,-0.9082781891204417
1761315772492837400,8.58383740234375,-2.1469863102197646,-0.5510977589905262,-1.0617871544208377
1761315772502820600,8.593820556640624,-2.237898753288388,-0.213954446978122,-1.1016610457781701
1761315772512802600,8.603802490234376,-2.2338994545191526,0.06614595834165811,-0.9440345621563494
1761315772522784500,8.613784423828125,-2.1448826159387826,0.3104071346476674,-0.8579940359730273
1761315772532766500,8.623766357421875,-1.9656407320320606,0.5355975536502897,-0.8894844221275299
1761315772542749400,8.63374951171875,-1.7970178572952746,0.7435495453432202,-0.9690492494907229
1761315772552731400,8.6437314453125,-1.632083315682411,0.8862586650140583,-1.0697492924064398
1761315772562713600,8.653713623046874,-1.4352958382129668,1.0034954897761343,-1.1715826502010225
1761315772572695600,8.663695556640626,-1.249492696094513,1.1320618100650608,-1.1930765429981052
1761315772582677500,8.673677490234375,-1.042940780457854,1.196339490316808,-1.1732124433599411
1761315772592659500,8.683659423828125,-0.8097124548196792,1.2358920407652854,-1.1020420809850096
1761315772602642400,8.693642333984375,-0.59691375374794,1.236968291694671,-1.039706913103163
1761315772612624400,8.703624267578125,-0.3563169451683759,1.2112785546429454,-0.9996748355094343
1761315772622606600,8.713606689453124,-0.04025777610838413,1.2213726631559432,-1.0166513970125466
1761315772632588300,8.72358837890625,0.2648813550084829,1.235205373675376,-1.1102577553402633
1761315772642571500,8.733571533203126,0.5467465780436992,1.210451894560456,-1.2371169063851237
1761315772652553500,8.743553466796875,0.7715449289888143,1.1189645742133258,-1.4313513383708893
1761315772662535400,8.753535400390625,0.9307581703454255,0.9714382635191082,-1.6189558308228849
1761315772672517600,8.763517578125,1.0801754093527793,0.8413868192389607,-1.7601698896303772
1761315772682499300,8.773499267578124,1.208370996633172,0.7495987623795867,-1.819563451102376
1761315772692481500,8.7834814453125,1.2363286786168812,0.7171092821851373,-1.773081393651664
1761315772702464500,8.793464599609376,1.2565630728721617,0.7731631778404117,-1.6990001122660934
1761315772712446500,8.803446533203125,1.269835811421275,0.876213217948377,-1.5739330322697758
1761315772722428700,8.8134287109375,1.2746633777081966,0.9521645309895277,-1.4247082470946013
1761315772732410400,8.823410400390625,1.183605388689041,1.0151391658186912,-1.2599774113602935
1761315772742392600,8.833392578125,1.027474915778637,1.0832640230178832,-1.0359618813559412
1761315772752375600,8.84337548828125,0.7986772660642862,1.1649769683256745,-0.77702204522565
1761315772762357500,8.853357421875,0.5548030432492495,1.26376555159688,-0.5819587612003088
1761315772772339500,8.86333935546875,0.3848094646811485,1.3138035479635,-0.4721562876900658
1761315772782321400,8.8733212890625,0.30520284400284287,1.3126020632192492,-0.34265988347679377
1761315772792303600,8.8833037109375,0.32894495411813257,1.233843291541934,-0.26169207571418956
1761315772802286300,8.893286376953125,0.4356599464744329,1.1118515273377299,-0.20329053922053425
1761315772812268500,8.9032685546875,0.5867202765136957,0.9855322553232312,-0.19916078247204422
1761315772822250500,8.91325048828125,0.7919488345921039,0.8372904898360372,-0.2381969443636015
1761315772832232400,8.923232421875,0.9497007712244987,0.6778200588479638,-0.3187093182425946
1761315772842214700,8.933214599609375,1.0641934118449687,0.5339478867471218,-0.335208690688014
1761315772852197400,8.943197265625,1.204803075018525,0.4577344156384468,-0.321494163188152
1761315772862179600,8.9531796875,1.2929594973772764,0.4171580751001835,-0.3290051598727703
1761315772872161300,8.963161376953124,1.3427888194292783,0.35202158606201406,-0.37786844990421087
1761315772882143500,8.9731435546875,1.3747224193066359,0.29587767403572796,-0.4115165255492553
1761315772892125700,8.983125732421875,1.4244395131558178,0.2260156177803874,-0.4444499135863036
1761315772902108400,8.9931083984375,1.4374071312785148,0.11698241160959005,-0.5027715349778533
1761315772912090600,9.003090576171875,1.479607858148217,-0.0018415362134575842,-0.5515939084770157
1761315772922072300,9.013072265625,1.5158406165242195,-0.13927461517751216,-0.5927802341397851
1761315772932054500,9.023054443359374,1.494201616168022,-0.24547230566143988,-0.5909007040034979
1761315772942036500,9.033036376953126,1.456937176656723,-0.3156432817354798,-0.5521361621275543
1761315772952019500,9.04301953125,1.4122241747051476,-0.3097369803011417,-0.4839955593699589
1761315772962001700,9.053001708984375,1.349548230561614,-0.2907180993154645,-0.39548561086580153
1761315772971983400,9.0629833984375,1.1901508648097514,-0.3183016872897744,-0.27294618618357924
1761315772981965600,9.072965576171875,1.0590654013067484,-0.3718202192485332,-0.15616771791456266
1761315772991947500,9.082947509765624,0.9738871179759502,-0.42740269799977537,-0.04614787532659247
1761315773001930500,9.092930419921874,0.9628501756548881,-0.539755111721158,0.0383872512624599
1761315773011912700,9.10291259765625,0.9635252984374761,-0.7280284433454275,0.1498873042045161
1761315773021894400,9.112894287109375,0.951764718016982,-0.9165601336449384,0.22892284699659793
1761315773031876600,9.122876708984375,0.9723024791330098,-1.0446414468958973,0.2938756865635514
1761315773041858600,9.132858642578125,0.9248463159531355,-1.1776283601060509,0.3765039200853556
1761315773051841500,9.142841552734374,0.8136474561810493,-1.2902592985078691,0.5298404514282942
1761315773061823500,9.152823486328124,0.6836901199251413,-1.3645657669514417,0.7036559263721108
1761315773071805400,9.162805419921876,0.5336299068391323,-1.412351892738044,0.8664156812291592
1761315773081787600,9.17278759765625,0.35872166822254653,-1.4502096219673752,0.9406637705489993
1761315773091769300,9.182769287109375,0.19338263746201992,-1.4442553897380828,0.9061049367345869
1761315773101751600,9.19275146484375,0.038081601113080975,-1.4100684579759835,0.8119479587867856
1761315773111734300,9.202734375,-0.13250292908549308,-1.3509849853664635,0.7016360379170626
1761315773121716500,9.212716552734374,-0.33583822076320646,-1.2902239349335431,0.5395904226787388
1761315773131698700,9.22269873046875,-0.6409668304860592,-1.2778341166988014,0.36096908182315524
1761315773141680400,9.232680419921875,-0.9882260244518518,-1.1920566984310745,0.30053865158408877
1761315773151662600,9.24266259765625,-1.3590928884983062,-1.0664207325056194,0.31197504155151545
1761315773161645300,9.252645263671875,-1.620160238176584,-0.9221642372623086,0.3596885404933244
1761315773171627500,9.26262744140625,-1.7987468730449676,-0.8086047858387231,0.5066954669559374
1761315773181609500,9.272609375,-1.876554335346818,-0.8901602024972438,0.8831533194098621
1761315773191591400,9.28259130859375,-1.7734703929692506,-1.1295900131240486,1.4041776463717222
1761315773201573600,9.29257373046875,-1.4656909764766692,-1.2757877055630087,1.6670615439526735
1761315773211557400,9.302557373046875,-1.2362304789394138,-1.3609744644612074,1.7187690809667109
1761315773221539600,9.31253955078125,-1.181958790525794,-1.434249544030428,1.652883819387853
1761315773231521300,9.322521240234375,-1.2865338482439517,-1.4075339710623025,1.4725292980641125
1761315773241503500,9.33250341796875,-1.6047931576967238,-1.2471430642284451,1.2122891929902135
1761315773251485400,9.3424853515625,-2.1296306862711907,-1.072912578742951,0.8791725792106241
1761315773261468400,9.352468505859376,-2.7214631912320852,-0.8355228956416249,0.5469843688549474
1761315773271450600,9.36245068359375,-3.04934080837965,-0.529381894005835,0.26575930688679217
1761315773281432300,9.372432373046875,-3.1467496277302502,-0.2784172745384276,0.13997615104299038
1761315773291414500,9.38241455078125,-2.9472657507836817,-0.03964344360232353,0.20701518576685338
1761315773301396500,9.392396484375,-2.6375597501426933,0.13763941519111395,0.3919881972040981
1761315773311379500,9.40237939453125,-2.1895155383914706,0.2661165958918631,0.5556825294975191
1761315773321361400,9.412361328125,-1.6710662495493889,0.39725086697265505,0.7322776252225041
1761315773331343400,9.42234326171875,-1.1826613858371973,0.5238980557672679,0.8446947016779333
1761315773341325600,9.43232568359375,-0.7503495807468891,0.6072424016691744,0.9449417401291429
1761315773351307500,9.4423076171875,-0.3361439257115125,0.6468005050756037,1.0487013167459518
1761315773361290500,9.45229052734375,0.06367080039978026,0.6283714066766202,1.1892561809923499
1761315773371272400,9.4622724609375,0.481356114244461,0.5843588080793619,1.3017765716917813
1761315773381254400,9.47225439453125,0.8979103782325982,0.5466366879284381,1.4320982112154363
1761315773391236400,9.482236328125,1.1733055284708738,0.4933826521247625,1.4624327053330837
1761315773401218300,9.49221826171875,1.3063766128331422,0.43690994653552767,1.4262370640970765
1761315773411201500,9.502201416015625,1.3165911328554152,0.4233700814828276,1.432514683061838
1761315773421183200,9.512183349609375,1.2483072857022284,0.4381482561588287,1.455849673680961
1761315773431165400,9.52216552734375,1.1708195568740367,0.4815045828044414,1.4437565003052353
1761315773441147400,9.5321474609375,1.0754156476050614,0.5682914703756571,1.3849297789357602
1761315773451129300,9.54212939453125,0.9748615159660577,0.6765653826117515,1.2422531002297996
1761315773461111300,9.552111328125,0.8837930055528879,0.7959843737185001,1.0831585168167948
1761315773471094300,9.56209423828125,0.7169657820612192,0.9163587658539414,0.9064791038092225
1761315773481076500,9.572076416015625,0.4867559274613857,1.0871160222709177,0.6986651323474943
1761315773491058400,9.582058349609374,0.14853402643203734,1.2453911059945821,0.5400360110217705
1761315773501040400,9.592040283203126,-0.24584873775839805,1.354139942266047,0.4573519556595012
1761315773511022300,9.602022216796875,-0.607300123205781,1.4128116192042828,0.4585574955243617
1761315773521005300,9.61200537109375,-0.8535334763675928,1.4897031357049941,0.5343420006312429
1761315773530987500,9.621987548828125,-0.9547983866244554,1.602681572370231,0.5860808826316147
1761315773540969500,9.631969482421875,-0.989650504297018,1.751143410348892,0.6140259243294597
1761315773550951400,9.641951416015624,-0.8888017736256122,1.8308853478446603,0.5736466042006388
1761315773560933400,9.651933349609376,-0.6716209119468927,1.8171093359485269,0.5418046646621077
1761315773570916400,9.661916259765626,-0.3854010008335113,1.7202911759674548,0.4639555186429992
1761315773580898600,9.671898681640625,-0.10036708463430404,1.5587749183654784,0.3929076501365751
1761315773590880500,9.681880615234375,0.1365846454411745,1.4101152197271585,0.28461510626524683
1761315773600862500,9.691862548828125,0.28719138649404047,1.2822107243478298,0.19769534956198184
1761315773610844400,9.701844482421874,0.3974479969799518,1.191580605351925,0.13306332118092104
1761315773620827400,9.711827392578124,0.5289180758863687,1.1303583671480417,0.042496449280111114
1761315773630809300,9.721809326171876,0.71185413813591,1.0548507062211632,-0.01581681070846971
1761315773640791300,9.731791259765625,0.9217495189815759,0.9325500221982598,-0.04644426902385894
1761315773650773500,9.7417734375,1.1086088921546935,0.8248042254894972,-0.11357176291588693
1761315773660755500,9.75175537109375,1.2170324419945477,0.7410615279197692,-0.19855516299540177
1761315773670738400,9.761738525390625,1.2848317205011843,0.6638146221101283,-0.2643389004285447
1761315773680720400,9.771720458984374,1.315942898079753,0.6012523674741387,-0.23692213865481315
1761315773690702300,9.781702392578126,1.3636971674233673,0.5694803878992796,-0.2558402261471376
1761315773700684300,9.791684326171875,1.3509528366625307,0.4980456754997372,-0.27217081789691
1761315773710666500,9.80166650390625,1.2865309256345032,0.4197761486440897,-0.31345285901911557
1761315773720649500,9.8116494140625,1.176895077395439,0.3459223924040794,-0.35947782035209236
1761315773730631400,9.82163134765625,1.054879055532813,0.2026967015132308,-0.4229233240960166
1761315773740613400,9.83161328125,0.8744242887049913,0.06552402705103158,-0.5044244167514145
1761315773750595300,9.84159521484375,0.7431371651500464,-0.032143735496699806,-0.6236860984046012
1761315773760577500,9.85157763671875,0.6690437549352646,-0.1432519943758845,-0.7045720183037221
1761315773770559200,9.861559326171875,0.5309276621431112,-0.28430151027143,-0.6993948348615319
1761315773780542500,9.87154248046875,0.274987738481164,-0.4819795068398118,-0.6275647664688527
1761315773790524400,9.8815244140625,0.5101584303587675,-0.7540519423961639,-0.28637842614334075
1761315773800506400,9.89150634765625,0.6597662235021591,-0.9093491793528199,-0.2032992887825705
1761315773810488600,9.901488525390626,0.739204501876235,-0.7988438548028468,-0.6115942402031272
1761315773820470300,9.91147021484375,0.5212912342697381,-0.822823865327239,-0.8410651130039244
1761315773830453500,9.92145361328125,0.16522621803581714,-1.08923783673048,-0.8290124908342957
1761315773840435500,9.931435546875,-0.21914368618428706,-1.1718071066066622,-0.9014603257991373
1761315773850417400,9.94141748046875,-0.6424503470420837,-1.0203998628258704,-1.112699668599665
1761315773860399400,9.9513994140625,-1.0426666396915911,-0.8336421964615582,-1.279447250983864
1761315773870381300,9.96138134765625,-1.4119383435010908,-0.7776897153541446,-1.321661714117974
