time,seconds_elapsed,z,y,x
1761315739276594400,0.076594482421875,0.44695743918418884,0.25512969493865967,0.05926189944148064
1761315739286576400,0.086576416015625,0.4175483286380768,0.225928395986557,0.08046826720237732
1761315739296558300,0.096558349609375,0.39347681403160095,0.1864566206932068,0.10680213570594788
1761315739306541600,0.10654150390625,0.36638131737709045,0.13677483797073364,0.1219543069601059
1761315739316523300,0.116523193359375,0.32827919721603394,0.1105128675699234,0.11484925448894501
1761315739326505500,0.12650537109375,0.29745766520500183,0.12198403477668762,0.0881962925195694
1761315739336488400,0.136488525390625,0.2813093364238739,0.22433756291866302,0.04404187574982643
1761315739346470400,0.146470458984375,0.29141104221343994,0.3391718566417694,-0.012905579060316086
1761315739356452400,0.156452392578125,0.3095274567604065,0.382280170917511,-0.07675912976264954
1761315739366434300,0.166434326171875,0.30624642968177795,0.32140669226646423,-0.14854656159877777
1761315739376416500,0.17641650390625,0.2644568979740143,0.10442911088466644,-0.2508167326450348
1761315739386399200,0.186399169921875,0.20127376914024353,-0.18389523029327393,-0.3563264310359955
1761315739396381400,0.19638134765625,0.1387653797864914,-0.44101622700691223,-0.42120155692100525
1761315739406363400,0.20636328125,0.0853704959154129,-0.6124851703643799,-0.4091225564479828
1761315739416346400,0.216346435546875,0.059092551469802856,-0.6494407653808594,-0.3195737600326538
1761315739426328300,0.226328369140625,0.06979689002037048,-0.5267149209976196,-0.16227540373802185
1761315739436310300,0.236310302734375,0.10077184438705444,-0.25334835052490234,0.05575864762067795
1761315739446292500,0.24629248046875,0.18001993000507355,0.07495880126953125,0.3040543496608734
1761315739456275500,0.256275390625,0.2977801263332367,0.37311461567878723,0.5217052102088928
1761315739466257400,0.26625732421875,0.4183056950569153,0.6030294895172119,0.6766673922538757
1761315739476239400,0.2762392578125,0.5148151516914368,0.7419897317886353,0.7631477117538452
1761315739486221300,0.28622119140625,0.5801632404327393,0.8139079213142395,0.8047482371330261
1761315739496204300,0.296204345703125,0.6268255114555359,0.8329218029975891,0.820284903049469
1761315739506186500,0.3061865234375,0.651994526386261,0.8346806168556213,0.8337481021881104
1761315739516168400,0.31616845703125,0.6633052825927734,0.821109414100647,0.8447901010513306
1761315739526150400,0.326150390625,0.6537496447563171,0.781924307346344,0.8551847338676453
1761315739536133400,0.33613330078125,0.6521672010421753,0.7277870178222656,0.8663854598999023
1761315739546115300,0.346115234375,0.6527002453804016,0.6468096375465393,0.8731167316436768
1761315739556097300,0.35609716796875,0.6467509865760803,0.5281772613525391,0.873401939868927
1761315739566079500,0.36607958984375,0.6315410137176514,0.3801933825016022,0.867904543876648
1761315739576061400,0.3760615234375,0.5861223936080933,0.20527084171772003,0.8398624658584595
1761315739586044400,0.38604443359375,0.516755223274231,0.017071429640054703,0.7949490547180176
1761315739596026400,0.3960263671875,0.42831486463546753,-0.18312957882881165,0.7156137228012085
1761315739606008300,0.40600830078125,0.33615073561668396,-0.3640977144241333,0.6066173315048218
1761315739615991300,0.4159912109375,0.25100255012512207,-0.5095052719116211,0.4661710262298584
1761315739625973500,0.425973388671875,0.16363440454006195,-0.6223763823509216,0.3026820719242096
1761315739635955500,0.43595556640625,0.06924106180667877,-0.7279872298240662,0.12125954777002335
1761315739645937400,0.4459375,-0.03726614639163017,-0.8236997127532959,-0.06188425421714783
1761315739655919400,0.45591943359375,-0.14429885149002075,-0.9005316495895386,-0.22241906821727753
1761315739665902300,0.46590234375,-0.24466142058372498,-0.9497829675674438,-0.338264524936676
1761315739675884500,0.475884521484375,-0.3197402060031891,-0.934451699256897,-0.3870698809623718
1761315739685866200,0.4858662109375,-0.33853504061698914,-0.796379804611206,-0.3578642010688782
1761315739695849500,0.495849365234375,-0.30230459570884705,-0.5479117035865784,-0.25826728343963623
1761315739705831200,0.5058310546875,-0.22251206636428833,-0.21320562064647675,-0.11204176396131516
1761315739715813400,0.5158134765625,-0.08584688603878021,0.12429118156433105,0.049333810806274414
1761315739725795300,0.52579541015625,0.09835158288478851,0.41219738125801086,0.1866198629140854
1761315739735777300,0.53577734375,0.26930442452430725,0.5900986194610596,0.26414766907691956
1761315739745760500,0.545760498046875,0.3787195682525635,0.6614847183227539,0.28377771377563477
1761315739755742200,0.5557421875,0.4538510739803314,0.674929678440094,0.2749951481819153
1761315739765724400,0.565724365234375,0.5048789978027344,0.6458530426025391,0.2367841899394989
1761315739775707400,0.575707275390625,0.5310336351394653,0.5944719314575195,0.18239152431488037
1761315739785689300,0.585689453125,0.5165904760360718,0.5247056484222412,0.11891163885593414
1761315739795671600,0.595671630859375,0.4785882234573364,0.43691426515579224,0.05129237845540047
1761315739805653200,0.6056533203125,0.4354631304740906,0.35690099000930786,-0.021624626591801643
1761315739815636500,0.615636474609375,0.4002723693847656,0.27849113941192627,-0.09036028385162354
1761315739825618200,0.6256181640625,0.37640732526779175,0.18979117274284363,-0.1578875631093979
1761315739835600400,0.635600341796875,0.3550298511981964,0.08828052878379822,-0.22248120605945587
1761315739845582600,0.64558251953125,0.33452939987182617,-0.009313603863120079,-0.272770494222641
1761315739855565300,0.6555654296875,0.32728588581085205,-0.07911185920238495,-0.3011488914489746
1761315739865547500,0.665547607421875,0.3341176509857178,-0.12736600637435913,-0.30634912848472595
1761315739875529200,0.675529296875,0.34317344427108765,-0.14999301731586456,-0.3061411380767822
1761315739885511400,0.685511474609375,0.35043567419052124,-0.1777508705854416,-0.29036641120910645
1761315739895493400,0.695493408203125,0.3573540449142456,-0.170734241604805,-0.25913816690444946
1761315739905476400,0.705476318359375,0.3641526401042938,-0.13589522242546082,-0.22057658433914185
1761315739915458600,0.71545849609375,0.36996740102767944,-0.11210839450359344,-0.1889163851737976
1761315739925440300,0.725440185546875,0.3668452203273773,-0.11147000640630722,-0.16414472460746765
1761315739935422500,0.73542236328125,0.35535791516304016,-0.1250196397304535,-0.14769890904426575
1761315739945405400,0.745405517578125,0.3405287265777588,-0.13870933651924133,-0.13147349655628204
1761315739955387400,0.755387451171875,0.3120898902416229,-0.15205737948417664,-0.1185837835073471
1761315739965369300,0.765369384765625,0.28402379155158997,-0.17616985738277435,-0.10692061483860016
1761315739975351300,0.775351318359375,0.2551250457763672,-0.2154693305492401,-0.10173091292381287
1761315739985334300,0.785334228515625,0.22697235643863678,-0.26635265350341797,-0.09569104015827179
1761315739995316200,0.795316162109375,0.1991170346736908,-0.3032398223876953,-0.0995883047580719
1761315740005298400,0.80529833984375,0.1754201203584671,-0.30928856134414673,-0.10506771504878998
1761315740015280400,0.8152802734375,0.1543281525373459,-0.2922011911869049,-0.12381450086832047
1761315740025263400,0.825263427734375,0.13941583037376404,-0.27741047739982605,-0.13948987424373627
1761315740035245300,0.835245361328125,0.1258361041545868,-0.2873600423336029,-0.1706608384847641
1761315740045227300,0.845227294921875,0.11037639528512955,-0.3216778337955475,-0.22313816845417023
1761315740055209500,0.85520947265625,0.08239217102527618,-0.36256349086761475,-0.27917665243148804
1761315740065192400,0.8651923828125,0.047587428241968155,-0.4136120080947876,-0.3357258439064026
1761315740075174400,0.87517431640625,0.011176956817507744,-0.4573080837726593,-0.3865687847137451
1761315740085156400,0.88515625,-0.038259610533714294,-0.48814982175827026,-0.4262578785419464
1761315740095138300,0.89513818359375,-0.0875517949461937,-0.5251169204711914,-0.4554741084575653
1761315740105121300,0.905121337890625,-0.13998278975486755,-0.5580227375030518,-0.47187843918800354
1761315740115103500,0.915103515625,-0.19095942378044128,-0.5850405097007751,-0.4850001037120819
1761315740125085400,0.92508544921875,-0.23839573562145233,-0.5996033549308777,-0.49066847562789917
1761315740135067400,0.9350673828125,-0.2819778025150299,-0.5895174145698547,-0.4894348978996277
1761315740145050400,0.94505029296875,-0.3148544728755951,-0.5497931838035583,-0.4772244095802307
1761315740155032300,0.9550322265625,-0.32304155826568604,-0.42165040969848633,-0.4465029835700989
1761315740165014300,0.96501416015625,-0.3049844205379486,-0.26812002062797546,-0.4130293130874634
1761315740174997500,0.97499755859375,-0.2677939236164093,-0.1784021109342575,-0.3890960216522217
1761315740184980500,0.98498046875,-0.2492266744375229,-0.1606794148683548,-0.39639273285865784
1761315740194962400,0.99496240234375,-0.26182129979133606,-0.20121192932128906,-0.4252201318740845
1761315740204944400,1.0049443359375,-0.28997910022735596,-0.28619104623794556,-0.47061315178871155
1761315740214926600,1.014926513671875,-0.32404279708862305,-0.4366074502468109,-0.5485745072364807
1761315740224909600,1.02490966796875,-0.36567553877830505,-0.624998152256012,-0.6332470774650574
1761315740234891500,1.0348916015625,-0.4004457890987396,-0.7474457621574402,-0.6846716403961182
1761315740244873500,1.04487353515625,-0.4242697060108185,-0.7606810331344604,-0.678621232509613
1761315740254855400,1.05485546875,-0.42670437693595886,-0.7008571028709412,-0.6191701889038086
1761315740264838400,1.06483837890625,-0.4318045377731323,-0.6265667676925659,-0.5484588146209717
1761315740274820600,1.074820556640625,-0.43127402663230896,-0.5256092548370361,-0.4579504728317261
1761315740284802600,1.084802490234375,-0.4264248013496399,-0.3765847682952881,-0.3550006151199341
1761315740294784500,1.094784423828125,-0.40279775857925415,-0.16742515563964844,-0.2249523103237152
1761315740304767500,1.104767578125,-0.3573720157146454,0.0523233599960804,-0.072313591837883
1761315740314749400,1.11474951171875,-0.27531760931015015,0.28409481048583984,0.11399157345294952
1761315740324731400,1.1247314453125,-0.16253449022769928,0.4811238944530487,0.3038881719112396
1761315740334713300,1.13471337890625,-0.03561035916209221,0.5988417267799377,0.48616451025009155
1761315740344696600,1.144696533203125,0.08000510931015015,0.6394148468971252,0.6448911428451538
1761315740354678300,1.15467822265625,0.18452300131320953,0.6013947129249573,0.7775173783302307
1761315740364660500,1.164660400390625,0.27114641666412354,0.4758170247077942,0.8837630152702332
1761315740374642400,1.174642333984375,0.32344692945480347,0.28473174571990967,0.9507644176483154
1761315740384625400,1.18462548828125,0.3439082205295563,0.06720347702503204,1.001342535018921
1761315740394607600,1.194607666015625,0.3357333838939667,-0.16162358224391937,1.0245554447174072
1761315740404589300,1.20458935546875,0.2947034537792206,-0.3654434084892273,1.020721197128296
1761315740414571500,1.214571533203125,0.22595395147800446,-0.5350795984268188,0.9729699492454529
1761315740424554200,1.22455419921875,0.1160174161195755,-0.6567702889442444,0.8831390738487244
1761315740434536400,1.234536376953125,-0.029205821454524994,-0.7375703454017639,0.7474355697631836
1761315740444518700,1.2445185546875,-0.1994965523481369,-0.7821663618087769,0.5691313743591309
1761315740454500400,1.254500244140625,-0.3885492980480194,-0.7772866487503052,0.3720177710056305
1761315740464483600,1.264483642578125,-0.5686125755310059,-0.7000262141227722,0.18534786999225616
1761315740474465300,1.27446533203125,-0.7118988633155823,-0.556209146976471,0.04336169362068176
1761315740484447500,1.284447509765625,-0.8056460022926331,-0.3511984646320343,-0.04826341196894646
1761315740494429400,1.294429443359375,-0.8429976105690002,-0.09324789047241211,-0.0910998284816742
1761315740504412400,1.304412353515625,-0.8287078738212585,0.17599663138389587,-0.09304100275039673
1761315740514394600,1.31439453125,-0.7660495042800903,0.3980179727077484,-0.07935581356287003
1761315740524376300,1.324376220703125,-0.682012677192688,0.5387425422668457,-0.05786395072937012
1761315740534358500,1.334358642578125,-0.5997329950332642,0.5924007296562195,-0.04013848304748535
1761315740544341500,1.344341552734375,-0.5194003582000732,0.5716388821601868,-0.030495386570692062
1761315740554323500,1.354323486328125,-0.45379921793937683,0.4857335686683655,-0.02969936653971672
1761315740564305700,1.3643056640625,-0.40847697854042053,0.3714325726032257,-0.046183157712221146
1761315740574287400,1.374287353515625,-0.3894454836845398,0.24804219603538513,-0.06650947034358978
1761315740584269600,1.38426953125,-0.38404524326324463,0.148162841796875,-0.09020975232124329
1761315740594252300,1.394252197265625,-0.38861575722694397,0.062430091202259064,-0.11789996922016144
1761315740604234500,1.404234375,-0.4006326198577881,-0.0013960511423647404,-0.15424759685993195
1761315740614216400,1.414216552734375,-0.41303256154060364,-0.03741849958896637,-0.19066180288791656
1761315740624198400,1.424198486328125,-0.42689868807792664,-0.022608298808336258,-0.23406139016151428
1761315740634181400,1.434181396484375,-0.4374152421951294,0.03266241401433945,-0.2718321979045868
1761315740644163300,1.444163330078125,-0.44463902711868286,0.09433431923389435,-0.31853336095809937
1761315740654145500,1.4541455078125,-0.4628060460090637,0.12471884489059448,-0.3849866986274719
1761315740664127200,1.464127197265625,-0.4775046706199646,0.14099940657615662,-0.45581984519958496
1761315740674110500,1.4741103515625,-0.4929776191711426,0.17408864200115204,-0.5158900618553162
1761315740684092400,1.484092529296875,-0.50604647397995,0.2203211486339569,-0.5655565857887268
1761315740694074400,1.494074462890625,-0.5128968954086304,0.25664427876472473,-0.5999744534492493
1761315740704056600,1.504056640625,-0.5091290473937988,0.28928226232528687,-0.613943874835968
1761315740714039600,1.51403955078125,-0.4983501434326172,0.30916088819503784,-0.6109694242477417
1761315740724021500,1.524021484375,-0.47709450125694275,0.33578822016716003,-0.5998638868331909
1761315740734003500,1.53400341796875,-0.4548182189464569,0.35321247577667236,-0.5765500068664551
1761315740743985400,1.5439853515625,-0.4268023371696472,0.34065037965774536,-0.5523730516433716
1761315740753968400,1.553968505859375,-0.39209017157554626,0.31701111793518066,-0.5306875109672546
1761315740763950300,1.563950439453125,-0.353206604719162,0.3104865252971649,-0.5037129521369934
1761315740773932500,1.5739326171875,-0.3178744614124298,0.30637380480766296,-0.4889369606971741
1761315740783914500,1.58391455078125,-0.2848120927810669,0.2728326916694641,-0.48433101177215576
1761315740793897500,1.5938974609375,-0.2572545111179352,0.21216827630996704,-0.48707807064056396
1761315740803879400,1.60387939453125,-0.23468153178691864,0.13339558243751526,-0.4871443510055542
1761315740813861400,1.613861328125,-0.2172335684299469,0.03156055882573128,-0.4904749095439911
1761315740823843600,1.623843505859375,-0.1978069543838501,-0.09039707481861115,-0.48176872730255127
1761315740833826600,1.63382666015625,-0.1810103952884674,-0.20477184653282166,-0.4531320035457611
1761315740843808500,1.64380859375,-0.16581781208515167,-0.29976457357406616,-0.4147399663925171
1761315740853790500,1.65379052734375,-0.15341095626354218,-0.3699958622455597,-0.3545922040939331
1761315740863772400,1.6637724609375,-0.14346763491630554,-0.39973610639572144,-0.28219565749168396
1761315740873755400,1.67375537109375,-0.12563270330429077,-0.38114404678344727,-0.18872936069965363
1761315740883737600,1.683737548828125,-0.09968961775302887,-0.293443500995636,-0.09376098960638046
1761315740893719600,1.693719482421875,-0.05480070784687996,-0.11826130747795105,0.015638472512364388
1761315740903701500,1.703701416015625,0.011326411738991737,0.12405361980199814,0.11019981652498245
1761315740913683500,1.713683349609375,0.09140846133232117,0.30082279443740845,0.16820265352725983
1761315740923666400,1.72366650390625,0.15469175577163696,0.3758007287979126,0.17757628858089447
1761315740933648400,1.7336484375,0.18734264373779297,0.389149010181427,0.13936233520507812
1761315740943630300,1.74363037109375,0.19815154373645782,0.3318471610546112,0.07332322746515274
1761315740953612500,1.753612548828125,0.19567854702472687,0.18889132142066956,0.003708731383085251
1761315740963595300,1.76359521484375,0.17031735181808472,-0.030877847224473953,-0.03282048553228378
1761315740973577500,1.773577392578125,0.13255079090595245,-0.24332726001739502,-0.011433702893555164
1761315740983559400,1.783559326171875,0.10448674857616425,-0.4082210659980774,0.07573392987251282
1761315740993541400,1.793541259765625,0.10011383891105652,-0.47631731629371643,0.23386551439762115
1761315741003524600,1.803524658203125,0.12614479660987854,-0.423945814371109,0.43812260031700134
1761315741013506300,1.81350634765625,0.18666379153728485,-0.26411938667297363,0.6747044920921326
1761315741023488500,1.823488525390625,0.28904956579208374,-0.05893527343869209,0.8907260894775391
1761315741033470500,1.833470458984375,0.4158565104007721,0.14960888028144836,1.0498541593551636
1761315741043453400,1.843453369140625,0.5495612025260925,0.31531375646591187,1.12104332447052
1761315741053435600,1.853435546875,0.6649271845817566,0.4338766038417816,1.1195142269134521
1761315741063417300,1.863417236328125,0.7604869604110718,0.5418834090232849,1.0791332721710205
1761315741073399600,1.873399658203125,0.8393133282661438,0.6454468369483948,1.025826334953308
1761315741083382300,1.88338232421875,0.8941735625267029,0.7157641053199768,0.9787240028381348
1761315741093364500,1.893364501953125,0.947296142578125,0.7136834263801575,0.9423758387565613
1761315741103346400,1.903346435546875,0.9877750873565674,0.6425617337226868,0.9101167321205139
1761315741113328400,1.913328369140625,1.003870964050293,0.5039796233177185,0.8860985040664673
1761315741123311600,1.9233115234375,1.0062899589538574,0.317510187625885,0.8633512258529663
1761315741133293300,1.933293212890625,0.9929873943328857,0.10501044988632202,0.8294792771339417
1761315741143275500,1.943275634765625,0.9597360491752625,-0.09388820081949234,0.7930410504341125
1761315741153257500,1.953257568359375,0.9221668839454651,-0.2425042986869812,0.7286016345024109
1761315741163239400,1.963239501953125,0.8903443813323975,-0.3340809941291809,0.6354162096977234
1761315741173222700,1.97322265625,0.8712817430496216,-0.363966166973114,0.5282988548278809
1761315741183204400,1.983204345703125,0.8447218537330627,-0.33181658387184143,0.42738860845565796
1761315741193186300,1.993186279296875,0.8130393028259277,-0.2653435468673706,0.3206842839717865
1761315741203168500,2.00316845703125,0.7908118963241577,-0.19154268503189087,0.2156454473733902
1761315741213151200,2.013151123046875,0.7784649133682251,-0.09018437564373016,0.13146506249904633
1761315741223133400,2.023133544921875,0.8027048110961914,0.06647495925426483,0.08912882208824158
1761315741233115400,2.033115478515625,0.8566492795944214,0.2676541209220886,0.08624914288520813
1761315741243097300,2.043097412109375,0.9542315602302551,0.4744814932346344,0.13162851333618164
1761315741253080300,2.053080322265625,1.059518575668335,0.6459259986877441,0.20133967697620392
1761315741263062300,2.063062255859375,1.1800448894500732,0.7648372054100037,0.2783755660057068
1761315741273044200,2.073044189453125,1.3005595207214355,0.8323978781700134,0.34426748752593994
1761315741283026200,2.083026123046875,1.409011721611023,0.8601483702659607,0.3894856870174408
1761315741293009400,2.093009521484375,1.497493863105774,0.858631432056427,0.40246832370758057
1761315741302991400,2.102991455078125,1.5605599880218506,0.8419686555862427,0.3833147883415222
1761315741312973300,2.112973388671875,1.600419044494629,0.8043821454048157,0.3453136086463928
1761315741322955300,2.122955322265625,1.6242846250534058,0.7553994059562683,0.28232935070991516
1761315741332938500,2.1329384765625,1.6256654262542725,0.6949262022972107,0.20429740846157074
1761315741342920200,2.142920166015625,1.6021111011505127,0.6069948077201843,0.11518922448158264
1761315741352902400,2.15290234375,1.5549979209899902,0.5164231061935425,0.02756643109023571
1761315741362884400,2.16288427734375,1.495872974395752,0.42922037839889526,-0.04999633505940437
1761315741372866300,2.1728662109375,1.4411343336105347,0.3501034379005432,-0.11393111199140549
1761315741382849300,2.182849365234375,1.3947356939315796,0.2784459590911865,-0.16903598606586456
1761315741392831200,2.192831298828125,1.3582837581634521,0.2151934802532196,-0.21631987392902374
1761315741402813400,2.2028134765625,1.3227899074554443,0.1628498136997223,-0.25433260202407837
1761315741412795400,2.21279541015625,1.2856711149215698,0.13172172009944916,-0.270158976316452
1761315741422778400,2.2227783203125,1.2511934041976929,0.12252692133188248,-0.2619723379611969
1761315741432760300,2.23276025390625,1.2088406085968018,0.13506321609020233,-0.23584406077861786
1761315741442742300,2.2427421875,1.161551833152771,0.16244274377822876,-0.20333634316921234
1761315741452724200,2.25272412109375,1.104175329208374,0.19379055500030518,-0.17147454619407654
1761315741462707200,2.262707275390625,1.0458430051803589,0.23813076317310333,-0.14972832798957825
1761315741472689400,2.272689453125,0.9820307493209839,0.29523396492004395,-0.14217481017112732
1761315741482671400,2.28267138671875,0.9143193364143372,0.3413216173648834,-0.14003245532512665
1761315741492653300,2.2926533203125,0.8351321220397949,0.3636426329612732,-0.13720443844795227
1761315741502636500,2.302636474609375,0.7631732225418091,0.36319759488105774,-0.11120250821113586
1761315741512618200,2.3126181640625,0.6813867092132568,0.3393478989601135,-0.06758179515600204
1761315741522600400,2.322600341796875,0.6021817922592163,0.3034675717353821,-0.007665667682886124
1761315741532582400,2.33258251953125,0.5219090580940247,0.2762759029865265,0.057252075523138046
1761315741542565400,2.3425654296875,0.4497719407081604,0.2620977759361267,0.11049877852201462
1761315741552547300,2.35254736328125,0.3756529688835144,0.28205737471580505,0.1532166749238968
1761315741562529300,2.362529296875,0.31161007285118103,0.3299528956413269,0.17268016934394836
1761315741572511500,2.372511474609375,0.2456158697605133,0.37258026003837585,0.17532867193222046
1761315741582493200,2.3824931640625,0.18578043580055237,0.4043785631656647,0.1687772125005722
1761315741592476400,2.392476318359375,0.14543381333351135,0.4598628878593445,0.16932502388954163
1761315741602458000,2.4024580078125,0.13558204472064972,0.5117188096046448,0.15155257284641266
1761315741612440300,2.4124404296875,0.1458354890346527,0.4828493297100067,0.10273604094982147
1761315741622422300,2.42242236328125,0.12938189506530762,0.3848329782485962,0.005948666483163834
1761315741632405200,2.4324052734375,0.04279293864965439,0.2441946417093277,-0.12888212502002716
1761315741642387500,2.442387451171875,-0.12029749155044556,0.04363551363348961,-0.3267291784286499
1761315741652369200,2.452369140625,-0.33569982647895813,-0.1749407798051834,-0.5576955676078796
1761315741662351400,2.462351318359375,-0.5514082908630371,-0.3050360679626465,-0.7648895978927612
1761315741672334300,2.472334228515625,-0.7257481217384338,-0.2871566712856293,-0.898727536201477
1761315741682316300,2.48231640625,-0.8388877511024475,-0.15560024976730347,-0.9455338716506958
1761315741692298500,2.492298583984375,-0.8731796741485596,0.09334352612495422,-0.9054157733917236
1761315741702280200,2.5022802734375,-0.8176941871643066,0.3772234320640564,-0.7886615991592407
1761315741712263400,2.512263427734375,-0.6857574582099915,0.6302742958068848,-0.6228910088539124
1761315741722245000,2.5222451171875,-0.503909170627594,0.8332177996635437,-0.43473726511001587
1761315741732227300,2.532227294921875,-0.30187463760375977,0.9615854024887085,-0.2422860860824585
1761315741742209500,2.54220947265625,-0.10243362188339233,1.032230257987976,-0.04663633927702904
1761315741752191200,2.552191162109375,0.07033495604991913,1.0450600385665894,0.14260229468345642
1761315741762174500,2.562174560546875,0.20856377482414246,0.9923098087310791,0.3179696798324585
1761315741772156200,2.57215625,0.3278941512107849,0.8933435082435608,0.48016977310180664
1761315741782138400,2.582138427734375,0.42812928557395935,0.7634024620056152,0.6160220503807068
1761315741792120300,2.592120361328125,0.5085147023200989,0.6085391044616699,0.7211450338363647
1761315741802103300,2.602103271484375,0.5617551207542419,0.4190525710582733,0.7935317754745483
1761315741812085500,2.61208544921875,0.6019896268844604,0.20962850749492645,0.8483551144599915
1761315741822067200,2.622067138671875,0.6349849700927734,-0.00137680908665061,0.8856901526451111
1761315741832049400,2.63204931640625,0.6545629501342773,-0.21263419091701508,0.9038662314414978
1761315741842032400,2.642032470703125,0.645757794380188,-0.3974541127681732,0.8983649015426636
1761315741852014300,2.652014404296875,0.588452160358429,-0.5249439477920532,0.8714011907577515
1761315741861996300,2.661996337890625,0.4880605936050415,-0.6024748086929321,0.813575804233551
1761315741871978200,2.671978271484375,0.33790943026542664,-0.6544250845909119,0.7256116271018982
1761315741881961500,2.68196142578125,0.15213774144649506,-0.671729564666748,0.6145188212394714
1761315741891943200,2.691943115234375,-0.05320795252919197,-0.6455515027046204,0.5053496956825256
1761315741901925400,2.70192529296875,-0.2553298771381378,-0.5673645734786987,0.3956138491630554
1761315741911907300,2.7119072265625,-0.4259181320667267,-0.4357242286205292,0.29257670044898987
1761315741921889300,2.72188916015625,-0.5546729564666748,-0.2666688859462738,0.1867968887090683
1761315741931872300,2.731872314453125,-0.6366924047470093,-0.08151636272668839,0.08228807151317596
1761315741941854200,2.741854248046875,-0.6742264032363892,0.0836239904165268,-0.009078288450837135
1761315741951836400,2.75183642578125,-0.6703163385391235,0.2156592458486557,-0.0842667818069458
1761315741961818000,2.761818115234375,-0.6385488510131836,0.3076539933681488,-0.13971449434757233
1761315741971801300,2.77180126953125,-0.6020222306251526,0.3270929455757141,-0.17819823324680328
1761315741981783300,2.781783203125,-0.5751623511314392,0.2963760197162628,-0.19623541831970215
1761315741991765200,2.79176513671875,-0.5517206788063049,0.22437292337417603,-0.20894642174243927
1761315742001747500,2.80174755859375,-0.5405231714248657,0.13011698424816132,-0.2246020883321762
1761315742011730400,2.81173046875,-0.5268076062202454,0.028069712221622467,-0.249891996383667
1761315742021712400,2.82171240234375,-0.5364865660667419,-0.08291281759738922,-0.2941388785839081
1761315742031694300,2.8316943359375,-0.5634851455688477,-0.19710862636566162,-0.358399897813797
1761315742041676300,2.84167626953125,-0.5994537472724915,-0.28804466128349304,-0.43906518816947937
1761315742051659300,2.8516591796875,-0.622425377368927,-0.3512454628944397,-0.5201869606971741
1761315742061641200,2.86164111328125,-0.6340897679328918,-0.37738096714019775,-0.6137075424194336
1761315742071623400,2.87162353515625,-0.6502476930618286,-0.38792842626571655,-0.7119523286819458
1761315742081605400,2.88160546875,-0.68519127368927,-0.38973745703697205,-0.8062461614608765
1761315742091588400,2.89158837890625,-0.7303819060325623,-0.37835270166397095,-0.8915722370147705
1761315742101570300,2.9015703125,-0.7614327073097229,-0.3499637246131897,-0.9524828195571899
1761315742111552300,2.91155224609375,-0.7743141651153564,-0.31400278210639954,-0.9969565272331238
1761315742121534500,2.921534423828125,-0.7514042854309082,-0.28783148527145386,-1.0264619588851929
1761315742131516200,2.93151611328125,-0.6966161131858826,-0.27102401852607727,-1.0461243391036987
1761315742141499400,2.94149951171875,-0.6201719045639038,-0.24440649151802063,-1.0363125801086426
1761315742151481300,2.9514814453125,-0.5252299308776855,-0.19669781625270844,-0.9881801605224609
1761315742161463300,2.96146337890625,-0.41801202297210693,-0.15607480704784393,-0.9054767489433289
1761315742171445200,2.9714453125,-0.30892786383628845,-0.1339428722858429,-0.7975934147834778
1761315742181427700,2.981427734375,-0.2005428522825241,-0.1350400447845459,-0.6871713399887085
1761315742191410000,2.991409912109375,-0.10369514673948288,-0.14817209541797638,-0.5786826610565186
1761315742201391600,3.0013916015625,-0.027598418295383453,-0.16705501079559326,-0.48161086440086365
1761315742211373800,3.011373779296875,0.027910912409424782,-0.18897761404514313,-0.393114298582077
1761315742221356500,3.0213564453125,0.06374834477901459,-0.18734419345855713,-0.3060625493526459
1761315742231338800,3.0313388671875,0.09115546196699142,-0.16701973974704742,-0.23128096759319305
1761315742241321000,3.041321044921875,0.10874525457620621,-0.12986797094345093,-0.17269065976142883
1761315742251302700,3.051302734375,0.12251326441764832,-0.0981617122888565,-0.14334316551685333
1761315742261286000,3.061285888671875,0.14158423244953156,-0.07733197510242462,-0.12845894694328308
1761315742271267600,3.071267578125,0.1585935801267624,-0.0688474103808403,-0.10783088952302933
1761315742281249800,3.081249755859375,0.16968382894992828,-0.05199384316802025,-0.07711601257324219
1761315742291231700,3.091231689453125,0.16983535885810852,-0.05063243582844734,-0.0369105339050293
1761315742301213700,3.101213623046875,0.15717856585979462,-0.056369978934526443,0.009094920009374619
1761315742311197000,3.111197021484375,0.1437186896800995,-0.06080015003681183,0.06496777385473251
1761315742321178600,3.1211787109375,0.126694455742836,-0.06089062988758087,0.11713933944702148
1761315742331160800,3.131160888671875,0.11329875141382217,-0.06420653313398361,0.1543777883052826
1761315742341142500,3.141142578125,0.11429579555988312,-0.033886730670928955,0.1894696205854416
1761315742351125800,3.151125732421875,0.12409942597150803,0.015508782118558884,0.22926843166351318
1761315742361107700,3.161107666015625,0.133697509765625,0.09094443172216415,0.2821458876132965
1761315742371089700,3.171089599609375,0.14514856040477753,0.21272440254688263,0.3549036979675293
1761315742381072000,3.18107177734375,0.17467130720615387,0.4513565003871918,0.4379059970378876
1761315742391054600,3.1910546875,0.23269306123256683,0.6828349828720093,0.49540895223617554
1761315742401036800,3.201036865234375,0.2873646318912506,0.7962898015975952,0.48938629031181335
1761315742411018800,3.211018798828125,0.3167116045951843,0.8158310055732727,0.4389875531196594
1761315742421000700,3.221000732421875,0.3134863078594208,0.7458288073539734,0.3538368344306946
1761315742430983700,3.230983642578125,0.2829616963863373,0.549283504486084,0.260078102350235
1761315742440965600,3.240965576171875,0.22660459578037262,0.24025490880012512,0.1629583090543747
1761315742450947800,3.25094775390625,0.1488509476184845,-0.08396869897842407,0.08893229067325592
1761315742460929500,3.260929443359375,0.0736391693353653,-0.32058000564575195,0.08140477538108826
1761315742470911700,3.270911865234375,0.019489645957946777,-0.4012274444103241,0.15527765452861786
1761315742480894700,3.280894775390625,-0.0107581727206707,-0.34062865376472473,0.2776205539703369
1761315742490876700,3.290876708984375,0.005562211386859417,-0.14314863085746765,0.4259338676929474
1761315742500859000,3.30085888671875,0.07228413969278336,0.14846350252628326,0.5735445022583008
1761315742510840600,3.310840576171875,0.17323657870292664,0.46681085228919983,0.6880625486373901
1761315742520823800,3.32082373046875,0.32020556926727295,0.7148540616035461,0.7466116547584534
1761315742530805800,3.3308056640625,0.4824962019920349,0.89970463514328,0.7495867013931274
1761315742540787700,3.34078759765625,0.6474587917327881,1.0517430305480957,0.7487780451774597
1761315742550770000,3.35077001953125,0.7772029638290405,1.1569520235061646,0.7524417638778687
1761315742560752600,3.360752685546875,0.8667920827865601,1.185922622680664,0.7513606548309326
1761315742570734800,3.37073486328125,0.9189759492874146,1.1026607751846313,0.7310231328010559
1761315742580716800,3.380716796875,0.9438289999961853,0.912926971912384,0.6797983050346375
1761315742590698800,3.39069873046875,0.9298385977745056,0.6419191956520081,0.6068601608276367
1761315742600681700,3.400681640625,0.8840206265449524,0.3321346044540405,0.5202710032463074
1761315742610663700,3.41066357421875,0.8185585141181946,0.036097072064876556,0.4393979609012604
1761315742620646000,3.42064599609375,0.7413595914840698,-0.18178626894950867,0.3754381835460663
1761315742630627600,3.430627685546875,0.674110472202301,-0.32133960723876953,0.33775418996810913
1761315742640609800,3.44060986328125,0.6108486652374268,-0.38069334626197815,0.3160412311553955
1761315742650592800,3.4505927734375,0.5576860904693604,-0.36362382769584656,0.2748522460460663
1761315742660574700,3.46057470703125,0.5237669348716736,-0.3051537871360779,0.2064305543899536
1761315742670556700,3.470556640625,0.5012727975845337,-0.21441081166267395,0.11479330062866211
1761315742680538600,3.48053857421875,0.49971893429756165,-0.09568587690591812,0.01163459848612547
1761315742690521600,3.490521484375,0.5032287240028381,0.02461950108408928,-0.0930023267865181
1761315742700503800,3.50050390625,0.5181624889373779,0.12907463312149048,-0.16691535711288452
1761315742710485800,3.51048583984375,0.5371662378311157,0.189689502120018,-0.20349733531475067
1761315742720467700,3.5204677734375,0.5589313507080078,0.19669976830482483,-0.20518405735492706
1761315742730450700,3.53045068359375,0.5817152261734009,0.16129916906356812,-0.17560938000679016
1761315742740432600,3.5404326171875,0.602634072303772,0.11054836958646774,-0.12043827772140503
1761315742750414800,3.550414794921875,0.609573483467102,0.04459598660469055,-0.060666292905807495
1761315742760396800,3.560396728515625,0.6105692982673645,-0.03430261090397835,-0.0004005194641649723
1761315742770379800,3.5703798828125,0.6083402037620544,-0.09823206067085266,0.05607686936855316
1761315742780361700,3.58036181640625,0.5912603139877319,-0.11275927722454071,0.11705390363931656
1761315742790343700,3.59034375,0.5600155591964722,-0.08361763507127762,0.1640528440475464
1761315742800325600,3.60032568359375,0.5164598822593689,-0.030881367623806,0.17022399604320526
1761315742810307800,3.610307861328125,0.4573630094528198,-0.01643611676990986,0.12391430139541626
1761315742820290800,3.620290771484375,0.4128904342651367,-0.02967613749206066,0.040986984968185425
1761315742830272800,3.630272705078125,0.379434198141098,-0.038850460201501846,-0.06540070474147797
1761315742840254700,3.640254638671875,0.3439701199531555,-0.05115494877099991,-0.18364033102989197
1761315742850236700,3.650236572265625,0.30674153566360474,-0.06182969734072685,-0.3054349422454834
1761315742860219600,3.6602197265625,0.2684817910194397,-0.07929718494415283,-0.4034710228443146
1761315742870201900,3.670201904296875,0.22946672141551971,-0.11018665879964828,-0.4618602991104126
1761315742880183800,3.680183837890625,0.19327251613140106,-0.12454814463853836,-0.48001474142074585
1761315742890165800,3.690165771484375,0.16575461626052856,-0.12403415143489838,-0.4605097472667694
1761315742900148700,3.700148681640625,0.1414281576871872,-0.12923073768615723,-0.41661515831947327
1761315742910130700,3.710130615234375,0.12631045281887054,-0.12817879021167755,-0.357234925031662
1761315742920113000,3.72011279296875,0.12377224862575531,-0.12776058912277222,-0.28533506393432617
1761315742930094600,3.730094482421875,0.1211082935333252,-0.12929803133010864,-0.21736879646778107
1761315742940077800,3.740077880859375,0.12858512997627258,-0.13935324549674988,-0.15616849064826965
1761315742950059800,3.750059814453125,0.15162226557731628,-0.15102028846740723,-0.0973334014415741
1761315742960041700,3.760041748046875,0.17603851854801178,-0.15832045674324036,-0.05248301103711128
1761315742970023700,3.770023681640625,0.20873069763183594,-0.1730986088514328,-0.023936854675412178
1761315742980005600,3.780005615234375,0.22872759401798248,-0.1978253722190857,-0.014216793701052666
1761315742989988900,3.78998876953125,0.22432751953601837,-0.2208545207977295,-0.02308911457657814
1761315742999970600,3.799970458984375,0.19853155314922333,-0.23530611395835876,-0.045099373906850815
1761315743009952800,3.809952880859375,0.15353772044181824,-0.2569653391838074,-0.07961926609277725
1761315743019934700,3.819934814453125,0.10009889304637909,-0.28309205174446106,-0.11419813334941864
1761315743029917700,3.829917724609375,0.05624435096979141,-0.308726042509079,-0.15093831717967987
1761315743039900000,3.83989990234375,0.016162868589162827,-0.3186763823032379,-0.17668335139751434
1761315743049881600,3.849881591796875,-0.02340531349182129,-0.3018774390220642,-0.19070063531398773
1761315743059863800,3.85986376953125,-0.06759962439537048,-0.262362003326416,-0.191594660282135
1761315743069846500,3.869846435546875,-0.10660774260759354,-0.18282563984394073,-0.16444824635982513
1761315743079828700,3.879828857421875,-0.10591667145490646,-0.012487613596022129,-0.09996956586837769
1761315743089811000,3.88981103515625,-0.050842493772506714,0.181726336479187,-0.026498280465602875
1761315743099792600,3.899792724609375,0.03970085084438324,0.2788733243942261,0.024339886382222176
1761315743109776000,3.90977587890625,0.08883243799209595,0.23942551016807556,0.04331890121102333
1761315743119757600,3.919757568359375,0.09370837360620499,0.09755916148424149,0.013673544861376286
1761315743129739800,3.92973974609375,0.06526713818311691,-0.11355574429035187,-0.03435549885034561
1761315743139721700,3.9397216796875,0.02367466501891613,-0.324115514755249,-0.07761567831039429
1761315743149703700,3.94970361328125,-0.0266921017318964,-0.5163568258285522,-0.09750895947217941
1761315743159687000,3.95968701171875,-0.07743896543979645,-0.6747323870658875,-0.08400167524814606
1761315743169668600,3.969668701171875,-0.10599284619092941,-0.7654359340667725,-0.03009902872145176
1761315743179650800,3.97965087890625,-0.10964690893888474,-0.7518138885498047,0.04998835176229477
1761315743189632800,3.9896328125,-0.0935603454709053,-0.627997636795044,0.1317061185836792
1761315743199615700,3.99961572265625,-0.0588405467569828,-0.43825024366378784,0.15992319583892822
1761315743209598000,4.009597900390625,-0.03392374515533447,-0.26636236906051636,0.108882375061512
1761315743219579600,4.01957958984375,-0.026983311399817467,-0.1253175288438797,-0.022656269371509552
1761315743229561900,4.029561767578125,-0.028731411322951317,-0.0156933031976223,-0.18531548976898193
1761315743239544600,4.039544677734375,-0.045391183346509933,0.059917062520980835,-0.32271796464920044
1761315743249526800,4.04952685546875,-0.07369738817214966,0.0679403692483902,-0.4060352146625519
1761315743259508700,4.0595087890625,-0.1023600772023201,0.05819190293550491,-0.41148898005485535
1761315743269490700,4.06949072265625,-0.07876899838447571,0.04697439819574356,-0.33479341864585876
1761315743279473000,4.079472900390625,-0.011926600709557533,0.018061969429254532,-0.19468992948532104
1761315743289455600,4.08945556640625,0.07409936189651489,-0.012671442702412605,-0.008175710216164589
1761315743299437800,4.099437744140625,0.1639128178358078,-0.04235903173685074,0.2190830111503601
1761315743309419500,4.10941943359375,0.244184210896492,-0.08618561178445816,0.44943660497665405
1761315743319401700,4.119401611328125,0.29851746559143066,-0.1474023014307022,0.6505837440490723
1761315743329384700,4.129384765625,0.30798953771591187,-0.22388696670532227,0.7916745543479919
1761315743339366700,4.13936669921875,0.2775211036205292,-0.31158390641212463,0.8540530800819397
1761315743349348900,4.149348876953125,0.19880713522434235,-0.42739439010620117,0.8391931653022766
1761315743359330600,4.15933056640625,0.08963066339492798,-0.5237665772438049,0.7643210887908936
1761315743369313800,4.169313720703125,-0.032896582037210464,-0.5704547762870789,0.6469470858573914
1761315743379295700,4.179295654296875,-0.14913618564605713,-0.563990592956543,0.4927814304828644
1761315743389277700,4.189277587890625,-0.2570200562477112,-0.5300062894821167,0.32668301463127136
1761315743399260000,4.199260009765625,-0.3377380073070526,-0.4779815971851349,0.16596226394176483
1761315743409241600,4.20924169921875,-0.38160213828086853,-0.4072784185409546,0.05205433815717697
1761315743419224800,4.219224853515625,-0.403053343296051,-0.3307151794433594,-0.013398701325058937
1761315743429206800,4.229206787109375,-0.4112745225429535,-0.2675359547138214,-0.03798101097345352
1761315743439188700,4.239188720703125,-0.4162599742412567,-0.21435163915157318,-0.05095963180065155
1761315743449171000,4.2491708984375,-0.4300815165042877,-0.1736135184764862,-0.06307034939527512
1761315743459153700,4.259153564453125,-0.44764989614486694,-0.15561649203300476,-0.08211284130811691
1761315743469136000,4.269135986328125,-0.4704073965549469,-0.15626098215579987,-0.11343134194612503
1761315743479117600,4.27911767578125,-0.49425506591796875,-0.18045449256896973,-0.15742582082748413
1761315743489099800,4.289099853515625,-0.5036957263946533,-0.2075071483850479,-0.2147945761680603
1761315743499082800,4.299082763671875,-0.5106185674667358,-0.23437218368053436,-0.2796158492565155
1761315743509064700,4.309064697265625,-0.5161478519439697,-0.2567533850669861,-0.35811811685562134
1761315743519046700,4.319046630859375,-0.5135101675987244,-0.26902225613594055,-0.44720396399497986
1761315743529028600,4.329028564453125,-0.511752724647522,-0.2511700391769409,-0.5182493925094604
1761315743539011800,4.33901171875,-0.5099160671234131,-0.2166188806295395,-0.569429337978363
1761315743548993800,4.348993896484375,-0.5083067417144775,-0.17927977442741394,-0.606500506401062
1761315743558975700,4.358975830078125,-0.5017607808113098,-0.13674330711364746,-0.6328996419906616
1761315743568957700,4.368957763671875,-0.4898316562175751,-0.11531416326761246,-0.6436457633972168
1761315743578939600,4.378939697265625,-0.4789450466632843,-0.10475032776594162,-0.6375894546508789
1761315743588922600,4.388922607421875,-0.4688498079776764,-0.10222964733839035,-0.6232784390449524
1761315743598904800,4.39890478515625,-0.462887704372406,-0.11163625121116638,-0.6007171273231506
1761315743608886800,4.40888671875,-0.4580998718738556,-0.10967057198286057,-0.5682398676872253
1761315743618868700,4.41886865234375,-0.45183223485946655,-0.0780973732471466,-0.5235947966575623
1761315743628851700,4.428851806640625,-0.4387776851654053,-0.015444111078977585,-0.47017499804496765
1761315743638833700,4.438833740234375,-0.4186437129974365,0.05181233584880829,-0.40544456243515015
1761315743648815600,4.448815673828125,-0.4034256041049957,0.11330898851156235,-0.3419438600540161
1761315743658797800,4.4587978515625,-0.39448362588882446,0.14947237074375153,-0.2821138799190521
1761315743668780800,4.46878076171875,-0.3883671462535858,0.16899041831493378,-0.23161980509757996
1761315743678762800,4.4787626953125,-0.369327574968338,0.17990320920944214,-0.17926377058029175
1761315743688744700,4.48874462890625,-0.35031288862228394,0.19823455810546875,-0.12189928442239761
1761315743698726700,4.4987265625,-0.341277152299881,0.2106144279241562,-0.07194966077804565
1761315743708708900,4.508708984375,-0.34014689922332764,0.225423201918602,-0.02181032858788967
1761315743718691800,4.51869189453125,-0.3478197753429413,0.22861963510513306,0.01978168822824955
1761315743728673800,4.528673828125,-0.3728407025337219,0.22279077768325806,0.03984035179018974
1761315743738655700,4.53865576171875,-0.39661645889282227,0.19435130059719086,0.04710179194808006
1761315743748637700,4.5486376953125,-0.43398407101631165,0.14487110078334808,0.05059532821178436
1761315743758620700,4.55862060546875,-0.4628411829471588,0.08768481761217117,0.060787733644247055
1761315743768603000,4.568602783203125,-0.49728837609291077,0.0522671677172184,0.07142999768257141
1761315743778584800,4.578584716796875,-0.5276124477386475,0.033348627388477325,0.06980212032794952
1761315743788566800,4.58856689453125,-0.5523886680603027,0.019810184836387634,0.05377281457185745
1761315743798549800,4.5985498046875,-0.5659638047218323,0.015368090942502022,0.031884800642728806
1761315743808531700,4.60853173828125,-0.5713575482368469,0.03870297595858574,0.018809212371706963
1761315743818513700,4.618513671875,-0.5630940198898315,0.06843636929988861,0.00934513658285141
1761315743828495600,4.62849560546875,-0.5573679208755493,0.10400234907865524,0.0023926878347992897
1761315743838478800,4.638478759765625,-0.5597181916236877,0.14127875864505768,0.0010475825984030962
1761315743848460800,4.648460693359375,-0.5746204257011414,0.1823580116033554,0.007981655187904835
1761315743858442800,4.65844287109375,-0.5891193747520447,0.22927342355251312,0.037845633924007416
1761315743868424700,4.6684248046875,-0.5838881134986877,0.2981654107570648,0.08799641579389572
1761315743878406700,4.67840673828125,-0.5680854320526123,0.3699030578136444,0.1505737602710724
1761315743888390000,4.688389892578125,-0.5485607385635376,0.5205226540565491,0.2181812971830368
1761315743898371600,4.69837158203125,-0.5025734901428223,0.7419679760932922,0.279872328042984
1761315743908353800,4.708353759765625,-0.4393484592437744,0.8888586759567261,0.29753121733665466
1761315743918335700,4.718335693359375,-0.37382981181144714,0.9104747772216797,0.25054141879081726
1761315743928318700,4.728318603515625,-0.3349878787994385,0.8667981624603271,0.1566929668188095
1761315743938301000,4.738301025390625,-0.32490068674087524,0.7703147530555725,0.049293152987957
1761315743948282600,4.74828271484375,-0.348561555147171,0.5890635251998901,-0.04573748633265495
1761315743958264800,4.758264892578125,-0.41387203335762024,0.3267541229724884,-0.12550410628318787
1761315743968247600,4.76824755859375,-0.5036461353302002,0.04241586849093437,-0.17815053462982178
1761315743978229800,4.778229736328125,-0.6078646779060364,-0.1543690264225006,-0.1972338706254959
1761315743988211700,4.788211669921875,-0.6868225932121277,-0.21200621128082275,-0.17002594470977783
1761315743998193700,4.798193603515625,-0.7102663516998291,-0.14889653027057648,-0.10011367499828339
1761315744008177000,4.808177001953125,-0.698249340057373,0.0013973596505820751,-0.006784797180444002
1761315744018158600,4.81815869140625,-0.6478613018989563,0.2182585597038269,0.11142387241125107
1761315744028140800,4.828140869140625,-0.553662896156311,0.44163626432418823,0.23146772384643555
1761315744038122800,4.838122802734375,-0.40987396240234375,0.6615794897079468,0.3519687056541443
1761315744048104700,4.848104736328125,-0.2211431860923767,0.8751586079597473,0.4532164931297302
1761315744058088000,4.858087890625,-0.027015384286642075,1.0145506858825684,0.5160117745399475
1761315744068069600,4.868069580078125,0.13171939551830292,1.044164776802063,0.529802680015564
1761315744078051800,4.8780517578125,0.24564512073993683,0.9717863202095032,0.5005359649658203
1761315744088033800,4.88803369140625,0.3261551558971405,0.8212130069732666,0.44194191694259644
1761315744098016800,4.898016845703125,0.365482360124588,0.6190977096557617,0.37055718898773193
1761315744107998700,4.907998779296875,0.38087329268455505,0.4112955629825592,0.3009283244609833
1761315744117980700,4.917980712890625,0.38317370414733887,0.2099965661764145,0.24293531477451324
1761315744127963000,4.927962890625,0.37943223118782043,0.06733530014753342,0.185870960354805
1761315744137945600,4.937945556640625,0.37374457716941833,-0.02967214584350586,0.12272552400827408
1761315744147927800,4.947927734375,0.36711570620536804,-0.08073347061872482,0.04323548823595047
1761315744157909500,4.957909423828125,0.3445501923561096,-0.11318467557430267,-0.05068112537264824
1761315744167891700,4.9678916015625,0.3021790385246277,-0.15025748312473297,-0.17638392746448517
1761315744177874200,4.977874267578125,0.22829557955265045,-0.19929058849811554,-0.32370704412460327
1761315744187857200,4.987857177734375,0.13934919238090515,-0.2336549460887909,-0.48206257820129395
1761315744197839000,4.997839111328125,0.05503825098276138,-0.21132630109786987,-0.6197595596313477
1761315744207821000,5.007821044921875,-0.01906154491007328,-0.14879287779331207,-0.7062555551528931
1761315744217803000,5.017802978515625,-0.06834769994020462,-0.044763363897800446,-0.7180914878845215
1761315744227786000,5.027785888671875,-0.06818977743387222,0.08844182640314102,-0.6629621982574463
1761315744237768200,5.037768310546875,-0.024729711934924126,0.24082088470458984,-0.5535581111907959
1761315744247750100,5.047750244140625,0.06783883273601532,0.3595368564128876,-0.41035330295562744
1761315744257732000,5.057732177734375,0.17779451608657837,0.45948663353919983,-0.26159071922302246
1761315744267715300,5.06771533203125,0.30376335978507996,0.5173930525779724,-0.11326863616704941
1761315744277697000,5.077697021484375,0.41761940717697144,0.5224051475524902,0.002725728554651141
1761315744287679200,5.08767919921875,0.5158138871192932,0.4510737359523773,0.07952010631561279
1761315744297661200,5.0976611328125,0.5674051642417908,0.3461398780345917,0.10547793656587601
1761315744307643100,5.10764306640625,0.5853002667427063,0.24347765743732452,0.10479936003684998
1761315744317626000,5.117626220703125,0.5734520554542542,0.14146393537521362,0.07916127890348434
1761315744327608000,5.127608154296875,0.5454563498497009,0.039543431252241135,0.023966999724507332
1761315744337590300,5.13759033203125,0.48696112632751465,-0.04560786485671997,-0.0505465604364872
1761315744347572000,5.147572021484375,0.4263012409210205,-0.10152705758810043,-0.12253420799970627
1761315744357555200,5.15755517578125,0.3556976318359375,-0.12652167677879333,-0.1830754429101944
1761315744367537000,5.167536865234375,0.29049891233444214,-0.13766273856163025,-0.22673343122005463
1761315744377519000,5.17751904296875,0.23565825819969177,-0.1683521717786789,-0.24408914148807526
1761315744387501000,5.1875009765625,0.20234104990959167,-0.1869191974401474,-0.21732303500175476
1761315744397484000,5.197484130859375,0.18939658999443054,-0.1969745010137558,-0.17507359385490417
1761315744407466200,5.20746630859375,0.18463405966758728,-0.22334033250808716,-0.12867014110088348
1761315744417448000,5.217447998046875,0.17564140260219574,-0.2617693543434143,-0.09501716494560242
1761315744427430100,5.22743017578125,0.1651376187801361,-0.2852126359939575,-0.06581400334835052
1761315744437412000,5.237412109375,0.15290142595767975,-0.29615166783332825,-0.04433928430080414
1761315744447395000,5.24739501953125,0.1340917944908142,-0.2818819284439087,-0.05035137012600899
1761315744457377300,5.257377197265625,0.11405345797538757,-0.2688854932785034,-0.07352456450462341
1761315744467359000,5.26735888671875,0.09290289878845215,-0.2595875859260559,-0.10131838172674179
1761315744477341200,5.277341064453125,0.072605662047863,-0.22028978168964386,-0.1276136040687561
1761315744487324200,5.28732421875,0.04607951268553734,-0.18663674592971802,-0.15116846561431885
1761315744497306000,5.29730615234375,0.021108640357851982,-0.15164025127887726,-0.17139844596385956
1761315744507288300,5.307288330078125,-0.0038145524449646473,-0.15072491765022278,-0.18557126820087433
1761315744517270000,5.31727001953125,-0.030985405668616295,-0.17796505987644196,-0.1873641163110733
1761315744527253200,5.327253173828125,-0.06634792685508728,-0.23822280764579773,-0.17778605222702026
1761315744537235000,5.33723486328125,-0.10351790487766266,-0.2846013605594635,-0.15553806722164154
1761315744547217200,5.347217041015625,-0.13231973350048065,-0.30715808272361755,-0.14004406332969666
1761315744557199000,5.35719921875,-0.15079690515995026,-0.3430383801460266,-0.13335256278514862
1761315744567181000,5.36718115234375,-0.1695902943611145,-0.3736346364021301,-0.14039157330989838
1761315744577164300,5.377164306640625,-0.19266639649868011,-0.37310847640037537,-0.15461906790733337
1761315744587146000,5.38714599609375,-0.21622233092784882,-0.34175801277160645,-0.16533322632312775
1761315744597128200,5.397128173828125,-0.24045217037200928,-0.30418094992637634,-0.16903668642044067
1761315744607110100,5.407110107421875,-0.25692516565322876,-0.2681364119052887,-0.1423126608133316
1761315744617093000,5.417093017578125,-0.2719627320766449,-0.26059943437576294,-0.09360702335834503
1761315744627075000,5.427074951171875,-0.27151480317115784,-0.2537492513656616,-0.02082975022494793
1761315744637057000,5.43705712890625,-0.2552054822444916,-0.20301251113414764,0.06982821226119995
1761315744647039200,5.447039306640625,-0.21723707020282745,-0.17485757172107697,0.14965221285820007
1761315744657022200,5.457022216796875,-0.17960192263126373,-0.23118561506271362,0.1873687207698822
1761315744667004200,5.467004150390625,-0.18149861693382263,-0.3459707796573639,0.15263257920742035
1761315744676986000,5.476986083984375,-0.23247182369232178,-0.4640894830226898,0.048148542642593384
1761315744686968000,5.486968017578125,-0.30217739939689636,-0.5505394339561462,-0.09081200510263443
1761315744696950300,5.4969501953125,-0.3493121266365051,-0.5874545574188232,-0.23266424238681793
1761315744706933000,5.50693310546875,-0.382571816444397,-0.5460652709007263,-0.3407893776893616
1761315744716915200,5.516915283203125,-0.4043871760368347,-0.4296490550041199,-0.39452484250068665
1761315744726897000,5.52689697265625,-0.3980531096458435,-0.28737446665763855,-0.3906251788139343
1761315744736879000,5.536879150390625,-0.35670873522758484,-0.15742582082748413,-0.3240686357021332
1761315744746862000,5.546862060546875,-0.28284889459609985,-0.04946819320321083,-0.21544255316257477
1761315744756844000,5.556843994140625,-0.1896742880344391,0.013930871151387691,-0.08516982942819595
1761315744766826200,5.566826171875,-0.11364316940307617,-0.018275002017617226,0.0208804402500391
1761315744776808000,5.576807861328125,-0.07454967498779297,-0.12023282051086426,0.09526480734348297
1761315744786790100,5.5867900390625,-0.0645657479763031,-0.24173370003700256,0.13590091466903687
1761315744796773000,5.596773193359375,-0.06497950106859207,-0.3726009428501129,0.16087953746318817
1761315744806755000,5.606755126953125,-0.06677340716123581,-0.43047142028808594,0.17165789008140564
1761315744816737300,5.6167373046875,-0.06954140961170197,-0.3957769274711609,0.17192941904067993
1761315744826719000,5.626718994140625,-0.07029854506254196,-0.31462109088897705,0.1821517050266266
1761315744836702200,5.6367021484375,-0.056967608630657196,-0.21796773374080658,0.20455045998096466
1761315744846684200,5.64668408203125,-0.019164301455020905,-0.13985641300678253,0.2403249591588974
1761315744856666000,5.656666015625,0.02968602068722248,-0.0948454961180687,0.2800069749355316
1761315744866648300,5.6666484375,0.07738669961690903,-0.07641029357910156,0.31972935795783997
1761315744876631000,5.676631103515625,0.11960574984550476,-0.05878863111138344,0.3430892527103424
1761315744886613200,5.68661328125,0.14447301626205444,-0.05569084361195564,0.352234810590744
1761315744896595000,5.696594970703125,0.1377565562725067,-0.08965958654880524,0.3476760685443878
1761315744906577200,5.7065771484375,0.10205581039190292,-0.18393521010875702,0.3328947424888611
1761315744916560100,5.71656005859375,0.0278981551527977,-0.2891879677772522,0.3112042546272278
1761315744926542000,5.7265419921875,-0.08230824023485184,-0.38333389163017273,0.2746044397354126
1761315744936524000,5.73652392578125,-0.20713406801223755,-0.41483649611473083,0.24019722640514374
1761315744946506000,5.746506103515625,-0.3282293677330017,-0.3548477292060852,0.20849603414535522
1761315744956488200,5.75648828125,-0.417619913816452,-0.2515900433063507,0.17198674380779266
1761315744966471200,5.76647119140625,-0.47035714983940125,-0.12920500338077545,0.13018736243247986
1761315744976453000,5.776453125,-0.4798046350479126,0.004529440309852362,0.09228375554084778
1761315744986435000,5.78643505859375,-0.45494934916496277,0.12345955520868301,0.04482569545507431
1761315744996417000,5.7964169921875,-0.4165358245372772,0.22252845764160156,-0.012069880031049252
1761315745006400000,5.80639990234375,-0.36760157346725464,0.2896798253059387,-0.0848013386130333
1761315745016382200,5.81638232421875,-0.3172011077404022,0.3223061263561249,-0.1540171355009079
1761315745026364200,5.8263642578125,-0.274697870016098,0.3399706184864044,-0.22411125898361206
1761315745036346000,5.83634619140625,-0.24459275603294373,0.32703155279159546,-0.2942933738231659
1761315745046328000,5.846328125,-0.23681285977363586,0.3164729177951813,-0.3497915267944336
1761315745056311000,5.85631103515625,-0.23166398704051971,0.30486783385276794,-0.3780393600463867
1761315745066293000,5.86629296875,-0.22875981032848358,0.2744649052619934,-0.3850615620613098
1761315745076275200,5.876275146484375,-0.212444469332695,0.22342254221439362,-0.3746528923511505
1761315745086257200,5.886257080078125,-0.1928182989358902,0.17682121694087982,-0.34590113162994385
1761315745096240000,5.896240234375,-0.1831337809562683,0.1297142058610916,-0.30921250581741333
1761315745106222000,5.90622216796875,-0.17134928703308105,0.06174952909350395,-0.2883261442184448
1761315745116204000,5.9162041015625,-0.16214731335639954,0.0005271816626191139,-0.276399165391922
1761315745126186200,5.926186279296875,-0.15459086000919342,-0.02979796752333641,-0.26309216022491455
1761315745136169200,5.936169189453125,-0.1487581431865692,-0.021358584985136986,-0.2521195709705353
1761315745146151200,5.946151123046875,-0.14496980607509613,0.01772516779601574,-0.25702592730522156
1761315745156133000,5.956133056640625,-0.14852038025856018,0.0797264575958252,-0.2856403887271881
1761315745166115000,5.966114990234375,-0.14489422738552094,0.14843282103538513,-0.31340357661247253
1761315745176097300,5.97609716796875,-0.1889459788799286,0.2001589834690094,-0.06310483068227768
1761315745186080000,5.986080078125,-0.18598613142967224,-0.08007694035768509,-0.07277583330869675
1761315745196062000,5.99606201171875,-0.12677761912345886,-0.17628122866153717,-0.12575861811637878
1761315745206044000,6.0060439453125,-0.07506649196147919,-0.12791742384433746,-0.20137161016464233
1761315745216025900,6.01602587890625,-0.03934556990861893,-0.11555184423923492,-0.27833297848701477
1761315745226008800,6.0260087890625,0.0019283677684143186,-0.09234718978404999,-0.35361814498901367
1761315745235990800,6.03599072265625,0.04112750664353371,-0.01450582966208458,-0.4108067750930786
1761315745245973000,6.045972900390625,0.06540727615356445,0.1247820183634758,-0.44811394810676575
1761315745255955000,6.055954833984375,0.0740918442606926,0.28893208503723145,-0.4439258575439453
1761315745265938000,6.06593798828125,0.09620992839336395,0.44044357538223267,-0.36959969997406006
1761315745275920000,6.075919921875,0.13485731184482574,0.5244152545928955,-0.290729284286499
