time,seconds_elapsed,z,y,x
1761316474405140500,0.076140380859375,-0.06877016936540603,0.013901565371407194,-0.010758362841699272
1761316474415123500,0.08612353515625,-0.06517886687517166,0.01173793933042325,-0.007162863666960038
1761316474425105700,0.096105712890625,-0.06802198134660721,0.015126449257554485,-0.006421904539968818
1761316474435088400,0.10608837890625,-0.08194061658382415,0.009624362976243719,-0.0015993523548822849
1761316474445070600,0.116070556640625,-0.07834989861547946,-0.005458164941193536,0.004255419821618125
1761316474455053600,0.126053466796875,-0.066675827434659,-0.018115182744758204,0.003473859256180003
1761316474465036300,0.136036376953125,-0.07595335886776447,-0.01827189854327589,-0.002065093003376387
1761316474475018500,0.1460185546875,-0.0671241557240486,-0.025049996109772474,-0.007960790845309384
1761316474485001500,0.15600146484375,-0.07849544456601143,-0.017737910397583618,-0.016807881272165103
1761316474494983400,0.1659833984375,-0.07415536953508854,-0.005219789608055725,-0.010827085262932815
1761316474504966400,0.17596630859375,-0.07774491845965385,-0.004403541321726516,-0.005343132859934121
1761316474514949600,0.18594970703125,-0.0775946963340044,0.000689151307940483,-0.010280379199562593
1761316474524931300,0.195931396484375,-0.07609890481829643,0.00902259769081138,-0.005330606738501228
1761316474534914600,0.20591455078125,-0.0816378342449665,0.009191652381094172,0.0038897876798873765
1761316474544896300,0.215896240234375,-0.07909457950294017,0.002067262127576396,0.00949290491656866
1761316474554879500,0.22587939453125,-0.07520575537085533,0.003951660235226154,0.0054771619026083495
1761316474564861400,0.235861328125,-0.07430734522640704,-0.00552701979316771,0.0007765418970258906
1761316474574844400,0.245844482421875,-0.07924597067236899,-0.005915571586182341,-0.00029391404581256207
1761316474584827400,0.255827392578125,-0.07670330045223235,-0.0020886063097044823,-0.003126634987397119
1761316474594809600,0.2658095703125,-0.07430851427018642,-0.010779871420608832,-0.00978940364511218
1761316474604792300,0.275792236328125,-0.0714642307549715,-0.015038131653284654,-0.007379164165607653
1761316474614774500,0.2857744140625,-0.08014145820736884,-0.010088500756118446,-0.0110957598362118
1761316474624757500,0.295757568359375,-0.06607552345395087,-0.0020231581243686375,-0.0018400657755788415
1761316474634740500,0.305740478515625,-0.07700023757219314,0.0071576988680753855,-0.002194820330268703
1761316474644722400,0.315722412109375,-0.07191372808814048,0.008875389506155625,-0.0024862821240909396
1761316474654705400,0.325705322265625,-0.07730185086727141,0.009571208016900345,0.0019757113866042345
1761316474664687400,0.335687255859375,-0.08583060975968837,0.007710875771427527,0.004167289447016082
1761316474674670300,0.34567041015625,-0.07939736184179783,0.002210232528531924,0.010416819395031779
1761316474684653600,0.355653564453125,-0.07446341257095336,0.001824859073292464,0.006207403272762894
1761316474694635300,0.36563525390625,-0.07386661572158336,-0.012102142133470623,0.006575989989982918
1761316474704618500,0.375618408203125,-0.07715630491673946,-0.014488964204769582,-0.0002993711056420579
1761316474714600400,0.385600341796875,-0.07236731707453728,-0.017414742857823146,-0.010010476216999813
1761316474724583400,0.39558349609375,-0.07072013438940047,-0.010592669152282177,-0.009948562562465667
1761316474734566400,0.40556640625,-0.07700316018164158,0.0015559607377275823,-0.00942814171782229
1761316474744548600,0.415548583984375,-0.06697744072973728,0.012043616879265754,-0.004209964111540466
1761316474754531300,0.42553125,-0.08149111925065516,0.014814953889278695,-0.0032745646912604566
1761316474764513500,0.435513427734375,-0.06308394042253494,0.0016790482612792403,-0.005772948245098814
1761316474774496500,0.44549658203125,-0.08118950595557689,0.003891527545824647,-0.000659308725525625
1761316474784479500,0.4554794921875,-0.07191139000058173,-0.004818560996558517,0.009825018381187692
1761316474794461400,0.46546142578125,-0.06921791313290596,-0.008392501360038294,0.00047647667163982984
1761316474804444700,0.475444580078125,-0.08268588199317455,-0.012966120285354554,0.0013358745465287937
1761316474814426400,0.48542626953125,-0.07789514058530331,-0.0035182098545599727,-0.005837131488532759
1761316474824409600,0.49540966796875,-0.06592296324074268,-0.001960851744189858,-0.011740720375976524
1761316474834392600,0.505392578125,-0.06636953796446322,-0.003709951300686225,-0.010305856134113856
1761316474844374500,0.51537451171875,-0.07774141132831573,-0.010472321575088426,-0.008127936706296168
1761316474854357500,0.525357421875,-0.07968786922097205,-0.0016946750886738299,-0.0029982000018702816
1761316474864339500,0.53533935546875,-0.07175707622170448,0.00045906887911260127,-0.007465011251578107
1761316474874322400,0.545322509765625,-0.08193243327736854,-0.005214784639375284,-0.0009238733792677522
1761316474884304600,0.5553046875,-0.07190729834735393,-0.004100685917632654,0.003116871645208448
1761316474894288000,0.565287841796875,-0.07564531583189964,0.0013738821690902113,0.00024482334023341536
1761316474904270800,0.575270751953125,-0.07968553113341331,-0.004322183181205764,0.00016512286725919693
1761316474914252800,0.585252685546875,-0.07414660170674324,0.0033182759688235816,-0.004626961114327423
1761316474924235800,0.59523583984375,-0.07100304298400878,-0.004229947453644126,-0.011731244728155434
1761316474934218000,0.605218017578125,-0.07204992168843746,-0.0031052086068782954,-0.004796687091467902
1761316474944200700,0.61520068359375,-0.0735468822479248,-0.016132338364468885,-0.011715590501297264
1761316474954184000,0.625183837890625,-0.07833587009012699,-0.01850293995332904,-0.0025061056359903886
1761316474964166000,0.635165771484375,-0.0701046328395605,-0.006320097266463562,-0.00567294020303525
1761316474974148900,0.64514892578125,-0.0789320824176073,-0.005348165228078142,-0.007493214432755485
1761316474984130800,0.655130859375,-0.07309563134908675,0.0034283761466387657,-0.0031242284011794253
1761316474994114000,0.665114013671875,-0.07638707410991191,-0.0019946170164737848,-0.0022066386322258037
1761316475004096800,0.6750966796875,-0.06411737512350082,0.007430579259013756,0.006074091182718984
1761316475014079000,0.685078857421875,-0.07025017879009246,0.005969210602715611,0.010792333609960042
1761316475024062000,0.69506201171875,-0.07249123571515083,-0.003685227851383388,0.0021614112510113044
1761316475034044000,0.7050439453125,-0.07383797414898872,-0.009649323887564242,-0.0023985673080198465
1761316475044027000,0.71502685546875,-0.07413783387839794,-0.005229890876961872,-0.011692780447867698
1761316475054009900,0.725009765625,-0.07443769360780715,-0.002787475294061005,-0.005780953455041162
1761316475063991800,0.73499169921875,-0.07144494153261184,-0.010544336498528718,-0.014362113821553066
1761316475073974800,0.744974853515625,-0.07698094834983349,-0.005454319883137941,-0.007836684975028037
1761316475083957000,0.75495703125,-0.07653028197288513,0.001338208067510277,-0.0010209131461102515
1761316475093939700,0.764939697265625,-0.08670096285343169,-0.0038579814692493524,0.0005148496203823015
1761316475103922000,0.774921875,-0.07906827601790428,0.00010761595978401601,-0.0027181637843605127
1761316475113905000,0.78490478515625,-0.07472878550887108,-0.004960608948906884,0.003287405906524509
1761316475123887900,0.794887939453125,-0.07397942844629288,-0.008759873367706313,0.013547600834583862
1761316475133869800,0.804869873046875,-0.07278232761621475,-0.0038255679038353262,0.004775132846785709
1761316475143853000,0.81485302734375,-0.0790671069741249,-0.009810688461735844,0.00507082785773091
1761316475153834800,0.824834716796875,-0.06305412980616092,0.0002667703105602413,-0.00015672036509495227
1761316475163818000,0.83481787109375,-0.06649637921452523,-0.004178609992051497,-0.007788165091606788
1761316475173801000,0.844801025390625,-0.08235796521306038,-0.004246788990590721,-0.0037213586106896396
1761316475183783000,0.854782958984375,-0.08475041330754757,-0.0024602435005363077,-0.005022979261167347
1761316475193766000,0.864765869140625,-0.07861293346583843,-0.0032123313763178884,-0.004902531219273806
1761316475203747800,0.874747802734375,-0.07262859835922718,0.004815145196765661,0.001973583361599594
1761316475213730800,0.884730712890625,-0.0775683928489685,-0.0003767608905211091,0.0005542454824317246
1761316475223713800,0.8947138671875,-0.07532558235824108,-0.005087103139096871,0.0063194168464513496
1761316475233695700,0.90469580078125,-0.07637655271589755,0.0006843655349686741,-0.0009143246662104502
1761316475243678700,0.9146787109375,-0.06545476120710372,-0.0014470113373827188,-0.0005305906122084707
1761316475253661000,0.924660888671875,-0.06949673007428646,-0.006616084538353607,-0.0008079097162466495
1761316475263643600,0.9346435546875,-0.08131810077130794,-0.0046678730800282205,-0.0024764685495523736
1761316475273627000,0.944626953125,-0.08670388546288013,0.0006357862860430031,-0.0021610185253666714
1761316475283608800,0.95460888671875,-0.07368424489200115,0.005227854183502495,-0.004788357654539868
1761316475293591800,0.964591796875,-0.08176467549502849,-0.007977801345614715,-0.004121002619876526
1761316475303573800,0.97457373046875,-0.08580489079654216,-0.0054241896063555025,-0.0060789500209270046
1761316475313557000,0.984556884765625,-0.09642974518537521,-0.002941414613602683,0.0009531268732156604
1761316475323539700,0.994539794921875,-0.07847206369042396,0.0005495601741597056,0.0063774443437345325
1761316475333522000,1.00452197265625,-0.07697334956526755,-0.004193816694337874,0.007124618582380935
1761316475343505000,1.0145048828125,-0.07278232761621475,-0.011700831323582678,0.005831701828166842
1761316475353486800,1.02448681640625,-0.07831716538965701,-0.010576129009434953,0.008056328208232297
1761316475363469800,1.0344697265625,-0.07696984243392944,-0.0020367756577674297,-0.006807579389307647
1761316475373452000,1.0444521484375,-0.06514671817123889,-0.002751554597308859,-0.0011089293562807142
1761316475383434800,1.054434814453125,-0.07786649901270866,-0.004666439174767584,-0.012571316848066635
1761316475393417700,1.064417724609375,-0.07277765144109725,0.006519254834065213,-0.0065574816523352635
1761316475403400000,1.07439990234375,-0.07143091300725936,-0.0013879928928334266,-0.004537026941706426
1761316475413382700,1.084382568359375,-0.0687368516176939,0.0005141783335246145,-0.0018566333178896455
1761316475423364900,1.09436474609375,-0.07082943998277187,-0.0018760230049490927,0.0002100168883334845
1761316475433347800,1.104347900390625,-0.07950783647894859,-0.005693389336019754,0.005417421938851475
1761316475443330800,1.114330810546875,-0.07052958025336264,-0.005586147835571318,0.0045070199625100935
1761316475453312800,1.124312744140625,-0.07861234894394874,-0.0002667337779421359,0.010692403199709951
1761316475463296000,1.1342958984375,-0.06918693347275257,-0.006414744146820158,0.0018451209766091779
1761316475473277700,1.144277587890625,-0.06350304261744022,-0.004045156338112429,-0.0027119897719006985
1761316475483261000,1.154260986328125,-0.07547580448389053,-0.00779856318803504,-0.000015645093703642488
1761316475493244000,1.164243896484375,-0.07308452543318271,-0.01704250287879258,-0.014588081764266826
1761316475503225900,1.174225830078125,-0.07398468914330006,-0.00837302947458811,-0.007233618215075693
1761316475513208800,1.184208740234375,-0.08625789526104927,-0.0025764172261115163,-0.00447084353743121
1761316475523190800,1.194190673828125,-0.07563479443788527,-0.004622189041087404,-0.0037435567427659406
1761316475533173800,1.204173828125,-0.08012567611634731,0.0017620047038421035,-0.004864213069458492
1761316475543156000,1.214156005859375,-0.07518821971416473,-0.0019776293490547684,-0.006304949929681606
1761316475553138700,1.224138671875,-0.07294482470154762,0.00016404972160235045,0.005690864018793217
1761316475563122000,1.234121826171875,-0.07758475946187973,-0.002668324160110205,-0.0031545687405159697
1761316475573103900,1.244103759765625,-0.07923077310323715,-0.0014534958770964293,0.002196930088964291
1761316475583086800,1.2540869140625,-0.07728431521058082,-0.009903070319769903,0.0010590303665259852
1761316475593068800,1.26406884765625,-0.07473989142477512,-0.003509259363124147,-0.0075334642447531215
1761316475603051800,1.2740517578125,-0.07728197712302208,-0.008689246683754027,-0.009238162970519624
1761316475613035000,1.284034912109375,-0.08012509159445762,-0.00630573081439361,-0.007411518365517259
1761316475623017000,1.294016845703125,-0.07249298928081989,-0.0052907907513435925,0.002827757072099484
1761316475633000000,1.304,-0.0768318952679634,-0.0018704426475334912,0.0020289713772246613
1761316475642982000,1.31398193359375,-0.08461012805402278,-0.004873579119425267,-0.000868225068738684
1761316475652964900,1.32396484375,-0.07952128048241137,-0.00030700185624882575,0.0035395631698425857
1761316475662947800,1.33394775390625,-0.07188917816877365,0.006082717447169125,0.0007056823176331818
1761316475672929800,1.3439296875,-0.07742284689843654,-0.000812138366792351,-0.011009456092515028
1761316475682912800,1.353912841796875,-0.07472644742131233,-0.010684530420508235,-0.007122485990799032
1761316475692895000,1.36389501953125,-0.07472410933375358,-0.012355906831985338,-0.005894387234258465
1761316475702877700,1.373877685546875,-0.07651976057887076,-0.004537168505601584,-0.005875061479280703
1761316475712861000,1.38386083984375,-0.07577157256007194,-0.0051095980986952776,-0.004420821250090376
1761316475722843000,1.3938427734375,-0.06454699871242046,-0.006420032243290916,-0.008087344401003792
1761316475732825900,1.403825927734375,-0.06080605861842632,-0.00027527327742427586,-0.006135146320727654
1761316475742807800,1.413807861328125,-0.07023147408962249,0.0020667415377683936,0.0010852836192119866
1761316475752791000,1.423791015625,-0.08459726857244967,0.0015012440089602023,0.002706697108852677
1761316475762772700,1.433772705078125,-0.08729249900579451,0.0029392774554435164,0.0061353837827453385
1761316475772756000,1.443755859375,-0.07951192813217639,-0.002537820515083149,-0.0006946220675017684
1761316475782739000,1.453739013671875,-0.07696867339015007,-0.004469446164788678,-0.0009687080348376184
1761316475792721000,1.463720947265625,-0.08220598952174187,-0.0055104157182388,-0.0044533261470496655
1761316475802704000,1.473703857421875,-0.07457680981755256,-0.007516019919607788,-0.0033681018933421
1761316475812685800,1.483685791015625,-0.07577624873518943,-0.004112111493945122,-0.01088068774684798
1761316475822668800,1.493668701171875,-0.06769640265405177,-0.007225265945261344,-0.005522928139939904
1761316475832651800,1.50365185546875,-0.07083996137678623,-0.0052084736295975745,-0.01037623622289393
1761316475842634000,1.513634033203125,-0.08146481576561927,-0.010409202344156801,-0.0038600729616358872
1761316475852616700,1.52361669921875,-0.08071545870304107,-0.0056838817221578205,-0.006962651220010593
1761316475862599000,1.533598876953125,-0.07577391064763069,0.007248984747566282,-0.003350602769269608
1761316475872582000,1.543581787109375,-0.07756780832707881,0.0023222963345702736,0.006470817149034701
1761316475882563800,1.553563720703125,-0.07577098803818226,-0.004675517530366778,0.009141840156307443
1761316475892546600,1.563546630859375,-0.06768997291326523,-0.005149665247602388,-0.00016469360899645834
1761316475902529800,1.57352978515625,-0.07906359984278678,0.0003374883260577917,-0.003241128212539479
1761316475912511700,1.58351171875,-0.07517068405747414,-0.0037073209521826353,0.0037488950715865938
1761316475922494700,1.59349462890625,-0.07382394562363624,-0.004727402981230989,0.0004011738125700503
1761316475932476700,1.6034765625,-0.07083119354844093,0.00038903585020452736,-0.003290954137057997
1761316475942460000,1.6134599609375,-0.07532090618312358,-0.011541932701133191,-0.001310438711172901
1761316475952442600,1.623442626953125,-0.07367430801987647,-0.010929664287995546,-0.0074746284632943565
1761316475962424800,1.6334248046875,-0.07367547706365585,-0.007381844746461138,0.0009884676146553828
1761316475972407800,1.64340771484375,-0.06529694029688835,-0.00028525581532157956,0.0015440328379161656
1761316475982389800,1.6533896484375,-0.06754091983139515,-0.0024004761373158543,-0.0015634133918210863
1761316475992372700,1.663372802734375,-0.07966156573593616,0.0024230715616140514,0.0012551648599794134
1761316476002355700,1.673355712890625,-0.07936112148463725,0.00415784119865857,0.00011249306430108844
1761316476012337700,1.683337646484375,-0.073973583227396,-0.00038552871886640786,-0.011299219119595362
1761316476022320600,1.693320556640625,-0.07861059537827968,-0.005623977361619472,-0.004125710761034861
1761316476032302600,1.703302490234375,-0.06963350819647311,0.002408723375853151,0.0035682275753235442
1761316476042285600,1.71328564453125,-0.07786416092514992,-0.0038656898516695945,-0.005448556862631813
1761316476052267800,1.723267822265625,-0.08774082729518413,-0.005342393074417487,-0.0017705579030560328
1761316476062250500,1.73325048828125,-0.07981061881780624,-0.008152719521103427,0.0006576327916700392
1761316476072233700,1.743233642578125,-0.07935995244085789,-0.0060157348918728525,-0.0012547127688303588
1761316476082215700,1.753215576171875,-0.08160451649725436,-0.007390082851843908,-0.0006792829344747588
1761316476092198700,1.76319873046875,-0.07696633530259132,-0.007500694486312568,0.0015462932936614378
1761316476102180600,1.7731806640625,-0.07726619503200054,-0.004045065006567165,0.0001220600436674431
1761316476112163800,1.783163818359375,-0.08190437622666358,-0.006196827079821378,0.002730100817326456
1761316476122146600,1.793146484375,-0.07816285161077975,0.0010820230830460786,0.0031485591248376294
1761316476132128800,1.803128662109375,-0.08220248239040374,-0.0016197923547122627,-0.0002888086124323308
1761316476142111700,1.81311181640625,-0.0796598121702671,-0.0021915552275255322,-0.007577997506223619
1761316476152093700,1.82309375,-0.07607084776759147,-0.0033840894803404808,-0.0017531135779106988
1761316476162076700,1.83307666015625,-0.0766664755731821,-0.014608508064365014,-0.0055352167993551115
1761316476172059600,1.8430595703125,-0.06963175463080405,-0.010663222770998253,-0.006488973860233091
1761316476182041600,1.85304150390625,-0.06574000788927079,-0.021480631456710395,0.00020970636107958853
1761316476192024800,1.86302490234375,-0.06888181304633617,-0.007933761274488643,-0.0020342823065817354
1761316476202006800,1.8730068359375,-0.08339782965481281,-0.003161569303460419,0.005403146818326786
1761316476211989800,1.88298974609375,-0.06828443167507649,-0.005981723024416715,0.0018670359808951615
1761316476221971700,1.8929716796875,-0.0738210230141878,0.004950982604036107,0.005532572751119733
1761316476231954700,1.90295458984375,-0.07381985397040844,-0.0005453132573049515,0.005104798625991679
1761316476241937700,1.912937744140625,-0.07262392218410968,0.0014757259752135722,-0.01057115144021809
1761316476251920000,1.922919921875,-0.07411912917792797,-0.009748299883166327,-0.0022372483996208757
1761316476261902800,1.93290283203125,-0.06678571754992008,-0.00907788980831392,-0.001748743363469839
1761316476271884800,1.942884765625,-0.07546411404609679,-0.009246040316298604,-0.0001829644846264273
1761316476281867800,1.95286767578125,-0.07830664399564266,-0.0029972638535313307,0.002675096394191496
1761316476291850800,1.962850830078125,-0.07232172436714172,-0.005035263354005292,-0.003249224754027091
1761316476301832700,1.972832763671875,-0.07800619974434375,-0.006001039646239951,-0.0027301145170582457
1761316476311815700,1.982815673828125,-0.08728080856800079,-0.007061974275484681,-0.009144109745207242
1761316476321797600,1.992797607421875,-0.08099602921009064,-0.007491287337150424,-0.004685824295249767
1761316476331780600,2.002780517578125,-0.07157295182645321,-0.011238556707231328,-0.004399586665816605
1761316476341762800,2.0127626953125,-0.07845569707751274,-0.004853522712085396,-0.005857617154135368
1761316476351745500,2.02274560546875,-0.07800619974434375,-0.004840297904331237,0.0033847014016937464
1761316476361728800,2.032728759765625,-0.07516250075101852,-0.005777377825044095,0.004034402048657648
1761316476371710700,2.042710693359375,-0.07172025134265422,0.0008010963829699903,0.003915378778870217
1761316476381693700,2.052693603515625,-0.07621230206489563,-0.004696258924296126,-0.000013658632594160735
1761316476391675600,2.062675537109375,-0.07456862651109696,-0.005332501868065447,-0.0015169347684364765
1761316476401659000,2.072658935546875,-0.0772632724225521,-0.005419175504520535,-0.007204638715763576
1761316476411641900,2.082641845703125,-0.07307283499538898,-0.0030490488396957517,-0.004444124493864365
1761316476421623800,2.092623779296875,-0.08115501916408538,-0.004262013959186152,-0.0013571867626160383
1761316476431606800,2.102606689453125,-0.07756605476140975,-0.009279011004138738,-0.01129774868171662
1761316476441588700,2.112588623046875,-0.06559329289495945,0.00046424737772904334,-0.0007646779292961582
1761316476451571700,2.12257177734375,-0.07382453014552592,-0.0031918365775607522,-0.009091338378353976
1761316476461554000,2.132553955078125,-0.07487316241562365,-0.0068799322394654154,-0.007883515224861913
1761316476471536600,2.14253662109375,-0.06993570601344108,-0.011375298296799882,-0.0000522005446953699
1761316476481519600,2.15251953125,-0.07083294711410999,-0.0035964809888508168,0.004893051004875451
1761316476491501800,2.162501708984375,-0.07472469385564327,0.0006220774210989474,0.000021924137440510093
1761316476501484500,2.172484619140625,-0.07218085459172725,-0.0026733565282542255,-0.003916630021040327
1761316476511466800,2.182466796875,-0.06739303579330444,-0.0030669498225674033,0.006196448053908534
1761316476521449700,2.19244970703125,-0.07696867339015007,-0.007742823545960709,-0.006246913299243897
1761316476531432700,2.2024326171875,-0.0784656339496374,-0.012470409190282224,-0.006957417922466993
1761316476541414700,2.21241455078125,-0.07053367190659046,0.0001757492925506085,-0.0012824821251677348
1761316476551398000,2.22239794921875,-0.0786146870315075,0.00005815992802381515,-0.0011931507407454774
1761316476561379600,2.232379638671875,-0.07951309717595577,-0.0027551621933467685,0.007903891292610205
1761316476571362800,2.24236279296875,-0.07128302896916866,0.0020692257557995614,-0.0018222424245206638
1761316476581345800,2.252345703125,-0.07532324427068234,-0.009776484798034652,0.0020102164444047955
1761316476591327700,2.26232763671875,-0.07577215708196162,-0.012783511993754654,0.004541876646759919
1761316476601310700,2.272310791015625,-0.07442541864812374,-0.008425736909359693,-0.001737870343006216
1761316476611293000,2.28229296875,-0.07367664610743523,-0.01060618622098118,-0.0016383463581325485
1761316476621275600,2.292275634765625,-0.073973583227396,-0.00701512119276449,-0.0040378954802639784
1761316476631257900,2.3022578125,-0.06933657107651234,-0.00558291469886899,-0.006503874601842835
1761316476641240800,2.31224072265625,-0.06290215411484242,-0.00005169365461915731,-0.006886836904287338
1761316476651223600,2.3222236328125,-0.08340309035181999,-0.006317192923324182,-0.0063574153358582405
1761316476661205800,2.332205810546875,-0.07457680981755256,-0.008450496891280636,-0.0056580896937754
1761316476671188700,2.342188720703125,-0.06380348686873913,-0.007393562583718449,0.0010071723151253535
1761316476681170700,2.352170654296875,-0.07592530181705952,-0.002113466756325215,0.004486360766971484
1761316476691153700,2.362153564453125,-0.07712649430036544,-0.00039102687789127226,-0.0034343537962762635
1761316476701137000,2.372136962890625,-0.07473287716209888,-0.009486351878196,0.004359409919055178
1761316476711118600,2.38211865234375,-0.07847381725609302,-0.005043108733743429,-0.007251879957551137
1761316476721101800,2.392101806640625,-0.06590484306216239,-0.00326486528115347,-0.0024450504979817195
1761316476731083500,2.40208349609375,-0.08131693172752857,-0.005384341653157025,0.0044360233857994895
1761316476741066800,2.412066650390625,-0.0747322926402092,-0.00869740259074606,-0.011381075017037801
1761316476751048700,2.422048583984375,-0.07772562923729419,0.0033076084443368014,-0.006440878668497316
1761316476761031700,2.43203173828125,-0.06889759513735771,0.0019852372667752203,-0.0030383036833954973
1761316476771014700,2.4420146484375,-0.07562894921898841,-0.011777723351540044,-0.0072400296895531934
1761316476780996900,2.451996826171875,-0.07069090829491614,0.0027394257680978624,-0.00014249547692015766
1761316476790979600,2.4619794921875,-0.0747322926402092,-0.0019096512799151241,-0.0022574144048150627
1761316476800961800,2.4719619140625,-0.08325988248884678,-0.006951380907325074,-0.003585256341937929
1761316476810944800,2.48194482421875,-0.0714379272699356,-0.004099306811299175,-0.01256130234412849
1761316476820927700,2.491927734375,-0.07068973925113678,-0.007914654715219512,-0.005094925685948692
1761316476830909700,2.50190966796875,-0.07906886053979396,-0.007628896576398983,0.0023503259858116505
1761316476840892700,2.511892578125,-0.06844283710718155,-0.014713557607727124,0.005271314299316145
1761316476850874600,2.52187451171875,-0.08295885371565818,-0.0069576097187120465,0.0007161900119157507
1761316476860857600,2.531857666015625,-0.07847147916853428,-0.0032236930205486714,-0.0015121170294238255
1761316476870839800,2.54183984375,-0.07967091808617115,0.0006592767594847828,0.0023669620267814024
1761316476880822800,2.55182275390625,-0.0715904874831438,-0.0025906558140181,0.0003854967528255656
1761316476890805200,2.56180517578125,-0.07802256635725498,0.0025369345990940927,0.002585463615669869
1761316476900787500,2.571787353515625,-0.07847323273420334,0.003995207116007805,0.004479067943082191
1761316476910770400,2.5817705078125,-0.08071721226871013,-0.0024591749214567245,-0.00891168466224335
1761316476920752400,2.59175244140625,-0.06904547917544841,-0.003403643564181402,-0.000015814057062380016
1761316476930735400,2.6017353515625,-0.07488251476585865,-0.0074753773819655174,-0.003248480401933193
1761316476940718300,2.61171826171875,-0.0666542001247406,-0.012301180970063432,-0.0021030503935879096
1761316476950700300,2.6217001953125,-0.07563304087221621,-0.005885340844700113,-0.005345932171796448
1761316476960683300,2.631683349609375,-0.06665536916851997,-0.006740368505148217,0.0019119345685467122
1761316476970665500,2.64166552734375,-0.07353986798524856,0.00023101401058956978,-0.0014918779589934274
1761316476980648200,2.651648193359375,-0.08296879058778285,-0.0029865689295809714,0.0014118989248061552
1761316476990630400,2.66163037109375,-0.08102700887024403,-0.0032048147901427,-0.005212419152352959
1761316477000613400,2.67161328125,-0.07743687542378902,-0.003973004417354241,0.0001051180420210585
1761316477010596400,2.681596435546875,-0.0747451521217823,0.0006223240162711591,-0.003165660956688225
1761316477020578300,2.691578369140625,-0.07489537424743176,-0.004409112545987591,0.0024973789068404584
1761316477030561500,2.7015615234375,-0.07444996856749057,-0.005968945741234347,-0.0009182656223885715
1761316477040543200,2.711543212890625,-0.07055880634784698,-0.006636533671338111,0.004863710745959543
1761316477050526500,2.7215263671875,-0.07938742496967315,-0.013560140655748546,-0.0033193810805212704
1761316477060509400,2.731509521484375,-0.07564531583189964,-0.007216909108869731,-0.00290909237973392
1761316477070491400,2.741491455078125,-0.07713876926004887,-0.006485389097081497,-0.0033334598382236433
1761316477080474400,2.751474365234375,-0.06950549790263176,-0.01270999923297204,-0.00996327607440762
1761316477090456300,2.761456298828125,-0.07324702251851559,-0.0031059118597768247,-0.004986149815539829
1761316477100439300,2.771439208984375,-0.07983107708394527,-0.0008234178126323968,-0.004644556136522442
1761316477110422300,2.78142236328125,-0.08312193532288074,0.001025351859210059,-0.005055009234091266
1761316477120404200,2.791404296875,-0.08431845163106917,0.0022433493468444793,0.002105580277391709
1761316477130387200,2.80138720703125,-0.08132511503398418,-0.000777249716501683,0.0068245624901494
1761316477140369400,2.811369384765625,-0.08012742968201637,-0.0039022681355476378,0.007086871254723519
1761316477150352100,2.82135205078125,-0.07384498841166495,-0.00359832588606514,0.0009081141211325302
1761316477160334300,2.831334228515625,-0.07279694066345692,0.004501503537176176,-0.0027639071888057513
1761316477170317300,2.8413173828125,-0.07085340538024902,-0.0007970229960512369,-0.0005450986281735822
1761316477180300300,2.85130029296875,-0.07594166842997074,-0.005805252212658524,-0.005583572285994887
1761316477190282200,2.8612822265625,-0.07863280721008777,-0.0071337243374437085,-0.005767025394388474
1761316477200265500,2.871265380859375,-0.07040156995952129,-0.0033034437258727847,0.004464226566976867
1761316477210247200,2.8812470703125,-0.07025076331198216,0.0003126735452096909,0.004890155794890597
1761316477220230400,2.89123046875,-0.07503916663229465,-0.006568254208099097,0.0035836671730503436
1761316477230213400,2.90121337890625,-0.07623626746237278,0.0034518118211533874,0.0009265128609258681
1761316477240195300,2.9111953125,-0.07623685198426246,-0.004754875510046258,0.0029882813960546628
1761316477250178300,2.92117822265625,-0.0792284350156784,0.005381848301971331,0.0027882927113911135
1761316477260160500,2.931160400390625,-0.07428864052593707,-0.0008789199926890432,-0.0010675972654717043
1761316477270143200,2.941143310546875,-0.0802741446763277,-0.00398788232607767,-0.002814833658444695
1761316477280125400,2.95112548828125,-0.08042319775819778,-0.0014950334638822822,-0.0016597042399924247
1761316477290108400,2.9611083984375,-0.0709983668088913,-0.003310622385330498,-0.00036828075654339045
1761316477300091400,2.97109130859375,-0.08147183002829551,-0.0040171084205619986,-0.007541962645039893
1761316477310073300,2.9810732421875,-0.08551204532980919,-0.011216600603749976,-0.005511182903219014
1761316477320056300,2.991056396484375,-0.0825181242108345,-0.004260771850170568,0.006307899938593618
1761316477330038300,3.001038330078125,-0.07144552605450152,-0.0011434161477722226,0.00019337628078646956
1761316477340021200,3.011021240234375,-0.07294190209209919,0.0019702040944248435,0.0019219490724848582
1761316477350004500,3.02100439453125,-0.06815349877178668,0.000025910759391263126,0.0011653813844081013
1761316477359986400,3.030986328125,-0.07578443204164505,-0.000021636443072929977,0.0018836583221331239
1761316477369969400,3.040969482421875,-0.07758066780865192,-0.006122656731912866,-0.00287755103057716
1761316477379951400,3.050951416015625,-0.0853635767698288,-0.005291841064114123,-0.00008199746133759617
1761316477389934300,3.060934326171875,-0.07743512185811996,-0.0022628668980672955,0.0016698237752076238
1761316477399916300,3.070916259765625,-0.07070084516704082,-0.00013598353774286806,-0.0049872412275057286
1761316477409899300,3.080899169921875,-0.07159808626770973,-0.002697102730022743,0.0036232000324176623
1761316477419882200,3.09088232421875,-0.08207271853089332,-0.0007007778136525303,0.002063202440389432
1761316477429864400,3.100864501953125,-0.06905600056946277,0.0091557225511875,0.006929936260497197
1761316477439847200,3.11084716796875,-0.07728723782002925,0.005658692481974139,0.001614732587104663
1761316477449829400,3.120829345703125,-0.08402034546732902,0.004774420460732653,-0.002434716333635151
1761316477459812400,3.130812255859375,-0.07309855395853519,0.003410118970740586,-0.009119409128790721
1761316477469795300,3.14079541015625,-0.07653904980123043,-0.0005322163137141615,-0.008120666715293191
1761316477479777300,3.15077734375,-0.0774374599456787,-0.006323604397801682,-0.0035877222936600444
1761316477489760500,3.160760498046875,-0.0702531013995409,-0.008025960469432174,0.011633876167749985
1761316477499742200,3.1707421875,-0.0741436790972948,0.0011730715005192904,0.007760423134732991
1761316477509725400,3.180725341796875,-0.06561492020487784,0.00030554968467913566,-0.001380987763311714
1761316477519707400,3.190707275390625,-0.07279635614156722,0.0012957662984263152,0.003955231298645958
1761316477529690400,3.2006904296875,-0.07653612719178199,-0.0068258000325877215,-0.003329642179631628
1761316477539673300,3.21067333984375,-0.07833177843689917,-0.0062946796974167225,0.004785467011132277
1761316477549655600,3.220655517578125,-0.0822217716127634,-0.006445897336909547,0.01112291727119591
1761316477559638300,3.23063818359375,-0.07054886947572231,-0.005830076126661151,0.007895219362387433
1761316477569620500,3.240620361328125,-0.08251929325461387,-0.010788694047881289,0.0031034778740955515
1761316477579603500,3.250603515625,-0.06800386116802692,-0.005899314571125433,-0.0023463302307063713
1761316477589586200,3.260586181640625,-0.07548749492168426,0.005095962298987433,-0.01622627742534969
1761316477599568400,3.270568359375,-0.08087503317892551,0.0040896895995829255,-0.0051237179555930195
1761316477609551400,3.28055126953125,-0.06606091040670871,-0.0023196111871395257,-0.0013475923837861046
1761316477619533300,3.290533203125,-0.08536591485738754,-0.005822285545850172,-0.0044697658251971
1761316477629516300,3.300516357421875,-0.0632207185447216,-0.013255869612703098,-0.0007955297252861782
1761316477639498200,3.310498291015625,-0.0774374599456787,0.0017817231844644993,-0.000200194180640392
1761316477649481200,3.320481201171875,-0.0774374599456787,-0.0011846340741496532,0.006551298506720923
1761316477659464400,3.33046435546875,-0.07698854713439941,-0.005376267944555729,0.0028269898871192706
1761316477669446100,3.340446044921875,-0.07100128941833972,-0.004301523985667154,0.006716521838679909
1761316477679429400,3.350429443359375,-0.07040273900330066,-0.0030874080887064335,0.006046216795104555
1761316477689411300,3.360411376953125,-0.08521861534118652,-0.004579939068248495,-0.007660058899642899
1761316477699394600,3.37039453125,-0.08402326807677746,-0.00222013286803849,0.006796678969380445
1761316477709377300,3.380377197265625,-0.07369593532979488,-0.0009563600099179893,0.0007213502442231401
1761316477719359500,3.390359375,-0.07414426361918448,0.001456747280107811,0.003111273021483794
1761316477729342500,3.400342529296875,-0.06995441071391105,0.00028993199043907223,0.001449344858364202
1761316477739324400,3.410324462890625,-0.072945993745327,0.0009949201883282513,0.00019648611990269273
1761316477749307400,3.420307373046875,-0.07055003851950169,-0.007619124101055786,-0.0012637637249659746
1761316477759289300,3.430289306640625,-0.07728431521058082,-0.0036968360907863825,0.00548268289451953
1761316477769272300,3.440272216796875,-0.07728373068869114,-0.006057975731557235,-0.0028029651241376994
1761316477779255300,3.45025537109375,-0.08551496793925761,-0.006591918211476877,-0.007973632060573436
1761316477789237200,3.4602373046875,-0.07548807944357394,0.002453658496122807,-0.00022315493111964315
1761316477799220200,3.47022021484375,-0.06995148810446263,-0.004301012529013678,-0.001789815159374848
1761316477809202400,3.480202392578125,-0.07997720755636692,0.006170943719893693,0.0052515821189619595
1761316477819185200,3.49018505859375,-0.0687543872743845,0.0025815500589553265,0.003967994882096536
1761316477829168400,3.50016845703125,-0.07009937214255332,-0.0019935667037032545,0.008248973836656659
1761316477839150300,3.510150390625,-0.07114625084698199,-0.003371421795012429,0.0009760510910768062
1761316477849133300,3.52013330078125,-0.06246610078513622,0.0019708799478597937,-0.00028196787969209255
1761316477859115300,3.530115234375,-0.0694990681618452,0.001415027030231431,0.0017466062053106725
1761316477869098500,3.540098388671875,-0.07653320458233356,-0.004221636283025145,-0.0009694021545816212
1761316477879080200,3.550080078125,-0.07129471940696239,-0.010741977962478994,0.0014410610872087999
1761316477889063400,3.5600634765625,-0.08057225084006786,-0.004780293079093098,0.008694795075128785
1761316477899046400,3.57004638671875,-0.07817571109235286,-0.0014785572531167417,0.008999257914419285
1761316477909028400,3.5800283203125,-0.07922258979678154,0.003246854700427502,-0.0007469915755558759
1761316477919011300,3.59001123046875,-0.07727846999168396,0.0036249124988913532,0.001255932044959627
1761316477928993300,3.5999931640625,-0.07712766334414482,-0.0009772018685471266,0.0004898613095982
1761316477938976300,3.609976318359375,-0.06829846020042896,0.002746942354273051,-0.0001189547711284831
1761316477948959200,3.619959228515625,-0.07383388249576091,0.0010470248349010944,0.0024143767985049633
1761316477958941200,3.629941162109375,-0.07293547235131263,-0.0006025416035670786,-0.0005086938742315396
1761316477968924200,3.639924072265625,-0.07428396435081959,-0.003855478984909132,0.0044976858785841616
1761316477978906400,3.64990625,-0.07533201209902762,-0.006339139893651008,0.0017661694223061204
1761316477988889300,3.659889404296875,-0.08146598480939865,0.0019787435939069837,-0.0007844055430730804
1761316477998871300,3.669871337890625,-0.06710019032657145,-0.0005888236054684967,0.004198150376160629
1761316478008854300,3.679854248046875,-0.06410334659814834,0.0035142734649591147,0.004193040376203134
1761316478018837200,3.689837158203125,-0.07427811913192271,-0.0033686361828818914,0.0024629423476988446
1761316478028819200,3.699819091796875,-0.08744798182845115,-0.007737151856999844,-0.0000047766398172825575
1761316478038802400,3.709802490234375,-0.08296002275943756,-0.007784881722554564,0.0043976276041707025
1761316478048784100,3.7197841796875,-0.07981587951481342,-0.010143829406239091,0.007149867188069038
1761316478058767400,3.729767333984375,-0.07203413959741592,-0.014597785740951075,0.007212337965029292
1761316478068750300,3.739750244140625,-0.08669862476587295,-0.0004956197635270655,-0.003610381650039926
1761316478078732300,3.749732177734375,-0.07667348983585834,-0.0001707077912520617,0.008271989386063069
1761316478088715300,3.75971533203125,-0.06769464908838271,-0.0012384648869279771,0.007028967055026441
1761316478098697200,3.769697265625,-0.06829436854720115,-0.0047879557957407086,-0.002309569283737801
1761316478108680200,3.77968017578125,-0.07742284689843654,-0.0059933860627468675,-0.0015569288521073757
1761316478118662400,3.789662353515625,-0.06904372560977935,0.0005812704866752028,-0.00351557493947912
1761316478128645400,3.799645263671875,-0.07891922293603419,-0.0037937114608474075,0.008805246879393235
1761316478138628400,3.80962841796875,-0.08011807733178138,-0.007141478385636582,0.002962790761771612
1761316478148610300,3.8196103515625,-0.0780213973134756,-0.009386499099759384,0.012448918877681717
1761316478158593500,3.829593505859375,-0.08191431309878826,-0.0011939042259939015,0.006884297887329012
1761316478168575200,3.8395751953125,-0.08475684304833411,0.001000610143598169,0.0056258268254110585
1761316478178558500,3.849558349609375,-0.08535714702904224,0.005148660600604489,-0.004017455480434
1761316478188540200,3.8595400390625,-0.07323591660261154,-0.003735104008251801,0.00000773578188382089
1761316478198523400,3.8695234375,-0.06560322976708412,0.0010013773285783827,0.01066002616691403
1761316478208506400,3.87950634765625,-0.06575286737084389,0.0075601239228155455,0.00656475164333824
1761316478218488300,3.88948828125,-0.07024258000552654,-0.0003281633752863854,-0.004305948999035172
1761316478228471300,3.89947119140625,-0.08236205686628818,-0.0009555197597015648,0.0047490850900765505
1761316478238453500,3.90945361328125,-0.06231120248436928,-0.008985170023562385,0.004189743307419121
1761316478248436200,3.919436279296875,-0.08640285668969154,-0.004810934812529012,-0.00046602834286168214
1761316478258419200,3.929419189453125,-0.08475684304833411,-0.0010885898211505263,0.0007222315936349331
1761316478268401400,3.9394013671875,-0.07278583474755286,-0.002826108537707478,0.007889154947781935
1761316478278384000,3.949384033203125,-0.07532850496768952,0.0019394618962891399,-0.0050841211641440166
1761316478288366300,3.959366455078125,-0.08789864820539951,0.0042187136735767124,-0.008152929583657532
1761316478298349300,3.969349365234375,-0.07517945188581943,-0.005924549477081746,-0.0022973080237861723
1761316478308331300,3.979331298828125,-0.07952011143863201,0.005117196883261204,0.003688442721776664
1761316478318314200,3.989314208984375,-0.0774246004641056,-0.0009065843177493661,-0.0017583560086088254
1761316478328297500,3.99929736328125,-0.07817278848290443,0.0030669315562583503,-0.003326847434346564
1761316478338279200,4.009279052734375,-0.07383212893009185,0.007648194931913167,-0.00012235687118954957
1761316478348262400,4.019262451171875,-0.0720353086411953,0.0023243878269568084,-0.004291934173414483
1761316478358244400,4.029244384765625,-0.07173311082422733,0.00632027992955409,0.006231788795348256
1761316478368227300,4.039227294921875,-0.07322948686182498,0.00782661110558547,0.0042795541824540125
1761316478378210300,4.049210205078125,-0.0786187786847353,-0.0017254446862731128,0.004165549581078812
1761316478388192500,4.059192626953125,-0.07457739433944224,-0.007218754006084054,-0.0039017110131215303
1761316478398175200,4.06917529296875,-0.06799217073023318,-0.012493598269624635,0.005993061835761182
1761316478408157400,4.079157470703125,-0.08055939135849476,-0.013536549717606976,0.00021382084719371049
1761316478418140400,4.089140380859375,-0.07592062564194202,-0.006069784900359809,0.00986629110649228
1761316478428122400,4.099122314453125,-0.0863958424270153,0.0011526589001528919,-0.0032639793651644136
1761316478438105300,4.109105224609375,-0.07711772647202014,-0.008095281112287193,0.0009185259172925725
1761316478448088300,4.11908837890625,-0.0747235248118639,-0.004515732991928235,-0.001428379702148959
1761316478458070300,4.1290703125,-0.08026128519475459,-0.004343700893269851,-0.0008344369635684415
1761316478468053200,4.13905322265625,-0.07472586289942264,-0.010106228209054097,-0.004003139260713942
1761316478478035200,4.14903515625,-0.08205693643987179,-0.004744692042749375,-0.0031457552463980388
1761316478488018200,4.15901806640625,-0.07397709035873412,-0.00485118462452665,-0.0019435489829396828
1761316478498001400,4.16900146484375,-0.07741700167953967,-0.0030087259624619034,0.007075381746329367
1761316478507983000,4.178983154296875,-0.076966919824481,-0.0020392233431804924,-0.003871270209085196
1761316478517966300,4.18896630859375,-0.06888415113389491,0.005737575537618249,0.005128298232587985
1761316478527948300,4.1989482421875,-0.07502046193182468,-0.0007574673037976026,0.00911592939691618
1761316478537931300,4.20893115234375,-0.07801321400702,0.0023927951543591913,-0.0011365936813410372
1761316478547913200,4.218913330078125,-0.0700830055296421,-0.0074495396878104655,0.006072004256909713
1761316478557896400,4.228896484375,-0.0765144998818636,-0.013446551612904294,0.010525887526385485
1761316478567879200,4.238879150390625,-0.07591536494493484,-0.010315477912407368,0.006893170746951363
1761316478577861400,4.248861328125,-0.06708616180121899,-0.006160248795943334,0.010132819388457573
1761316478587844400,4.25884423828125,-0.06648644234240055,-0.009832443635817617,0.0009479666409082711
1761316478597826300,4.268826416015625,-0.07695990556180476,-0.001461560452543199,-0.00004037082629511133
1761316478607809300,4.278809326171875,-0.07635901705920696,0.0018470526387915013,-0.00233031296095578
1761316478617791500,4.28879150390625,-0.07216741058826447,0.005942971049761399,-0.0004493854520260356
1761316478627774200,4.298774169921875,-0.07590776616036891,0.009613576720748095,0.0054507100038114
1761316478637757200,4.308757080078125,-0.0765051475316286,-0.00210671735513024,-0.0018043277419172226
1761316478647739400,4.318739501953125,-0.07889876466989516,-0.005444775736657902,0.0025878884681966156
1761316478657722000,4.32872216796875,-0.07096797167062759,0.002631828074622899,0.008976315430249087
1761316478667704300,4.338704345703125,-0.07830255234241486,-0.0033535664779134095,0.007949520532623865
1761316478677687300,4.348687255859375,-0.07486205649971961,-0.004328320661047473,0.005791867574700154
1761316478687670300,4.358670166015625,-0.07231938627958297,-0.005768472999380901,0.0058874528866843315
1761316478697652200,4.36865234375,-0.07725742720365524,-0.004583656262140721,0.003082519567746203
1761316478707635500,4.378635498046875,-0.07052198146879672,-0.0003746054660528898,-0.004195307681814302
1761316478717617200,4.3886171875,-0.07186696633696556,-0.0038003329978790134,0.009610249969211872
1761316478727600400,4.398600341796875,-0.07844985185861587,-0.010901050114864483,0.00466774293257622
1761316478737582000,4.40858203125,-0.07410919230580329,-0.0024592753861565142,0.007489485822420101
1761316478747565300,4.4185654296875,-0.08129121276438235,-0.0068838960285298526,0.007944846640795002
1761316478757548300,4.42854833984375,-0.07515548648834228,-0.006485590026481076,-0.003213568918756209
1761316478767530200,4.4385302734375,-0.07036708316802978,-0.006807067932654172,-0.002206771062966436
1761316478777513200,4.44851318359375,-0.06198796187937259,-0.0051205761504359544,0.0033966886670095844
1761316478787495400,4.458495361328125,-0.07381167066395282,-0.006473680392978713,0.009735152707225643
1761316478797478100,4.46847802734375,-0.07411211491525173,-0.00024428448411636055,-0.0038736904950346794
1761316478807460400,4.47846044921875,-0.07560907547473907,-0.0029095947032328692,0.004373927068174816
1761316478817443300,4.488443359375,-0.08129471989572047,-0.008032052283501252,0.009273156652087345
1761316478827426300,4.49842626953125,-0.08129413537383079,0.00014806670118123292,0.006272582030040211
1761316478837408300,4.508408203125,-0.08054419378936291,0.0027509700754191724,0.00528234714998398
1761316478847391500,4.5183916015625,-0.08129238180816173,-0.005637713626027107,0.0031595006439602003
1761316478857373200,4.528373291015625,-0.07006897700428963,-0.0029745222987607118,-0.007775554488494526
1761316478867356400,4.5383564453125,-0.08069266234934329,0.00034021913926117123,0.0017539309952408074
1761316478877339400,4.54833935546875,-0.07051672077178954,-0.001224354163184762,0.00610095407346962
1761316478887321300,4.5583212890625,-0.079646952688694,0.006885110738081857,0.009444611078721936
1761316478897304300,4.56830419921875,-0.0790495713174343,-0.009738783136149868,-0.002343524068978149
1761316478907286500,4.57828662109375,-0.07605740376412869,-0.0031044322887435554,0.003977918054489419
1761316478917269200,4.588269287109375,-0.0711199473619461,-0.01145729575813748,-0.003140526515431702
1761316478927251500,4.59825146484375,-0.07845218994617462,-0.009359720690688118,0.0035843567262170833
1761316478937234400,4.608234375,-0.07485971841216087,0.001477452141419053,0.0012634212316712365
1761316478947217400,4.618217529296875,-0.07919920892119407,-0.003416192518500611,-0.0025738941921736114
1761316478957199400,4.628199462890625,-0.06693009445667267,0.0021637082393746823,-0.0008029869459569454
1761316478967182300,4.638182373046875,-0.08308861757516861,-0.0021705033063422886,0.0005370568856131285
1761316478977164300,4.648164306640625,-0.08024550310373306,0.0030659086429513987,-0.0001246561428415589
1761316478987147300,4.658147216796875,-0.07276186935007571,0.002027514639077708,-0.0014185295949922874
1761316478997130500,4.668130615234375,-0.0729103379100561,-0.007629060973180457,0.008115061241702642
1761316479007112200,4.6781123046875,-0.08443301792144775,0.004387722698086872,0.0009504280260531231
1761316479017095400,4.688095458984375,-0.08473287765085696,0.001412077021319419,-0.0043399243338732045
1761316479027077400,4.698077392578125,-0.07934709295928478,-0.00045608233758248385,-0.0016039143655681982
1761316479037060400,4.708060302734375,-0.07695581390857696,-0.00012071290337480604,0.0023997980005922726
1761316479047042300,4.718042236328125,-0.07112170092761516,-0.004067559966165572,-0.0003493614269420504
1761316479057025500,4.728025634765625,-0.0748626410216093,-0.004383338783914223,0.008647476201527752
1761316479067008300,4.73800830078125,-0.0862350989073515,-0.0028804873397573825,-0.0014179564895457587
1761316479076990500,4.747990478515625,-0.0808487296938896,-0.011364000584650783,0.01253752645960776
1761316479086973400,4.757973388671875,-0.0744143127322197,-0.005041820958955213,0.0004383343350491486
1761316479096955400,4.767955322265625,-0.07201952655017375,-0.0020951821809634566,0.006032300150895026
1761316479106938400,4.7779384765625,-0.07396481539905071,-0.006889311989163979,0.013381041778775396
1761316479116921300,4.78792138671875,-0.08099602921009064,-0.0014303159309085457,0.007069732890254817
1761316479126903300,4.7979033203125,-0.07231529462635516,-0.0045411962267477065,0.003347545445791911
1761316479136886300,4.80788623046875,-0.07545768430531025,-0.003330030338698998,-0.00389992776470026
1761316479146868200,4.8178681640625,-0.08159399510324,-0.0032315110008232294,0.017859995557426008
1761316479156851200,4.827851318359375,-0.0732160428583622,-0.0057525356447324155,0.003376319449127186
1761316479166833400,4.83783349609375,-0.0853366887629032,-0.004200593494996428,0.0035233107213629407
1761316479176816400,4.84781640625,-0.07411503752470017,-0.0016967117821332066,0.002343487536360044
1761316479186799400,4.85779931640625,-0.07381459327340126,-0.0021672153707128017,0.002928338219609577
1761316479196781300,4.86778125,-0.07546060691475867,0.0012714812405407428,0.004143865188944619
1761316479206764500,4.8777646484375,-0.07605915732979775,-0.0021917652900796383,0.003793540214200038
1761316479216746200,4.887746337890625,-0.0666319882929325,-0.0053639199196361,-0.00003369449033634737
1761316479226729500,4.8977294921875,-0.0720177729845047,-0.009635916416719556,0.002000498767988756
1761316479236711200,4.907711181640625,-0.07785130144357681,-0.0012139058344066143,0.006223717370035592
1761316479246694400,4.9176943359375,-0.08308861757516861,0.0029614344883244484,-0.004215318423381541
1761316479256677400,4.927677490234375,-0.0790460641860962,-0.0010835757193155585,0.0003903053586836904
1761316479266659300,4.937659423828125,-0.07321078216135501,0.005964972819015383,0.0037906107548857106
1761316479276642300,4.947642333984375,-0.0738081635326147,0.004259264879673719,0.000020880674535874276
1761316479286624500,4.95762451171875,-0.06692308019399643,-0.005981522095017135,0.002499732977419626
1761316479296607200,4.967607177734375,-0.06871814691722393,-0.009202118976181372,0.004273724946577568
1761316479306589400,4.97758935546875,-0.07964052294790744,-0.00310449622082524,0.007041790003981441
1761316479316572400,4.987572509765625,-0.07126081713736057,-0.008821933152712881,0.011450347710831556
1761316479326555100,4.99755517578125,-0.07919161013662815,-0.0059569173767231405,0.0011642671395558862
1761316479336537300,5.007537353515625,-0.07156067686676978,-0.006406378177274018,-0.000818570390867535
1761316479346520300,5.017520263671875,-0.07979074507355689,-0.00490141697442159,0.005002642009325791
1761316479356502300,5.027502197265625,-0.07889058136343956,-0.005486066728271543,0.008536076832481193
1761316479366485200,5.0374853515625,-0.07245499535799026,-0.0046604295590892434,0.0015476358673768118
1761316479376468500,5.047468505859375,-0.06257832898795604,-0.0025597583522554484,-0.0009109864982310682
1761316479386450200,5.0574501953125,-0.08038695740103721,0.00369020542060025,0.0011303306206245907
1761316479396433400,5.067433349609375,-0.07021101582348346,-0.0019989278654102237,0.004377749293344095
1761316479406415400,5.077415283203125,-0.06916238355338573,-0.0033894963078200816,0.004076126865111291
1761316479416398300,5.0873984375,-0.077690557923913,-0.0037523291376885025,0.005021949497994501
1761316479426380300,5.09738037109375,-0.07649345709383487,-0.0037371133022475987,0.010779143051535356
1761316479436363500,5.107363525390625,-0.07664251017570495,-0.009314776437263935,0.012426935374736785
1761316479446346200,5.11734619140625,-0.07948387108147144,-0.003136854987312108,0.0010027358853141777
1761316479456328400,5.127328369140625,-0.07649053448438643,-0.0037462555899284776,-0.0022798111830023117
1761316479466311400,5.1373115234375,-0.07394611069858074,-0.007801202669693157,0.003934606352436821
1761316479476293400,5.14729345703125,-0.08097966259717941,-0.005632388996938243,0.002714818766515236
1761316479486276400,5.1572763671875,-0.07289923199415206,-0.007848868603166193,0.003000517539831344
1761316479496258300,5.16725830078125,-0.07828384764194488,-0.002033204594347626,0.008472174433548934
1761316479506241300,5.1772412109375,-0.0752899265229702,-0.00407412670427002,0.007562007635936606
1761316479516224500,5.187224609375,-0.0808276869058609,0.003454597433283925,0.0056964306764770295
1761316479526206200,5.197206298828125,-0.08367021685540675,0.007748339971294626,0.008978991444525308
1761316479536189400,5.207189453125,-0.08112637759149074,0.004797079817112535,0.010637293745297939
1761316479546171400,5.21717138671875,-0.0763397278368473,-0.00404357630237937,0.010779515227582305
1761316479556154400,5.227154296875,-0.08472060269117355,-0.007452370965713635,0.012951778949459548
1761316479566137300,5.237137451171875,-0.08038052766025065,-0.00928574213902466,0.01326630880832672
1761316479576119300,5.247119384765625,-0.06960603566765784,-0.009010788522008806,0.014529679807648061
1761316479586102300,5.257102294921875,-0.07828501668572425,-0.008606856496771797,0.007887405948690139
1761316479596084500,5.26708447265625,-0.08067980286777018,-0.0073589296617545185,-0.0070572410181513985
1761316479606067500,5.2770673828125,-0.07843465428948401,-0.0047321887542027975,0.0033170292932307344
1761316479616049400,5.28704931640625,-0.07199848376214504,-0.004387521768687293,0.007634782894491218
1761316479626032400,5.297032470703125,-0.07678805612623692,-0.0025254085580818353,0.00047874626053962855
1761316479636015400,5.307015380859375,-0.07858429189324379,-0.005755823580361902,0.008322376999584958
1761316479645997300,5.316997314453125,-0.07349778240919112,-0.0038627398427575825,0.002453359385312069
1761316479655980300,5.326980224609375,-0.07873392949700356,0.0007035999584011733,0.005642529081751126
1761316479665962500,5.33696240234375,-0.0754424867361784,-0.009417579224612563,0.0028144089667592196
1761316479675945200,5.3469453125,-0.07170446925163268,-0.0015708660459145902,0.00009321069180732593
1761316479685927400,5.356927490234375,-0.07828910833895206,-0.0005165620868559926,0.008710447018698324
1761316479695910400,5.366910400390625,-0.08337444877922534,-0.006500805861921981,0.005479248828417621
1761316479705893400,5.376893310546875,-0.0787362675845623,-0.006746323321899399,-0.0014006331786978988
1761316479715875300,5.386875244140625,-0.08113046924471855,-0.009227700942009687,-0.0005696485475404188
1761316479725858600,5.396858642578125,-0.07125380287468433,-0.0015965028106700628,0.010460471307090482
1761316479735840300,5.40684033203125,-0.08022972101271152,-0.0005385638561099768,0.012065353787038475
1761316479745823500,5.416823486328125,-0.07514204248487949,-0.008745296853082254,0.006782305667444598
1761316479755806500,5.426806396484375,-0.07005611752271652,-0.007005266519030556,0.005646280524972826
1761316479765788400,5.436788330078125,-0.0736468354910612,-0.0006137753836344928,-0.001039236537378747
1761316479775771400,5.446771484375,-0.07514554961621761,-0.009719959704671054,0.0019191474773338996
1761316479785753300,5.45675341796875,-0.07454875276684761,-0.007500840616784989,-0.0060545781980734315
1761316479795736300,5.466736328125,-0.06781564511954784,-0.0021952815545722842,-0.009889213041064795
1761316479805718500,5.476718505859375,-0.07410334708690643,-0.005742005117563531,0.006987758261803537
1761316479815701200,5.486701171875,-0.07395312496125697,0.0008171798680908978,-0.00035456732502207156
1761316479825684200,5.496684326171875,-0.07410159352123737,-0.00693937080912292,0.0029896011368837207
1761316479835666400,5.50666650390625,-0.07066051315665245,-0.0025505703988019375,0.013062639462389052
1761316479845649200,5.516649169921875,-0.07440262229442596,-0.004120093871001154,0.01088577948049642
1761316479855631400,5.52663134765625,-0.07126023261547088,0.003797483453666791,0.013184025935910176
1761316479865614300,5.5366142578125,-0.082034140086174,-0.0034338103735819456,0.007639043511077762
1761316479875596300,5.54659619140625,-0.07739712793529033,-0.008446487436443566,0.00816645350222243
1761316479885579800,5.556579833984375,-0.07829729164540768,-0.012815240572579205,-0.0006762986762332729
1761316479895562800,5.566562744140625,-0.0729103379100561,-0.010544546561082824,-0.003195092547149397
1761316479905544700,5.576544677734375,-0.06273614989817142,-0.013188649595389143,0.006766788437904324
1761316479915528000,5.58652783203125,-0.07231295653879642,-0.006312124022562056,-0.0014305282767512835
1761316479925509600,5.596509521484375,-0.08353577682077884,-0.007428944424353539,0.005439444257703143
1761316479935492900,5.606492919921875,-0.07276128482818603,0.000016905469028279186,0.008024777725921013
1761316479945475800,5.616475830078125,-0.0724620096206665,0.01060601269104518,0.009466918808652552
1761316479955457800,5.626457763671875,-0.08129004372060299,0.002640267109405249,0.00355161665052874
1761316479965440800,5.636440673828125,-0.07126549331247806,-0.002960393308708444,0.00889141134248348
1761316479975422700,5.646422607421875,-0.07381108614206314,-0.006420507167326286,0.003092874281690456
1761316479985405700,5.65640576171875,-0.08024433405995368,-0.010680758427688852,0.0025101219406933523
1761316479995388000,5.666387939453125,-0.07530570861399173,-0.005629849979979917,0.00895438215965405
1761316480005370600,5.67637060546875,-0.06722586253285408,-0.011038896816130727,-0.004829888391459826
1761316480015353600,5.686353515625,-0.07156593756377697,-0.0061914841844234614,-0.0024702306050108746
1761316480025335800,5.696335693359375,-0.0721609808474779,-0.0026892390839755535,-0.0012644030457828193
1761316480035318500,5.706318603515625,-0.0718611211180687,-0.006762415940174833,0.011219603128300514
1761316480045300700,5.71630078125,-0.07380699448883533,-0.010326273301057516,0.0019940987099544144
1761316480055283700,5.72628369140625,-0.07889408849477768,-0.0004637359210755676,0.005019497246004175
1761316480065265700,5.736265625,-0.07964169199168682,0.0032396943072788417,0.00033323455933714286
1761316480075248600,5.74624853515625,-0.07889233492910862,-0.0022133743336889894,0.01159144353182055
1761316480085231900,5.75623193359375,-0.07634908018708228,-0.006066935356147587,0.010785097868286539
1761316480095213600,5.766213623046875,-0.0794938079535961,-0.004770356206968427,0.00473085531364195
1761316480105196800,5.77619677734375,-0.07994447433054447,-0.005895442113606259,0.005156878156389575
1761316480115178800,5.7861787109375,-0.08069266234934329,-0.002005485470360145,0.004235552927234675
1761316480125161700,5.79616162109375,-0.08263736667633056,-0.006203448616852983,0.004267304338945541
1761316480135143700,5.806143798828125,-0.07216156536936759,-0.008274099144758656,0.009748674342501908
1761316480145127000,5.816126953125,-0.07724982841908931,-0.004061550350487232,0.0007717538407654501
1761316480155109600,5.826109619140625,-0.07964519912302494,-0.00762725260858424,0.005793564058153424
1761316480165091800,5.836091796875,-0.0859293939590454,-0.007811650998471305,0.00959743843670003
1761316480175074800,5.84607470703125,-0.08293722640573978,-0.0038655345880426466,0.013438226742553523
1761316480185056800,5.856056884765625,-0.0663274523884058,-0.004502453385246918,0.006242266806878615
1761316480195039700,5.866039794921875,-0.06542845772206783,0.00010177987404167652,0.0036172429323778487
1761316480205022700,5.876022705078125,-0.07650339396595955,0.001524761881865561,-0.0032231906970497217
1761316480215004700,5.886004638671875,-0.07066752741932869,-0.004323169561894611,-0.0038901872553979045
1761316480224987600,5.895987548828125,-0.07171615968942642,-0.013822938044089824,-0.0007014673668192699
1761316480234969600,5.905969482421875,-0.08114274420440197,-0.004597365127084777,0.005500456013227813
1761316480244952600,5.91595263671875,-0.0817424636632204,-0.006618952348874881,0.008369223232439252
1761316480254934800,5.925934814453125,-0.08847557131052017,-0.004868601550208404,0.009701131706614978
1761316480264917500,5.93591748046875,-0.07635492540597916,-0.004232331206975504,0.004625766954373102
1761316480274900700,5.945900634765625,-0.07979659029245376,-0.004816780031425878,0.0021877649683970956
1761316480284882700,5.955882568359375,-0.0732113666832447,-0.0008008589209523052,-0.003919703327538445
1761316480294865700,5.96586572265625,-0.07336158880889415,-0.0007246062138117849,-0.006106696544378064
1761316480304847600,5.97584765625,-0.06827215671539306,-0.008258782844617962,0.0002080806595738977
1761316480314830800,5.985830810546875,-0.073660279494524,-0.002040017927624285,-0.002349099859816488
1761316480324812500,5.9958125,-0.07321078216135501,-0.0018966913336422293,-0.0020465937988832592
1761316480334795800,6.005795654296875,-0.08084288447499274,-0.0027822967954445627,0.0062017064676270816
1761316480344778800,6.01577880859375,-0.07919862439930439,0.007844713017856702,0.0034344040286261586
1761316480354760700,6.0257607421875,-0.08204232339262962,0.0013443364141974598,-0.0019919638350838795
1761316480364743700,6.03574365234375,-0.07455868963897228,-0.008064274052670226,-0.0027221755224862134
1761316480374726000,6.045725830078125,-0.07111760927438736,-0.003823777805548161,0.009591800997068639
1761316480384708600,6.05570849609375,-0.07455927416086197,-0.007071153095783665,0.008791880507743917
1761316480394690800,6.06569091796875,-0.0679746350735426,-0.00799196686828509,0.00937684763871366
1761316480404673800,6.075673828125,-0.07470832724273205,-0.009215928305825218,0.012768218526500277
1761316480414656500,6.085656494140625,-0.06363631360828877,-0.010803937282785772,0.012178349174838513
1761316480424638700,6.095638671875,-0.06229015969634056,-0.005732369639538228,0.013184462044038808
1761316480434621700,6.10562158203125,-0.07440905203521252,-0.0112500188161619,0.007823640547075773
1761316480444603600,6.115603759765625,-0.0775508571922779,-0.010577133656432851,0.0038985281087690962
1761316480454586600,6.125586669921875,-0.073063482645154,0.005657057647313922,-0.0006659759283298626
1761316480464569900,6.13556982421875,-0.06842530145049094,0.002994268178846687,-0.005671513147640507
1761316480474551600,6.145551513671875,-0.08039572522938251,-0.004380425307620317,0.001031900331005454
1761316480484534800,6.15553466796875,-0.07410919230580329,0.00017198643288575112,-0.0013166903554461895
1761316480494516700,6.165516845703125,-0.06348375339508057,-0.0033548451195470987,0.001313532567268703
1761316480504499700,6.175499755859375,-0.07051672077178954,-0.008921274474496022,0.00427950851668138
1761316480514481700,6.185481689453125,-0.07814940760731696,-0.011068533902568742,0.004243238476768601
1761316480524464600,6.195464599609375,-0.06767535986602306,-0.005158798402128741,0.00854517117110081
1761316480534447600,6.205447509765625,-0.07201601941883563,-0.005819691729964688,0.004501914529129862
1761316480544429800,6.215429931640625,-0.07426292156279087,-0.008213372800312936,-0.0008016261059325188
1761316480554412500,6.22541259765625,-0.07202069559395313,-0.012643299805466085,0.010200180969666689
1761316480564394800,6.235394775390625,-0.07082476380765437,-0.008793474243208765,0.01672069846234517
1761316480574377700,6.245377685546875,-0.07262041505277156,0.0008576397426426411,0.0036553350366186348
1761316480584359700,6.255359619140625,-0.07217208676338195,-0.0046247006585821504,0.006349946698744315
1761316480594342700,6.2653427734375,-0.08399404198229313,-0.00022598164244554936,0.0031379075833712702
1761316480604326000,6.275325927734375,-0.07142448326647281,0.0018809914410114288,0.0059259468497242776
1761316480614307600,6.2853076171875,-0.06648585782051086,0.001844714551232755,0.009134691179601941
1761316480624290800,6.295290771484375,-0.07950491386950015,0.0038808691544923927,0.01399399746179115
1761316480634272800,6.305272705078125,-0.07352174780666827,-0.0027044366531074047,0.010066131377394776
1761316480644255700,6.315255859375,-0.06604045214056968,-0.008012370335496961,0.0034965345955803055
1761316480654237700,6.32523779296875,-0.06319850671291351,-0.013625707572093233,0.008322861056774855
1761316480664221000,6.335220947265625,-0.07202595629096031,-0.013389679459668695,0.00042386970156803723
1761316480674203600,6.34520361328125,-0.07830956660509109,-0.0033206231895368545,0.005732623084576335
1761316480684185900,6.355185791015625,-0.07352116328477859,0.0005444638739340007,0.001729314860503655
1761316480694168800,6.3651689453125,-0.07187573416531086,0.0034535014547407627,-0.0010543656078516506
1761316480704150800,6.37515087890625,-0.07367430801987647,0.0015520608807448298,-0.00451466212956002
1761316480714133800,6.3851337890625,-0.0730763421267271,0.0058776689948979765,-0.004640889174980111
1761316480724116700,6.39511669921875,-0.07966215025782585,0.010003745082113892,0.006186301119229756
1761316480734098700,6.4050986328125,-0.0771194800376892,-0.0023981471829116344,0.007073009409441147
1761316480744081700,6.41508154296875,-0.07801905922591686,-0.003196923744631931,0.006861284621211234
1761316480754063600,6.425063720703125,-0.07352993111312389,-0.010650856479769572,0.008202033988968469
1761316480764046600,6.435046630859375,-0.07293138069808483,-0.01263537222733721,0.009618453825265168
1761316480774028800,6.44502880859375,-0.0802653768479824,-0.011338455151440574,-0.000503773387230467
1761316480784011500,6.455011474609375,-0.06155833829045295,0.001207713555637747,0.004455047746677883
1761316480793994800,6.464994873046875,-0.07996376355290412,-0.004916240084217861,0.0020060311763430943
1761316480803976700,6.474976806640625,-0.08041559897363186,0.0018401936397422103,-0.0031022289152140728
1761316480813960000,6.4849599609375,-0.06665010847151279,0.0037353506034240123,0.0009900613501202314
1761316480823941600,6.494941650390625,-0.06515256339013577,0.00009369703228585421,0.001821699001826346
1761316480833924900,6.5049248046875,-0.07413023509383201,0.004705392078822478,0.004389709159196354
1761316480843906600,6.514906494140625,-0.0786181941628456,-0.0027229678236413745,0.0037235437179100697
1761316480853889800,6.524889892578125,-0.07921616005599498,-0.01142448946707882,0.0025777438168064688
1761316480863872800,6.534872802734375,-0.06769348004460335,-0.013099647004529834,0.009075245760078541
1761316480873854700,6.544854736328125,-0.06664660134017467,-0.014829722200147806,-0.0010550825604819692
1761316480883837700,6.554837646484375,-0.0736819068044424,-0.0027290779040195045,0.005010455423023086
1761316480893819400,6.5648193359375,-0.07428630243837833,-0.0009683061760384589,0.005213764009356964
1761316480903802400,6.57480224609375,-0.08611410287618637,-0.0043289965144824236,0.004124247173022013
1761316480913784300,6.584784423828125,-0.06861176393330097,-0.007134180995170027,0.007185755918780341
1761316480923767300,6.594767333984375,-0.07894201928973198,-0.008579164772247894,0.002925938483257778
1761316480933750300,6.604750244140625,-0.07250935589373111,-0.004727695242175832,0.006637109060073271
1761316480943732200,6.614732177734375,-0.07205868951678275,-0.004614106199331581,0.00445416639726609
1761316480953715200,6.624715087890625,-0.0710071346372366,-0.00027441476089879867,0.0034131055122707038
1761316480963697400,6.634697509765625,-0.06037643502950668,0.001546918914746493,0.004990255168499424
1761316480973680400,6.644680419921875,-0.07129471940696239,0.0004022149921860546,0.0041653851842973376
1761316480983663400,6.654663330078125,-0.07563011826276779,0.006181793907471001,0.0011404729887261056
1761316480993645300,6.664645263671875,-0.07981997116804122,0.0009508892503567039,-0.004360626911895815
1761316481003628300,6.674628173828125,-0.07727496286034584,0.004952014650497585,-0.005266186033049598
1761316481013610200,6.6846103515625,-0.0786228703379631,0.003690178021136671,-0.0027529222871991803
