time,seconds_elapsed,z,y,x
1761315256882435800,0.075435791015625,-0.029883267357945442,-0.003983769565820694,-0.09470950067043304
1761315256892417800,0.085417724609375,-0.04131914675235748,-0.015547214075922966,-0.06737986952066422
1761315256902399700,0.095399658203125,-0.042762391269207,-0.03172536566853523,-0.034271255135536194
1761315256912380700,0.105380615234375,-0.03229297325015068,-0.04101447016000748,0.003461742540821433
1761315256922363000,0.11536279296875,-0.025221772491931915,-0.06901124119758606,0.0379650853574276
1761315256932344800,0.1253447265625,-0.020997999235987663,-0.06207290664315224,0.06556608527898788
1761315256942325800,0.13532568359375,-0.006696588825434446,-0.03456594794988632,0.07691165059804916
1761315256952307700,0.1453076171875,0.007592335809022188,-0.017263920977711678,0.0687493309378624
1761315256962290000,0.1552900390625,0.014609734527766705,-0.020548362284898758,0.047505006194114685
1761315256972270800,0.165270751953125,0.016678746789693832,-0.03330516815185547,0.02966023050248623
1761315256982252800,0.175252685546875,0.006415721029043198,-0.03580028563737869,0.005236645229160786
1761315256992234800,0.18523486328125,0.0011173624079674482,-0.015407129190862179,-0.019750462844967842
1761315257002216000,0.1952158203125,0.0016386619536206126,-0.00034457026049494743,-0.039887309074401855
1761315257012197600,0.20519775390625,0.00029376568272709846,0.007052359636873007,-0.04603708162903786
1761315257022178800,0.2151787109375,0.0053969742730259895,0.005423030350357294,-0.02869611606001854
1761315257032160800,0.225160888671875,0.0058957841247320175,-0.010001199319958687,-0.006386549212038517
1761315257042143000,0.23514306640625,0.010599473491311073,-0.027231603860855103,0.02554529346525669
1761315257052124000,0.2451240234375,0.01719372719526291,-0.03253103047609329,0.04732808470726013
1761315257062105900,0.25510595703125,0.0223004799336195,-0.03104185126721859,0.06095108389854431
1761315257072087800,0.265087890625,0.031291842460632324,-0.01702243834733963,0.0667375922203064
1761315257082069000,0.275069091796875,0.035387229174375534,-0.0008591357618570328,0.06313539296388626
1761315257092050700,0.28505078125,0.03592252358794212,0.006730074528604746,0.049440618604421616
1761315257102033000,0.295032958984375,0.035300202667713165,0.005461936350911856,0.028096793219447136
1761315257112013800,0.305013916015625,0.025569545105099678,0.008007653057575226,0.004696927033364773
1761315257121995800,0.314995849609375,0.014574416913092136,0.019930290058255196,-0.017828641459345818
1761315257131977700,0.324977783203125,0.009609752334654331,0.018227729946374893,-0.029407000169157982
1761315257141958700,0.334958740234375,0.004520941525697708,0.010496898554265499,-0.022582944482564926
1761315257151940900,0.34494091796875,-0.0006117685115896165,0.002868274226784706,-0.00602766964584589
1761315257161922800,0.3549228515625,-0.00853516161441803,-0.013902707025408745,0.014675259590148926
1761315257171903700,0.36490380859375,-0.01506310235708952,-0.02560143917798996,0.033921655267477036
1761315257181885700,0.3748857421875,-0.01785898394882679,-0.024960651993751526,0.041198134422302246
1761315257191868000,0.384867919921875,-0.014786762185394764,-0.02156112715601921,0.026876717805862427
1761315257201848800,0.394848876953125,-0.01206387858837843,-0.015416475012898445,0.00023875758051872253
1761315257211830800,0.404830810546875,-0.00890563614666462,0.005477622151374817,-0.02162659540772438
1761315257221812700,0.414812744140625,-0.009685544297099113,0.02984284609556198,-0.032897502183914185
1761315257231794000,0.4247939453125,-0.01225735992193222,0.03886430338025093,-0.025322141125798225
1761315257241775900,0.43477587890625,-0.0061861248686909676,0.041094522923231125,-0.00854363664984703
1761315257251757800,0.4447578125,-0.0024113603867590427,0.03199983015656471,0.020619042217731476
1761315257261738800,0.45473876953125,-0.002580969361588359,0.014318009838461876,0.04095789045095444
1761315257271721000,0.464720947265625,0.008105230517685413,0.004574834369122982,0.05618744343519211
1761315257281702700,0.47470263671875,0.01473210845142603,0.00729388976469636,0.05802435055375099
1761315257291683800,0.484683837890625,0.020008627325296402,0.01835612952709198,0.0473027303814888
1761315257301665800,0.494665771484375,0.027951521798968315,0.03806350380182266,0.03499946743249893
1761315257311648000,0.50464794921875,0.028052721172571182,0.04719468206167221,0.019810393452644348
1761315257321629000,0.51462890625,0.027254868298768997,0.027149632573127747,0.01206569466739893
1761315257331611000,0.52461083984375,0.028460213914513588,0.0026935567148029804,0.017480166628956795
1761315257341592800,0.5345927734375,0.027791405096650124,-0.01314561627805233,0.034271568059921265
1761315257351573800,0.54457373046875,0.029900627210736275,-0.02379240095615387,0.05470626801252365
1761315257361555700,0.5545556640625,0.028377655893564224,-0.021917512640357018,0.07434798032045364
1761315257371538000,0.564537841796875,0.029065018519759178,-0.01453709602355957,0.07641192525625229
1761315257381518800,0.574518798828125,0.026132743805646896,-0.003255382413044572,0.05529613047838211
1761315257391500800,0.584500732421875,0.023015514016151428,0.009997572749853134,0.021278776228427887
1761315257401482800,0.594482666015625,0.020553171634674072,0.014204285107553005,-0.0042998106218874454
1761315257411463700,0.604463623046875,0.01160095538944006,0.01739501953125,-0.013200893066823483
1761315257421446000,0.61444580078125,0.0015495644183829427,0.020482134073972702,-0.008061621338129044
1761315257431427800,0.624427734375,-0.0003167788963764906,0.011572262272238731,0.01440906710922718
1761315257441408800,0.63440869140625,0.0037046209909021854,-0.011358395218849182,0.034876007586717606
1761315257451390700,0.644390625,0.005723030772060156,-0.03518356755375862,0.049557216465473175
1761315257461373000,0.654373046875,0.00451224111020565,-0.03928028792142868,0.060645975172519684
1761315257471353900,0.664353759765625,0.008692871779203415,-0.037441641092300415,0.06170271709561348
1761315257481335800,0.674335693359375,0.0061292084865272045,-0.0328061506152153,0.057255398482084274
1761315257491317800,0.68431787109375,0.0022172913886606693,-0.02094256691634655,0.04512496665120125
1761315257501299000,0.694298828125,0.0005472231423482299,0.000025832559913396835,0.03002510964870453
1761315257511281000,0.704281005859375,0.004514800384640694,0.021513281390070915,0.01854235678911209
1761315257521261600,0.714261474609375,-0.0010696100071072578,0.03411326929926872,0.015193415805697441
1761315257531243800,0.724243896484375,-0.005740527994930744,0.03658574819564819,0.018273361027240753
1761315257541226000,0.73422607421875,-0.012877032160758972,0.024178048595786095,0.019384127110242844
1761315257551207000,0.74420703125,-0.011799517087638378,0.00995543785393238,0.0229202713817358
1761315257561188600,0.754188720703125,-0.005874131340533495,-0.004959278739988804,0.02643231675028801
1761315257571170800,0.7641708984375,-0.0017299862811341882,-0.023067442700266838,0.024665575474500656
1761315257581151700,0.77415185546875,0.004094052128493786,-0.04124487563967705,0.011863987892866135
1761315257591134000,0.784134033203125,0.008751654997467995,-0.06002575531601906,-0.013388904742896557
1761315257601115600,0.79411572265625,0.008812667801976204,-0.061010099947452545,-0.032911188900470734
1761315257611096800,0.804096923828125,0.0037393460515886545,-0.0457770861685276,-0.04119468480348587
1761315257621078800,0.814078857421875,-0.0021502331364899874,-0.017889725044369698,-0.03243446350097656
1761315257631060700,0.824060791015625,-0.007133540231734514,0.005669396836310625,-0.016807032749056816
1761315257641041700,0.834041748046875,-0.007876784540712833,0.01668710447847843,-0.003521560225635767
1761315257651024000,0.84402392578125,-0.003170712385326624,0.014493726193904877,0.00005692918784916401
1761315257661005800,0.854005859375,0.006581532768905163,0.008160511031746864,-0.0022346910554915667
1761315257670987000,0.863987060546875,0.021682454273104668,0.0014916895888745785,-0.004075467586517334
1761315257680968700,0.87396875,0.029208771884441376,-0.0005597537383437157,0.0021030183415859938
1761315257690951000,0.883950927734375,0.034964658319950104,0.005320239346474409,0.01695599965751171
1761315257700931800,0.893931884765625,0.030706191435456276,0.008737897500395775,0.02628258988261223
1761315257710913500,0.90391357421875,0.03108169697225094,0.007445464842021465,0.026858098804950714
1761315257720895700,0.913895751953125,0.029193101450800896,0.005311994347721338,0.02459985390305519
1761315257730876700,0.923876708984375,0.030102038756012917,0.0010133860632777214,0.017836222425103188
1761315257740859000,0.93385888671875,0.029876789078116417,-0.004013410769402981,0.006955911871045828
1761315257750840600,0.943840576171875,0.018812155351042747,0.0015581883490085602,-0.009458481334149837
1761315257760821800,0.95382177734375,0.01311845425516367,0.018592603504657745,-0.019882481545209885
1761315257770803700,0.9638037109375,0.013976790942251682,0.024306949228048325,-0.026753436774015427
1761315257780786000,0.973785888671875,0.00878600962460041,0.02690914273262024,-0.016657669097185135
1761315257790766600,0.9837666015625,0.00517183355987072,0.015599498525261879,-0.009330512955784798
1761315257800748800,0.993748779296875,0.0035557043738663197,0.0019643204286694527,0.0070310127921402454
1761315257810730800,1.003730712890625,0.004469701088964939,-0.017662644386291504,0.02538924664258957
1761315257820712000,1.0137119140625,0.004808222409337759,-0.03840303793549538,0.04269477725028992
1761315257830693600,1.023693603515625,0.003472913522273302,-0.03991677984595299,0.050446439534425735
1761315257840675800,1.03367578125,0.003484157146885991,-0.03420344367623329,0.054602645337581635
1761315257850656800,1.04365673828125,0.0035555295180529356,-0.021092437207698822,0.046893589198589325
1761315257860639000,1.053638916015625,0.0035404199734330177,0.0005360627546906471,0.03090827725827694
1761315257870620700,1.06362060546875,0.001663690316490829,0.03549963980913162,0.0035056816413998604
1761315257880601900,1.073601806640625,0.001364578609354794,0.052692804485559464,-0.016467250883579254
1761315257890583800,1.083583740234375,0.0041728815995156765,0.05658021941781044,-0.019014298915863037
1761315257900565800,1.093565673828125,0.0032122645061463118,0.05147309601306915,-0.01240727212280035
1761315257910546700,1.103546630859375,0.007902889512479305,0.030777938663959503,0.0016792522510513663
1761315257920528600,1.113528564453125,0.014290980063378811,-0.0027379158418625593,0.024785349145531654
1761315257930510800,1.1235107421875,0.022593652829527855,-0.0314294807612896,0.03866228461265564
1761315257940491800,1.13349169921875,0.03221037611365318,-0.05249017849564552,0.048041678965091705
1761315257950473700,1.1434736328125,0.035771023482084274,-0.05985275283455849,0.05584500730037689
1761315257960455700,1.15345556640625,0.04024411365389824,-0.046437863260507584,0.057377975434064865
1761315257970436900,1.163436767578125,0.030497746542096138,-0.028633300215005875,0.04998503997921944
1761315257980418600,1.17341845703125,0.02156759798526764,-0.007432870101183653,0.026101522147655487
1761315257990400800,1.18340087890625,0.016121167689561844,0.016300689429044724,-0.009750749915838242
1761315258000381700,1.193381591796875,0.016814375296235085,0.031580328941345215,-0.039094001054763794
1761315258010364000,1.203364013671875,0.016980556771159172,0.029348865151405334,-0.054453782737255096
1761315258020345600,1.213345703125,0.018400639295578003,0.02396656759083271,-0.04236402362585068
1761315258030326800,1.223326904296875,0.024314986541867256,0.01457279920578003,-0.010235381312668324
1761315258040308700,1.233308837890625,0.032888948917388916,0.0037504578940570354,0.03244407847523689
1761315258050290000,1.2432900390625,0.04091491922736168,-0.008490761741995811,0.07142743468284607
1761315258060271600,1.253271728515625,0.043927766382694244,-0.02795332670211792,0.09080382436513901
1761315258070253800,1.26325390625,0.04386118799448013,-0.04346783459186554,0.08962643891572952
1761315258080234800,1.27323486328125,0.038433950394392014,-0.049191683530807495,0.06424497067928314
1761315258090217000,1.283217041015625,0.03400538116693497,-0.03146808221936226,0.024160664528608322
1761315258100198700,1.29319873046875,0.026829322800040245,-0.0029915329068899155,-0.01584155298769474
1761315258110179600,1.3031796875,0.023466283455491066,0.01989886909723282,-0.042881160974502563
1761315258120161800,1.313161865234375,0.01490106899291277,0.03451191261410713,-0.045817781239748
1761315258130144000,1.32314404296875,0.0062769558280706406,0.0441480316221714,-0.0324295349419117
1761315258140124700,1.333124755859375,-0.003868532832711935,0.04203829541802406,-0.008398672565817833
1761315258150106600,1.343106689453125,-0.00448425579816103,0.03448716923594475,0.009898308664560318
1761315258160088800,1.3530888671875,-0.003167990129441023,0.03338038921356201,0.025687268003821373
1761315258170069800,1.36306982421875,0.005997278727591038,0.026303306221961975,0.03187272697687149
1761315258180051700,1.3730517578125,0.012490598484873772,0.009915011934936047,0.020351359620690346
1761315258190033700,1.38303369140625,0.01909283921122551,-0.01452614925801754,0.004839510656893253
1761315258200014800,1.393014892578125,0.014442192390561104,-0.03213740140199661,-0.008865896612405777
1761315258209996800,1.402996826171875,0.010903384536504745,-0.048097725957632065,-0.017292937263846397
1761315258219978800,1.412978759765625,0.002682310529053211,-0.04518848657608032,-0.03333438187837601
1761315258229959700,1.422959716796875,-0.007505079731345177,-0.0191025547683239,-0.04544457420706749
1761315258239942000,1.43294189453125,-0.0008915371727198362,0.028740644454956055,-0.05124666914343834
1761315258249923600,1.442923583984375,0.004636919125914574,0.056051094084978104,-0.046655114740133286
1761315258259904800,1.45290478515625,0.01401518564671278,0.06736042350530624,-0.025419676676392555
1761315258269886700,1.46288671875,0.02354077808558941,0.05284459888935089,0.005483644083142281
1761315258279869000,1.472868896484375,0.032928887754678726,0.025752723217010498,0.03886815160512924
1761315258289849900,1.482849853515625,0.04485026001930237,0.0018319427035748959,0.05966344475746155
1761315258299831800,1.492831787109375,0.05576425418257713,-0.012670805677771568,0.07555009424686432
1761315258309813800,1.502813720703125,0.06156808137893677,-0.02851315215229988,0.07754267007112503
1761315258319794700,1.512794677734375,0.05821004509925842,-0.04018304869532585,0.06342761963605881
1761315258329776600,1.522776611328125,0.051780376583337784,-0.043511997908353806,0.04338546469807625
1761315258339758800,1.5327587890625,0.039115406572818756,-0.0279141403734684,0.01806648075580597
1761315258349739800,1.54273974609375,0.030451077967882156,-0.006658119149506092,-0.011164374649524689
1761315258359721700,1.5527216796875,0.011681970208883286,0.016859376803040504,-0.037473976612091064
1761315258369703700,1.56270361328125,0.005354831460863352,0.03523065894842148,-0.05156476050615311
1761315258379684600,1.5726845703125,-0.0019426834769546986,0.038822248578071594,-0.0513785183429718
1761315258389666800,1.582666748046875,-0.0008161664009094238,0.029633276164531708,-0.03218404948711395
1761315258399648800,1.592648681640625,-0.0004697928670793772,0.011393547989428043,-0.006584784481674433
1761315258409629700,1.602629638671875,-0.0018359944224357605,-0.014737121760845184,0.0141492560505867
1761315258419611600,1.612611572265625,-0.0015867366455495358,-0.04089520126581192,0.03294956684112549
1761315258429593900,1.62259375,-0.004730065818876028,-0.061745889484882355,0.04313855618238449
1761315258439574800,1.63257470703125,-0.009624660946428776,-0.07036464661359787,0.04064773768186569
1761315258449556700,1.642556640625,-0.022570818662643433,-0.060488320887088776,0.029066449031233788
1761315258459538700,1.65253857421875,-0.02735140174627304,-0.031845033168792725,-0.0021638732869178057
1761315258469520000,1.662519775390625,-0.023151330649852753,0.017188023775815964,-0.03503633663058281
1761315258479501800,1.672501708984375,-0.027128390967845917,0.0360591895878315,-0.0503251738846302
1761315258489482800,1.682482666015625,-0.0370851531624794,0.02001337707042694,-0.059113603085279465
1761315258499464700,1.692464599609375,-0.029373183846473694,0.018639471381902695,-0.05438996106386185
1761315258509447000,1.702447021484375,-0.012575295753777027,0.018754787743091583,-0.028489654883742332
1761315258519428600,1.7124287109375,-0.026133432984352112,0.01114778220653534,-0.004568314645439386
1761315258529409500,1.722409423828125,-0.025053786113858223,-0.006649590563029051,0.013376597315073013
1761315258539391700,1.732391845703125,-0.01720881275832653,-0.0013006962835788727,0.04113240912556648
1761315258549372700,1.74237255859375,-0.015960322692990303,-0.007204391527920961,0.05000872537493706
1761315258559355000,1.75235498046875,-0.02097206376492977,-0.010755921714007854,0.04053247720003128
1761315258569336600,1.762336669921875,-0.018650321289896965,0.004247262608259916,0.021028287708759308
1761315258579317800,1.77231787109375,-0.016967348754405975,0.016851989552378654,-0.001878778450191021
1761315258589299700,1.7822998046875,-0.009777880273759365,0.03211456537246704,-0.023070883005857468
1761315258599281700,1.79228173828125,-0.0007510340074077249,0.0435202419757843,-0.030254457145929337
1761315258609262600,1.8022626953125,0.009443546645343304,0.034037791192531586,-0.029171880334615707
1761315258619244800,1.812244873046875,0.014218397438526154,0.017723074182868004,-0.021252086386084557
1761315258629226800,1.822226806640625,0.024624966084957123,0.024403614923357964,-0.0065873912535607815
1761315258639208000,1.8322080078125,0.022353775799274445,0.023533014580607414,0.008648504503071308
1761315258649189600,1.842189697265625,0.010580208152532578,0.01748524233698845,0.024117209017276764
1761315258659171800,1.852171875,0.013929782435297966,0.0156931821256876,0.027366111055016518
1761315258669152800,1.86215283203125,0.020591413602232933,0.009031550958752632,0.028555745258927345
1761315258679134700,1.872134765625,0.029657496139407158,0.008544743061065674,0.014743947423994541
1761315258689116700,1.88211669921875,0.028574122115969658,0.008894683793187141,-0.011947317980229855
1761315258699097900,1.892097900390625,0.02614465542137623,0.02034551464021206,-0.034730248153209686
1761315258709080000,1.902080078125,0.02333102561533451,0.03434841334819794,-0.04671180993318558
1761315258719061800,1.912061767578125,0.011990293860435486,0.04661756753921509,-0.04204615205526352
1761315258729043000,1.92204296875,0.000609540962614119,0.0568598173558712,-0.020259633660316467
1761315258739025000,1.93202490234375,-0.0062093790620565414,0.05495966225862503,0.005893513094633818
1761315258749007000,1.942007080078125,-0.008376926183700562,0.03551299124956131,0.032963745296001434
1761315258758987800,1.95198779296875,-0.0007241387502290308,0.007521597668528557,0.04097526893019676
1761315258768970000,1.961969970703125,0.002217588946223259,-0.011941049247980118,0.04187408462166786
1761315258778952000,1.971951904296875,0.003608260303735733,-0.017764616757631302,0.03003469668328762
1761315258788933000,1.98193310546875,0.002037794329226017,-0.02191302180290222,0.009671367704868317
1761315258798914800,1.991914794921875,-0.0112066138535738,-0.026845108717679977,-0.022019127383828163
1761315258808897000,2.00189697265625,-0.019437646493315697,-0.018086504191160202,-0.04558011144399643
1761315258818878000,2.0118779296875,-0.031407956033945084,-0.012180741876363754,-0.06606164574623108
1761315258828860200,2.021860107421875,-0.0350053533911705,0.0009294673800468445,-0.08024244755506516
1761315258838841900,2.031841796875,-0.03778628632426262,0.012953115627169609,-0.07696627825498581
1761315258848822800,2.04182275390625,-0.036074940115213394,0.022145815193653107,-0.05813134089112282
1761315258858805000,2.051804931640625,-0.03031463362276554,0.029984213411808014,-0.03129027038812637
1761315258868786700,2.06178662109375,-0.020030571147799492,0.019533436745405197,-0.0014423597604036331
1761315258878767900,2.071767822265625,-0.009272592142224312,-0.0010740612633526325,0.01694505102932453
1761315258888749800,2.081749755859375,-0.004835499916225672,-0.025914963334798813,0.02162528969347477
1761315258898732000,2.09173193359375,0.0078115141950547695,-0.03219946101307869,0.02243456058204174
1761315258908713000,2.101712890625,0.01402653381228447,-0.03787066042423248,0.017094122245907784
1761315258918695000,2.11169482421875,0.008264577016234398,-0.03679022565484047,0.0000068051740527153015
1761315258928675800,2.12167578125,0.002956896321848035,-0.02482704073190689,-0.01533460058271885
1761315258938658000,2.131657958984375,-0.005795567762106657,-0.006466894410550594,-0.033424362540245056
1761315258948639700,2.1416396484375,-0.015418367460370064,0.0018903715535998344,-0.03712775185704231
1761315258958621000,2.151620849609375,-0.028378687798976898,-0.0013470486737787724,-0.03867192193865776
1761315258968603000,2.161602783203125,-0.03755301237106323,-0.013091588392853737,-0.03961893916130066
1761315258978585000,2.171585205078125,-0.034381378442049026,-0.017556598410010338,-0.027930771932005882
1761315258988566000,2.18156591796875,-0.02289969101548195,-0.0105343759059906,-0.0118221091106534
1761315258998548000,2.1915478515625,-0.011136551387608051,-0.004767578095197678,-0.0014147902838885784
1761315259008530000,2.201530029296875,0.002294568344950676,-0.004202455282211304,0.005979742854833603
1761315259018510800,2.2115107421875,0.011140450835227966,-0.016245242208242416,0.00790807232260704
1761315259028492800,2.221492919921875,0.01531575433909893,-0.028224939480423927,-0.002135773655027151
1761315259038475000,2.23147509765625,0.013567660003900528,-0.024133626371622086,-0.0028132996521890163
1761315259048456000,2.2414560546875,0.01030102651566267,-0.006258223205804825,0.0068254792131483555
1761315259058438000,2.25143798828125,0.0016852231929078698,0.0036403071135282516,0.007651666644960642
1761315259068419800,2.261419921875,-0.005833147093653679,0.012005561962723732,0.015435287728905678
1761315259078400800,2.27140087890625,-0.009339376352727413,0.017424050718545914,0.0156196728348732
1761315259088383000,2.281383056640625,-0.005800834856927395,0.011696388944983482,0.009898937307298183
1761315259098365000,2.291364990234375,0.0000737940426915884,0.011281893588602543,0.006408533547073603
1761315259108346000,2.30134619140625,0.009146916680037975,0.01724923774600029,0.00037460937164723873
1761315259118327800,2.311327880859375,0.012716524302959442,0.017154240980744362,-0.003078523790463805
1761315259128310000,2.32131005859375,0.012771119363605976,0.00913519598543644,-0.005185349844396114
1761315259138291000,2.331291015625,0.0032921882811933756,0.0010652770288288593,-0.004512579180300236
1761315259148273000,2.34127294921875,-0.009142909198999405,-0.006453625857830048,-0.004206848330795765
1761315259158254800,2.3512548828125,-0.00929229985922575,-0.014393327757716179,-0.0012549925595521927
1761315259168236000,2.361236083984375,-0.011353585869073868,-0.020277317613363266,0.005505974404513836
1761315259178218000,2.371218017578125,-0.00438271788880229,-0.018942994996905327,0.009847794659435749
1761315259188200000,2.381199951171875,0.0007183010457083583,-0.012894423678517342,0.013926425017416477
1761315259198180900,2.391180908203125,0.004523172974586487,0.005728175397962332,0.008167860098183155
1761315259208163000,2.4011630859375,0.01092301495373249,0.018460216000676155,0.00008756318129599094
1761315259218144800,2.411144775390625,0.007422841154038906,0.01839022897183895,-0.015558475628495216
1761315259228126000,2.4211259765625,0.00627155601978302,0.014523850753903389,-0.025490468367934227
1761315259238108000,2.43110791015625,0.0029122449923306704,0.010855346918106079,-0.030597079545259476
1761315259248090000,2.441090087890625,0.001274400856345892,-0.0017906741704791784,-0.027101414278149605
1761315259258071000,2.451071044921875,0.0019005539361387491,0.002992107532918453,-0.026522930711507797
1761315259268052700,2.461052734375,0.016884030774235725,0.028977103531360626,-0.016810115426778793
1761315259278035000,2.471034912109375,0.03260395675897598,0.0340280719101429,-0.0005213278345763683
1761315259288016000,2.481015869140625,0.022324690595269203,0.004782570526003838,0.01492367498576641
1761315259297997800,2.490997802734375,0.016175787895917892,-0.005474159028381109,0.032988205552101135
1761315259307979800,2.500979736328125,0.0257882010191679,-0.01464555412530899,0.042556941509246826
1761315259317961000,2.5109609375,0.030141443014144897,-0.027333784848451614,0.039327412843704224
1761315259327943000,2.52094287109375,0.02521592564880848,-0.023562749847769737,0.017793357372283936
1761315259337924000,2.530924072265625,0.0072977906093001366,-0.0292823426425457,-0.007202449720352888
1761315259347905800,2.54090576171875,-0.009813818149268627,-0.013595525175333023,-0.031208181753754616
1761315259357888000,2.550887939453125,-0.015339098870754242,0.01341856736689806,-0.047184232622385025
1761315259367869000,2.560868896484375,-0.01917325146496296,0.03991435840725899,-0.05630582571029663
1761315259377851100,2.57085107421875,-0.02021235227584839,0.059149108827114105,-0.053953904658555984
1761315259387832800,2.580832763671875,-0.017682349309325218,0.05737357586622238,-0.04567653685808182
1761315259397814000,2.59081396484375,-0.013063602149486542,0.035865046083927155,-0.031226204708218575
1761315259407796000,2.6007958984375,-0.007849399000406265,-0.0015470385551452637,-0.020767174661159515
1761315259417778000,2.61077783203125,-0.0054176440462470055,-0.03987317159771919,-0.012867160141468048
1761315259427758800,2.6207587890625,-0.007555895950645208,-0.051262978464365005,-0.008495581336319447
1761315259437741000,2.630740966796875,-0.010224764235317707,-0.04437335953116417,-0.0042298417538404465
1761315259447723000,2.640722900390625,-0.0159340500831604,-0.0210906732827425,-0.006510838866233826
1761315259457704000,2.650703857421875,-0.021626580506563187,0.006011029239743948,-0.007282105274498463
1761315259467686000,2.660685791015625,-0.02110832929611206,0.034107647836208344,-0.012634259648621082
1761315259477668000,2.670668212890625,-0.015592626295983791,0.047000039368867874,-0.007476476952433586
1761315259487649000,2.68064892578125,-0.014671438373625278,0.04336269199848175,0.0029932083562016487
1761315259497630700,2.690630615234375,-0.0077529605478048325,0.041973840445280075,0.01968628168106079
1761315259507613000,2.700613037109375,-0.0040232036262750626,0.0430806502699852,0.025194231420755386
1761315259517593900,2.71059375,0.010577192530035973,0.036057908087968826,0.024377591907978058
1761315259527576000,2.720576171875,0.015904046595096588,0.026666272431612015,0.021526413038372993
1761315259537557800,2.730557861328125,0.01811349391937256,0.012288684025406837,0.01801113411784172
1761315259547539000,2.7405390625,0.01231232937425375,-0.0042564705945551395,0.014749561436474323
1761315259557521000,2.75052099609375,0.01041802205145359,-0.006282671820372343,0.016555164009332657
1761315259567502800,2.7605029296875,0.011151189915835857,-0.008118920959532261,0.029417166486382484
1761315259577483800,2.77048388671875,0.008514943532645702,-0.0018684309907257557,0.03588521480560303
1761315259587466000,2.780466064453125,0.008485648781061172,0.015078062191605568,0.028214778751134872
1761315259597448000,2.790447998046875,0.00652298703789711,0.02078203856945038,0.011485695838928223
1761315259607429000,2.80042919921875,0.009922511875629425,0.019703194499015808,-0.001672450453042984
1761315259617410800,2.810410888671875,0.006193480920046568,0.021825162693858147,-0.012549418956041336
1761315259627393000,2.82039306640625,0.000532399513758719,0.024464622139930725,-0.01473294384777546
1761315259637374000,2.8303740234375,-0.0032077638898044825,0.016683075577020645,-0.017061112448573112
1761315259647356200,2.840356201171875,-0.0005659080925397575,0.007168665062636137,-0.022745097056031227
1761315259657337900,2.850337890625,0.0025122512597590685,0.006796826142817736,-0.03210018202662468
1761315259667318800,2.86031884765625,-0.003332321997731924,0.004123013000935316,-0.03211056813597679
1761315259677301000,2.870301025390625,-0.01285164151340723,-0.0061838277615606785,-0.022325139492750168
1761315259687283000,2.880282958984375,-0.02327898144721985,-0.019924141466617584,-0.007068423554301262
1761315259697263900,2.890263916015625,-0.0259543489664793,-0.02510850504040718,0.01960105076432228
1761315259707246000,2.90024609375,-0.028512049466371536,-0.017185069620609283,0.03024730458855629
1761315259717228300,2.910228271484375,-0.01514790952205658,-0.001959811896085739,0.023377802222967148
1761315259727209200,2.920209228515625,-0.0030267974361777306,0.011981036514043808,0.0003763467539101839
1761315259737191200,2.930191162109375,0.011472146958112717,0.02714613638818264,-0.0262050349265337
1761315259747173000,2.940173095703125,0.014019194059073925,0.028331244364380836,-0.04361225292086601
1761315259757154300,2.950154296875,0.00905319768935442,0.03658437728881836,-0.04126041755080223
1761315259767136000,2.960135986328125,-0.003169646952301264,0.03991066664457321,-0.02693420834839344
1761315259777118200,2.9701181640625,-0.01054583303630352,0.03291857987642288,-0.010927028954029083
1761315259787099100,2.98009912109375,-0.014227919280529022,0.02508702129125595,0.005131565034389496
1761315259797081300,2.990081298828125,-0.013728639110922813,0.011008154600858688,0.010259401984512806
1761315259807063000,3.00006298828125,-0.008768502622842789,-0.009645191952586174,0.006632975302636623
1761315259817044200,3.010044189453125,-0.003755097510293126,-0.025126077234745026,-0.004939235746860504
1761315259827026200,3.020026123046875,0.0034727214369922876,-0.02707045152783394,-0.018851321190595627
1761315259837007000,3.030007080078125,0.006912363227456808,-0.025977589190006256,-0.039718642830848694
1761315259846989000,3.039989013671875,-0.00014421436935663223,-0.017622720450162888,-0.05407388135790825
1761315259856971000,3.049970947265625,-0.008314259350299835,0.0023398026823997498,-0.066425621509552
1761315259866952200,3.0599521484375,-0.01315988227725029,0.02587628737092018,-0.06979691982269287
1761315259876934100,3.06993408203125,-0.015560549683868885,0.0403585247695446,-0.07292649894952774
1761315259886916000,3.079916015625,-0.013471832498908043,0.0422791950404644,-0.06265947967767715
1761315259896897000,3.08989697265625,-0.0023785133380442858,0.04663672298192978,-0.051087312400341034
1761315259906879200,3.099879150390625,0.001307035330682993,0.01257835328578949,-0.035264138132333755
1761315259916861200,3.109861083984375,0.0064264037646353245,-0.004834149498492479,-0.00750709418207407
1761315259926842000,3.119842041015625,0.011396395973861217,-0.012912848964333534,0.023979991674423218
1761315259936824000,3.129823974609375,0.02345874533057213,-0.02379034087061882,0.044498927891254425
1761315259946806300,3.13980615234375,0.026079297065734863,-0.022927742451429367,0.057371582835912704
1761315259956787200,3.149787109375,0.027704987674951553,-0.005045845173299313,0.05925935134291649
1761315259966769200,3.15976904296875,0.022827407345175743,0.015239452011883259,0.04103667289018631
1761315259976751000,3.169751220703125,0.009944407269358635,0.04499382898211479,0.008089401759207249
1761315259986732300,3.179732177734375,-0.0002714783186092973,0.0751115158200264,-0.0195627324283123
1761315259996714200,3.18971435546875,-0.013906747102737427,0.08412735909223557,-0.04862356558442116
1761315260006696200,3.1996962890625,-0.010984992608428001,0.07190051674842834,-0.05368730053305626
1761315260016677000,3.209677001953125,-0.011323447339236736,0.04596163332462311,-0.04575157165527344
1761315260026659300,3.219659423828125,-0.008295699022710323,0.0011970950290560722,-0.022929346188902855
1761315260036641000,3.22964111328125,0.002400899538770318,-0.042616184800863266,0.0008332482539117336
1761315260046622000,3.2396220703125,0.006496042013168335,-0.06453187018632889,0.020699365064501762
1761315260056604200,3.249604248046875,0.00927520077675581,-0.06687463819980621,0.027213342487812042
1761315260066586400,3.25958642578125,0.01030078437179327,-0.04062492400407791,0.02118421345949173
1761315260076567300,3.2695673828125,0.008462462574243546,0.004355324897915125,0.009587801061570644
1761315260086549000,3.279549072265625,0.004693023860454559,0.04685085266828537,0.003158930689096451
1761315260096531200,3.28953125,-0.002483675256371498,0.06722911447286606,-0.010201357305049896
1761315260106512100,3.29951220703125,-0.0037188492715358734,0.07746843248605728,-0.01654207892715931
1761315260116494000,3.309494140625,-0.0012173291761428118,0.05357187241315842,-0.020877428352832794
1761315260126476000,3.31947607421875,0.004806741140782833,0.026125069707632065,-0.011059952899813652
1761315260136457200,3.329457275390625,0.006568863056600094,-0.0015521259047091007,0.003085329430177808
1761315260146439200,3.339439208984375,0.009900477714836597,-0.023363947868347168,0.012171235866844654
1761315260156421000,3.349421142578125,0.012334548868238926,-0.029582154005765915,0.020802751183509827
1761315260166402000,3.359402099609375,0.008365106768906116,-0.02245473675429821,0.021106883883476257
1761315260176384300,3.36938427734375,0.003519874531775713,-0.010497882962226868,0.017653167247772217
1761315260186366200,3.3793662109375,-0.0026530663017183542,0.0007385266944766045,0.0026366678066551685
1761315260196347100,3.38934716796875,-0.00792626105248928,0.004998482763767242,-0.0049891723319888115
1761315260206329000,3.3993291015625,-0.01110820472240448,0.00684698298573494,-0.009895780123770237
1761315260216311300,3.409311279296875,-0.010043604299426079,0.01350332424044609,-0.007339000701904297
1761315260226292200,3.419292236328125,-0.009671560488641262,0.017452258616685867,0.001445435918867588
1761315260236274200,3.429274169921875,-0.006107142195105553,0.019204629585146904,0.0098227234557271
1761315260246256000,3.439256103515625,-0.005936966277658939,-0.00000528339296579361,0.00883042998611927
1761315260256237000,3.449237060546875,0.0017885536653921008,-0.017289210110902786,0.0024760791566222906
1761315260266219300,3.45921923828125,0.007874942384660244,-0.01953558623790741,-0.0017061489634215832
1761315260276200000,3.469199951171875,0.01156666036695242,-0.012143971398472786,-0.003451270516961813
1761315260286182100,3.47918212890625,0.005979614332318306,-0.0009283348917961121,-0.009502770379185677
1761315260296164000,3.4891640625,-0.0018268105341121554,0.01781039498746395,-0.004932972136884928
1761315260306145300,3.499145263671875,-0.011252003721892834,0.026906952261924744,-0.001903359778225422
1761315260316127000,3.509126953125,-0.01656203344464302,0.0335526205599308,0.005977515131235123
1761315260326109200,3.519109130859375,-0.015626465901732445,0.027743466198444366,0.010334447026252747
1761315260336090000,3.529090087890625,-0.00949898548424244,0.015361040830612183,0.018552765250205994
1761315260346072300,3.539072265625,-0.004368405789136887,0.009708749130368233,0.027108702808618546
1761315260356054000,3.549053955078125,0.0031359060667455196,0.024057690054178238,0.033363211899995804
1761315260366035200,3.55903515625,0.011418603360652924,0.026211388409137726,0.03393632546067238
1761315260376017200,3.56901708984375,0.013664761558175087,0.019404523074626923,0.028259558603167534
1761315260385999000,3.5789990234375,0.014076486229896545,0.004564592149108648,0.02343231439590454
1761315260395980000,3.58897998046875,0.012935747392475605,-0.011344768106937408,0.014204640872776508
1761315260405962200,3.598962158203125,0.009119171649217606,-0.021737221628427505,-0.0009564689826220274
1761315260415944200,3.608944091796875,0.009235727600753307,-0.013662274926900864,-0.014886761084198952
1761315260425925400,3.61892529296875,0.0014598298585042357,0.0013781944289803505,-0.023876260966062546
1761315260435907000,3.628906982421875,-0.005885344929993153,0.008827079087495804,-0.029334045946598053
1761315260445889300,3.63888916015625,-0.009782614186406136,0.014321446418762207,-0.027645602822303772
1761315260455870200,3.6488701171875,-0.010136800818145275,0.014040996320545673,-0.020313913002610207
1761315260465852000,3.658851806640625,-0.005149499513208866,0.0037420205771923065,-0.0032624914310872555
1761315260475834000,3.668834228515625,-0.005141543224453926,-0.0083538256585598,0.022388767451047897
1761315260485815000,3.67881494140625,-0.0057905553840100765,-0.021073615178465843,0.03077639453113079
1761315260495797200,3.68879736328125,-0.002595781348645687,-0.03632286190986633,0.03804154694080353
1761315260505779000,3.698779052734375,-0.0002585912588983774,-0.03822515904903412,0.025445062667131424
1761315260515760000,3.708760009765625,-0.00028315058443695307,-0.03864087164402008,0.009703326039016247
1761315260525742000,3.7187421875,-0.007290193811058998,-0.028619660064578056,-0.011384649202227592
1761315260535724300,3.728724365234375,-0.009842196479439735,-0.004720981232821941,-0.033764149993658066
1761315260545705000,3.738705078125,-0.012986058369278908,0.01330755464732647,-0.04816253110766411
1761315260555687200,3.748687255859375,-0.017486607655882835,0.013466838747262955,-0.04753036051988602
1761315260565669000,3.758669189453125,-0.017620297148823738,0.0007997793145477772,-0.0301593616604805
1761315260575650300,3.768650390625,-0.021997690200805664,-0.02678070403635502,-0.008785048499703407
1761315260585632000,3.778632080078125,-0.020376890897750854,-0.05351005122065544,0.0084016602486372
1761315260595614200,3.7886142578125,-0.019699284806847572,-0.057138148695230484,0.022641131654381752
1761315260605595100,3.79859521484375,-0.012258412316441536,-0.04310781508684158,0.02761911228299141
1761315260615577300,3.808577392578125,-0.009438611567020416,-0.023125572130084038,0.024042269214987755
1761315260625559000,3.81855908203125,-0.013963055796921253,-0.004069855902343988,0.012317435815930367
1761315260635540200,3.828540283203125,-0.018208492547273636,0.005753984674811363,0.0015472486848011613
1761315260645522200,3.838522216796875,-0.02406797930598259,-0.0031502945348620415,-0.007110687904059887
1761315260655504100,3.848504150390625,-0.03505535051226616,-0.014916636049747467,-0.010463565587997437
1761315260665485000,3.858485107421875,-0.03926980122923851,-0.02787504345178604,-0.005411016754806042
1761315260675467300,3.86846728515625,-0.041401155292987823,-0.04709770157933235,-0.0026610533241182566
1761315260685449200,3.87844921875,-0.038463689386844635,-0.07164592295885086,-0.0012631602585315704
1761315260695430100,3.88843017578125,-0.03823121637105942,-0.08234655857086182,-0.0065170759335160255
1761315260705412000,3.898412109375,-0.03944455087184906,-0.0815926194190979,-0.012401863001286983
1761315260715394600,3.90839453125,-0.031932320445775986,-0.06010168045759201,-0.02102997899055481
1761315260725375500,3.91837548828125,-0.026566848158836365,-0.02563265524804592,-0.018047239631414413
1761315260735357400,3.928357421875,-0.015486247837543488,0.014344075694680214,-0.005116003565490246
1761315260745338400,3.93833837890625,-0.0035699335858225822,0.024022003635764122,0.011135137639939785
1761315260755320600,3.948320556640625,0.006016439758241177,0.018011508509516716,0.033084437251091
1761315260765302500,3.958302490234375,0.013453849591314793,0.005286125000566244,0.05121816322207451
1761315260775284500,3.968284423828125,0.02022062987089157,-0.007495462894439697,0.06267955899238586
1761315260785265400,3.978265380859375,0.021752746775746346,-0.017220795154571533,0.06196317449212074
1761315260795247600,3.98824755859375,0.019326606765389442,-0.012650543823838234,0.061003636568784714
1761315260805229300,3.998229248046875,0.01709834113717079,-0.009486708790063858,0.05196806415915489
1761315260815210500,4.00821044921875,0.0066055902279913425,0.0003171907737851143,0.03351858630776405
1761315260825192400,4.0181923828125,0.0017197545384988189,0.008336501196026802,0.014169124886393547
1761315260835173600,4.028173583984375,-0.0025868434458971024,0.016580848023295403,0.003700504545122385
1761315260845155600,4.038155517578125,-0.006183708552271128,0.01578482985496521,-0.004469008184969425
1761315260855137500,4.048137451171875,-0.0076143923215568066,0.004035993944853544,-0.004231761675328016
1761315260865118500,4.058118408203125,-0.006176818162202835,-0.009706983342766762,0.010037455707788467
1761315260875100700,4.0681005859375,-0.0026381525676697493,-0.027673406526446342,0.022219158709049225
1761315260885082400,4.078082275390625,-0.007097882218658924,-0.046766143292188644,0.021739788353443146
1761315260895063300,4.088063232421875,-0.009418560191988945,-0.04847269505262375,0.012038691900670528
1761315260905045500,4.09804541015625,-0.013995468616485596,-0.04402494803071022,-0.0075182318687438965
1761315260915027700,4.10802783203125,-0.018548617139458656,-0.023781737312674522,-0.023506196215748787
1761315260925008600,4.118008544921875,-0.02308957278728485,-0.0028245244175195694,-0.040767740458250046
1761315260934990300,4.127990234375,-0.03521185368299484,0.023531978949904442,-0.04276415333151817
1761315260944972500,4.13797265625,-0.03527470678091049,0.03875886648893356,-0.03093385510146618
1761315260954953500,4.147953369140625,-0.03325929120182991,0.03895027935504913,-0.009330376982688904
1761315260964935400,4.157935302734375,-0.024329444393515587,0.03729965165257454,0.019926046952605247
1761315260974917400,4.16791748046875,-0.009404673241078854,0.02561824582517147,0.04365948960185051
1761315260984898600,4.177898681640625,0.010467035695910454,0.02116437628865242,0.0550953708589077
1761315260994880500,4.187880615234375,0.03175702691078186,0.027784213423728943,0.05648782476782799
1761315261004862500,4.197862548828125,0.051532596349716187,0.02974563091993332,0.05020729452371597
1761315261014843400,4.207843505859375,0.06040502339601517,0.026538459584116936,0.04280010238289833
1761315261024825600,4.21782568359375,0.05917410925030708,0.021345563232898712,0.034818608313798904
1761315261034807600,4.2278076171875,0.055555928498506546,0.015205596573650837,0.032703500241041183
1761315261044788500,4.23778857421875,0.046942196786403656,0.011608998291194439,0.03308140113949776
1761315261054770400,4.2477705078125,0.03231669217348099,0.014822114259004593,0.04087172821164131
1761315261064752600,4.257752685546875,0.01890687830746174,0.013571226969361305,0.04476766660809517
1761315261074733600,4.267733642578125,0.01510489173233509,0.020616095513105392,0.03890093415975571
1761315261084715500,4.277715576171875,0.016521161422133446,0.018950287252664566,0.029605701565742493
1761315261094697500,4.287697509765625,0.021182654425501823,0.012672148644924164,0.017727099359035492
1761315261104678700,4.2976787109375,0.025293508544564247,0.0027279043570160866,0.008139719255268574
1761315261114660600,4.30766064453125,0.0279452633112669,-0.013505648821592331,-0.00507616950199008
1761315261124642600,4.317642578125,0.029011860489845276,-0.020160622894763947,-0.006648765876889229
1761315261134623500,4.32762353515625,0.022618912160396576,-0.015453249216079712,-0.003324115416035056
1761315261144605400,4.33760546875,0.015302407555282116,-0.004329492338001728,0.010054274462163448
1761315261154587400,4.34758740234375,0.01100027933716774,0.008316535502672195,0.02426990680396557
1761315261164568300,4.357568359375,0.008917421102523804,0.0022764867171645164,0.035199251025915146
1761315261174550500,4.367550537109375,0.00834102276712656,-0.006305841263383627,0.0454387404024601
1761315261184532500,4.377532470703125,0.006452308967709541,-0.01464126817882061,0.046629972755908966
1761315261194513700,4.387513671875,0.007447119802236557,-0.030113913118839264,0.04415709897875786
1761315261204495400,4.397495361328125,0.0025064232759177685,-0.04102994501590729,0.04301194101572037
1761315261214477600,4.4074775390625,-0.0013705918099731207,-0.04011250287294388,0.041884634643793106
1761315261224458500,4.41745849609375,-0.00895287748426199,-0.030411940068006516,0.04118475690484047
1761315261234440400,4.4274404296875,-0.01526567991822958,-0.012882491573691368,0.03521203249692917
1761315261244422400,4.43742236328125,-0.02335556410253048,0.011430304497480392,0.023747926577925682
1761315261254403600,4.447403564453125,-0.027285974472761154,0.028950724750757217,0.016386568546295166
1761315261264385500,4.457385498046875,-0.03555162623524666,0.04285215958952904,0.008842898532748222
1761315261274367500,4.467367431640625,-0.035235658288002014,0.04146144166588783,0.00362081965431571
1761315261284348400,4.477348388671875,-0.033490754663944244,0.027621258050203323,-0.005078662186861038
1761315261294330600,4.48733056640625,-0.03198001906275749,-0.006626700982451439,-0.0078382957726717
1761315261304312600,4.4973125,-0.03635479509830475,-0.05319633334875107,-0.006050515454262495
1761315261314293500,4.50729345703125,-0.04067467898130417,-0.09334858506917953,-0.004799345042556524
1761315261324275500,4.517275390625,-0.0451972596347332,-0.11069561541080475,-0.004915192257612944
1761315261334256400,4.52725634765625,-0.04721275344491005,-0.09273097664117813,-0.011505193077027798
1761315261344238600,4.537238525390625,-0.046575725078582764,-0.05012199655175209,-0.02070721425116062
1761315261354220500,4.547220458984375,-0.03802228718996048,-0.005989162251353264,-0.03196956217288971
1761315261364201500,4.557201416015625,-0.028263133019208908,0.017232537269592285,-0.03969139605760574
1761315261374183400,4.567183349609375,-0.01472395658493042,0.02803211659193039,-0.03707146272063255
1761315261384165600,4.57716552734375,0.00290883332490921,0.029564235359430313,-0.01964426599442959
1761315261394146600,4.587146484375,0.019410833716392517,0.0190596841275692,-0.0020732698030769825
1761315261404128500,4.59712841796875,0.027361968532204628,0.002190689090639353,0.014825286343693733
1761315261414110500,4.6071103515625,0.03364862501621246,-0.012008486315608025,0.024870729073882103
1761315261424091600,4.617091552734375,0.04116273298859596,-0.019883187487721443,0.030530214309692383
1761315261434073300,4.6270732421875,0.04563198238611221,-0.013848699629306793,0.028056073933839798
1761315261444055600,4.6370556640625,0.04242287203669548,0.00614817813038826,0.01825644075870514
1761315261454036500,4.647036376953125,0.04008316621184349,0.016174355521798134,0.004793759435415268
1761315261464018700,4.657018798828125,0.02972799725830555,0.007658098358660936,-0.006147305015474558
1761315261474000400,4.66700048828125,0.02232612669467926,0.011522436514496803,-0.010475339367985725
1761315261483981600,4.676981689453125,0.015256231650710106,0.024701887741684914,-0.011580552905797958
1761315261493963500,4.686963623046875,0.016225608065724373,0.04043959453701973,-0.012638368643820286
1761315261503945500,4.696945556640625,0.024062491953372955,0.04421116039156914,-0.01028892770409584
1761315261513926400,4.706926513671875,0.029930468648672104,0.03959134221076965,-0.005938161164522171
1761315261523908600,4.71690869140625,0.03955273702740669,0.01941310428082943,-0.0011151765938848257
1761315261533890600,4.726890625,0.04213782027363777,0.0005888030864298344,0.008252443745732307
1761315261543871500,4.73687158203125,0.04231465607881546,-0.004611818119883537,0.016354843974113464
1761315261553853400,4.746853515625,0.033751245588064194,-0.005165934097021818,0.018696840852499008
1761315261563835600,4.756835693359375,0.02181576006114483,-0.001495299395173788,0.020718978717923164
1761315261573816600,4.766816650390625,0.005735674407333136,0.006907384842634201,0.020422352477908134
1761315261583798500,4.776798583984375,-0.007486387621611357,0.009831801988184452,0.016029736027121544
1761315261593780500,4.786780517578125,-0.013783659785985947,0.018520740792155266,0.008634468540549278
1761315261603761400,4.796761474609375,-0.016250811517238617,0.03032759763300419,-0.0015710315201431513
1761315261613743600,4.80674365234375,-0.01624421589076519,0.025151150301098824,-0.014365735463798046
1761315261623725300,4.816725341796875,-0.013484647497534752,0.018224535509943962,-0.02132883481681347
1761315261633706500,4.82670654296875,-0.005590610206127167,0.009579643607139587,-0.01661115139722824
1761315261643688400,4.8366884765625,-0.0036853845231235027,0.00034912722185254097,-0.004988316912204027
1761315261653670700,4.846670654296875,0.0010679023107513785,-0.004260492976754904,0.000849953037686646
1761315261663651600,4.856651611328125,-0.001970764482393861,-0.015424730256199837,0.007829299196600914
1761315261673633500,4.866633544921875,-0.0008127042674459517,-0.018626930192112923,0.00889707449823618
1761315261683615500,4.876615478515625,-0.0017999380361288786,-0.019681809470057487,0.004007777199149132
1761315261693596700,4.8865966796875,-0.0025823889300227165,-0.01183079183101654,0.0008220949675887823
1761315261703578400,4.896578369140625,0.003484824439510703,0.007067266386002302,0.002263131318613887
1761315261713559800,4.906559814453125,0.004939723294228315,0.01598937064409256,-0.00006259838119149208
1761315261723540700,4.916540771484375,0.004557826090604067,0.013425545766949654,0.0030264020897448063
1761315261733523000,4.92652294921875,0.010488050058484077,0.01844692975282669,0.00520769227296114
1761315261743505000,4.9365048828125,0.016247667372226715,0.01100925449281931,-0.0026555568911135197
1761315261753485800,4.94648583984375,0.017841290682554245,0.0004109577275812626,-0.011974232271313667
1761315261763467800,4.9564677734375,0.023273339495062828,0.004285324364900589,-0.0023873853497207165
1761315261773450000,4.966449951171875,0.017778964713215828,0.011265125125646591,0.011757169850170612
1761315261783431000,4.976430908203125,0.018224777653813362,0.011216655373573303,0.02321195788681507
1761315261793412900,4.986412841796875,0.010232638567686081,-0.000713961198925972,0.01960526406764984
1761315261803394800,4.996394775390625,0.0025656642392277718,-0.005385678261518478,0.012156403623521328
1761315261813376000,5.0063759765625,0.0014686058275401592,-0.0069722323678433895,0.002315366407856345
1761315261823357700,5.016357666015625,-0.004431361332535744,-0.0032091857865452766,-0.016830896958708763
1761315261833340000,5.02633984375,-0.005950696300715208,-0.0021486098412424326,-0.023970812559127808
1761315261843320800,5.03632080078125,-0.00678879301995039,0.008455565199255943,-0.025159647688269615
1761315261853303000,5.046302978515625,-0.00396730937063694,0.023463772609829903,-0.008965909481048584
1761315261863284700,5.05628466796875,0.0014141402207314968,0.02513517253100872,0.005887871608138084
1761315261873266000,5.066265869140625,0.0007027678657323122,0.01594812422990799,0.008573377504944801
1761315261883247900,5.076247802734375,0.0006553635466843843,0.004821702837944031,0.009374190121889114
1761315261893230000,5.08622998046875,0.000015538767911493778,-0.004232012666761875,-0.00400966964662075
1761315261903210800,5.096210693359375,-0.004274281207472086,-0.010480321012437344,-0.02049197256565094
1761315261913193000,5.10619287109375,-0.010066197253763676,-0.007647224236279726,-0.02854410745203495
1761315261923175000,5.1161748046875,-0.011550377123057842,-0.005614966154098511,-0.04363331198692322
1761315261933155800,5.12615576171875,-0.020613040775060654,-0.0174103993922472,-0.053568702191114426
1761315261943137800,5.1361376953125,-0.026512475684285164,-0.03052806481719017,-0.05955708399415016
1761315261953118700,5.14611865234375,-0.03111089952290058,-0.038012467324733734,-0.06492571532726288
1761315261963101000,5.156100830078125,-0.040930770337581635,-0.028083669021725655,-0.06607087701559067
1761315261973083000,5.166082763671875,-0.040922246873378754,-0.0007467418909072876,-0.05381924659013748
1761315261983064000,5.17606396484375,-0.035932548344135284,0.03516652062535286,-0.037120427936315536
1761315261993045800,5.186045654296875,-0.02338333986699581,0.05835888162255287,-0.022502481937408447
1761315262003028000,5.196028076171875,-0.0009656485635787249,0.05980391427874565,-0.004598584026098251
1761315262013009000,5.2060087890625,0.014327333308756351,0.03829517588019371,-0.004208914935588837
1761315262022990800,5.215990966796875,0.026855111122131348,0.0034146872349083424,-0.012078821659088135
1761315262032972800,5.225972900390625,0.030902964994311333,-0.02355170249938965,-0.023046139627695084
1761315262042954000,5.2359541015625,0.030800698325037956,-0.02969801053404808,-0.032855093479156494
1761315262052936000,5.24593603515625,0.02672269195318222,-0.02903245948255062,-0.03500070795416832
1761315262062918000,5.25591796875,0.016657540574669838,-0.02739168517291546,-0.03257669880986214
1761315262072898800,5.26589892578125,0.004034203477203846,-0.01410329807549715,-0.0301145538687706
1761315262082881000,5.275881103515625,-0.0024966662749648094,0.000001335982233285904,-0.025987187400460243
1761315262092862700,5.28586279296875,-0.00769471563398838,0.017923317849636078,-0.03468143939971924
1761315262102844000,5.295843994140625,-0.003756965510547161,0.02852323092520237,-0.04666806012392044
1761315262112825900,5.305825927734375,0.002333496231585741,0.02561872825026512,-0.05245797336101532
1761315262122808000,5.31580810546875,0.012014619074761868,0.020271901041269302,-0.04943714663386345
1761315262132789000,5.3257890625,0.01761752925813198,0.015758661553263664,-0.036704421043395996
1761315262142771000,5.33577099609375,0.022802438586950302,0.003619174472987652,-0.022718563675880432
1761315262152753000,5.3457529296875,0.02401319146156311,-0.010566633194684982,-0.011580068618059158
1761315262162733800,5.35573388671875,0.025322401896119118,-0.022315967828035355,-0.0028350462671369314
1761315262172715800,5.3657158203125,0.019606273621320724,-0.03115745261311531,0.0023669761139899492
1761315262182697700,5.37569775390625,0.014107910916209221,-0.03156545013189316,-0.001356389606371522
1761315262192679000,5.385678955078125,0.008950365707278252,-0.019304221495985985,-0.007828199304640293
1761315262202660900,5.395660888671875,-0.0011422161478549242,0.015915818512439728,-0.011645042337477207
1761315262212642800,5.405642822265625,-0.003079203423112631,0.04372277855873108,-0.00975610502064228
1761315262222623700,5.415623779296875,-0.0015795774525031447,0.05112876370549202,-0.006056175567209721
1761315262232606000,5.42560595703125,0.003434888320043683,0.04888744652271271,0.0075073037296533585
1761315262242588000,5.435587890625,0.007939891889691353,0.03584781289100647,0.01799616403877735
1761315262252569000,5.445569091796875,0.01760295033454895,0.023694954812526703,0.01661321148276329
1761315262262550800,5.45555078125,0.018970750272274017,0.025329072028398514,0.017976485192775726
1761315262272533000,5.465532958984375,0.02193610742688179,0.03693435341119766,0.01440485380589962
1761315262282514000,5.475513916015625,0.025950822979211807,0.03842199593782425,0.011715061031281948
1761315262292496000,5.485495849609375,0.027985861524939537,0.030773915350437164,0.01263662800192833
1761315262302477800,5.495477783203125,0.0328165702521801,0.012982135638594627,0.014386591501533985
1761315262312459000,5.505458984375,0.028693638741970062,-0.015723569318652153,0.014775848016142845
1761315262322441000,5.51544091796875,0.01834219880402088,-0.03497422859072685,0.017725300043821335
1761315262332423000,5.5254228515625,0.011027190834283829,-0.03709517419338226,0.025065932422876358
1761315262342403800,5.53540380859375,0.004190589766949415,-0.03209029510617256,0.02476739138364792
1761315262352386000,5.545385986328125,-0.005211447365581989,-0.0274670273065567,0.015299047343432903
1761315262362367700,5.55536767578125,-0.005346203688532114,-0.02113562822341919,-0.0000010794028639793396
1761315262372348700,5.5653486328125,-0.005637041293084621,-0.013503866270184517,-0.014311608858406544
1761315262382331000,5.575330810546875,-0.004820782691240311,-0.015332658775150776,-0.02796963043510914
1761315262392313000,5.58531298828125,-0.0032951857428997755,-0.021166004240512848,-0.03491340950131416
1761315262402294000,5.5952939453125,-0.0023441710509359837,-0.02677302435040474,-0.02177337370812893
1761315262412275700,5.605275634765625,-0.00033518567215651274,-0.028579115867614746,-0.003862900659441948
1761315262422258000,5.6152578125,-0.001343991025350988,-0.03538189455866814,0.004546829499304295
1761315262432238800,5.62523876953125,0.0028995699249207973,-0.055238284170627594,0.0010967532871291041
1761315262442220800,5.635220703125,0.00495899235829711,-0.056317128241062164,-0.0072876764461398125
1761315262452202800,5.64520263671875,0.006290541961789131,-0.055363789200782776,-0.014945104718208313
1761315262462184000,5.655183837890625,-0.0005362048395909369,-0.049826279282569885,-0.02154148742556572
1761315262472166000,5.665165771484375,-0.006432574708014727,-0.036267515271902084,-0.020675549283623695
1761315262482147800,5.67514794921875,-0.0075242044404149055,-0.015885546803474426,-0.012885802425444126
1761315262492128800,5.685128662109375,-0.007585457060486078,0.00238613598048687,-0.004939195699989796
1761315262502111000,5.695111083984375,-0.003716949373483658,0.015455332584679127,0.002755741821601987
1761315262512093000,5.705093017578125,-0.0004157177172601223,0.02964550256729126,0.006343805231153965
1761315262522074000,5.71507421875,0.010265156626701355,0.035454921424388885,0.0026278961449861526
1761315262532055800,5.725055908203125,0.023999301716685295,0.02726709097623825,-0.0048659988678991795
1761315262542038000,5.7350380859375,0.030243348330259323,0.0070473067462444305,-0.017101626843214035
1761315262552019000,5.74501904296875,0.028809666633605957,-0.028120804578065872,-0.02870965003967285
1761315262562001000,5.7550009765625,0.029587842524051666,-0.048651911318302155,-0.026150353252887726
1761315262571982800,5.76498291015625,0.021872542798519135,-0.05183444544672966,-0.0180323738604784
1761315262581963800,5.7749638671875,0.018504975363612175,-0.022369762882590294,-0.007717685773968697
1761315262591946000,5.784946044921875,0.016641121357679367,0.0166021641343832,0.001198674668557942
1761315262601928000,5.794927978515625,0.022144276648759842,0.03953197970986366,0.007980681024491787
1761315262611908900,5.804908935546875,0.026639841496944427,0.05260279029607773,0.004626847803592682
1761315262621890800,5.814890869140625,0.03389082849025726,0.0521942600607872,-0.0025604907423257828
1761315262631872800,5.824872802734375,0.037287186831235886,0.03482215479016304,-0.01360380370169878
1761315262641853700,5.834853759765625,0.043600473552942276,0.015409307554364204,-0.017831038683652878
1761315262651836000,5.8448359375,0.041300754994153976,0.009821410290896893,-0.009999573230743408
1761315262661817900,5.85481787109375,0.042494647204875946,0.001776267308741808,0.002224335679784417
1761315262671799000,5.864799072265625,0.03879484906792641,0.00885181874036789,0.011056849732995033
1761315262681780700,5.87478076171875,0.03922468051314354,0.008730911649763584,0.01314396969974041
1761315262691762000,5.884761962890625,0.03636864945292473,0.012324589304625988,0.01691361702978611
1761315262701743900,5.894743896484375,0.033576060086488724,0.023287758231163025,0.018848935142159462
1761315262711726000,5.90472607421875,0.02641148492693901,0.018250616267323494,0.013387978076934814
1761315262721707300,5.914707275390625,0.022459620609879494,0.021435756236314774,0.0043473453260958195
1761315262731689200,5.924689208984375,0.01900751329958439,0.029436975717544556,0.0077108051627874374
1761315262741671400,5.93467138671875,0.021224595606327057,0.024628639221191406,0.006934493780136108
1761315262751652400,5.94465234375,0.009792571887373924,0.007824582979083061,0.007119703106582165
1761315262761634300,5.95463427734375,0.000189479673281312,-0.008768774569034576,0.006866436451673508
1761315262771616300,5.9646162109375,-0.0060424902476370335,-0.018865853548049927,0.0063565392047166824
1761315262781597400,5.974597412109375,-0.009623909369111061,-0.019589168950915337,0.005281687248498201
1761315262791579100,5.9845791015625,-0.008474338799715042,-0.0005603330209851265,0.011082738637924194
1761315262801561300,5.994561279296875,-0.011425919830799103,0.017154749482870102,0.010737859643995762
1761315262811542300,6.004542236328125,-0.012460748665034771,0.022878989577293396,0.013088452629745007
1761315262821524500,6.0145244140625,-0.014931096695363522,0.021798012778162956,0.01844167336821556
1761315262831506200,6.024506103515625,-0.01539345271885395,0.022744202986359596,0.019853908568620682
1761315262841487400,6.0344873046875,-0.014734053984284401,0.015221837908029556,0.02147630602121353
1761315262851469300,6.04446923828125,-0.015104174613952637,0.01159919798374176,0.02183218114078045
1761315262861451300,6.054451171875,-0.007460103370249271,0.017100755125284195,0.0334523506462574
1761315262871432200,6.06443212890625,-0.0045623634941875935,0.01897474378347397,0.046911366283893585
1761315262881414400,6.074414306640625,-0.004667025525122881,0.009679513052105904,0.047208309173583984
1761315262891396400,6.084396240234375,-0.0029801023192703724,0.014490025117993355,0.04187222197651863
1761315262901377300,6.094377197265625,-0.007953288964927197,0.012067880481481552,0.03189602121710777
1761315262911359200,6.104359130859375,-0.012774883769452572,0.013528350740671158,0.014347708784043789
1761315262921341400,6.114341552734375,-0.0137264309450984,0.0224470105022192,0.004372839815914631
1761315262931322400,6.124322265625,-0.010779675096273422,0.021745767444372177,0.007040753960609436
1761315262941304300,6.13430419921875,-0.00997832976281643,0.003424284514039755,0.014447004534304142
1761315262951286300,6.144286376953125,-0.008438783697783947,-0.01186435017734766,0.027277566492557526
1761315262961267200,6.15426708984375,-0.004075194243341684,-0.018060993403196335,0.040035173296928406
1761315262971249400,6.16424951171875,0.0024022050201892853,-0.008174815215170383,0.046501919627189636
1761315262981231000,6.174231201171875,0.003798234276473522,0.0010663541033864021,0.03237517923116684
1761315262991212300,6.18421240234375,0.0042277430184185505,0.022962871938943863,0.019271038472652435
1761315263001194200,6.1941943359375,0.0012742973631247878,0.043616220355033875,0.0002456819638609886
1761315263011176400,6.204176513671875,0.0015179615002125502,0.045709747821092606,-0.0063600316643714905
1761315263021157400,6.214157470703125,-0.0036163467448204756,0.034641116857528687,-0.000990566797554493
1761315263031139300,6.224139404296875,-0.012425344437360764,0.024421509355306625,0.005345568992197514
1761315263041121300,6.234121337890625,-0.013442139141261578,0.023684879764914513,0.01828853227198124
1761315263051102500,6.2441025390625,-0.010326847434043884,0.029994934797286987,0.018219737336039543
1761315263061084200,6.254084228515625,-0.003068135352805257,0.028611421585083008,0.010717078112065792
1761315263071066400,6.26406640625,0.003221257124096155,0.02163364365696907,0.010983726009726524
1761315263081047300,6.27404736328125,0.0039480337873101234,0.012412449344992638,0.010801298543810844
1761315263091029500,6.284029541015625,-0.004990820307284594,-0.0002210424281656742,0.01378089189529419
1761315263101011200,6.29401123046875,-0.010661755688488483,0.006077600177377462,0.016830744221806526
1761315263110992100,6.3039921875,-0.017420560121536255,0.011315537616610527,0.015881899744272232
1761315263120974300,6.313974365234375,-0.0280377846211195,0.019127653911709785,0.014544459991157055
1761315263130956300,6.323956298828125,-0.02894527278840542,0.025026164948940277,0.011888048611581326
1761315263140937200,6.333937255859375,-0.030712546780705452,0.02089160680770874,0.008359094150364399
1761315263150919200,6.343919189453125,-0.0301397442817688,0.014404509216547012,0.0061595626175403595
1761315263160901400,6.3539013671875,-0.026640618219971657,0.02022005431354046,-0.005400953348726034
1761315263170882300,6.36388232421875,-0.02307330071926117,0.016296930611133575,-0.01799982786178589
1761315263180864300,6.3738642578125,-0.019493212923407555,-0.00026340410113334656,-0.03275081142783165
1761315263190846200,6.38384619140625,-0.021178508177399635,-0.013052450492978096,-0.03594585508108139
1761315263200827400,6.393827392578125,-0.022543111816048622,-0.014864731580018997,-0.03317004069685936
1761315263210809300,6.403809326171875,-0.02660810388624668,-0.003609558567404747,-0.027834834530949593
1761315263220791300,6.413791259765625,-0.024279436096549034,0.023740040138363838,-0.022540736943483353
1761315263230772200,6.423772216796875,-0.021808117628097534,0.047683559358119965,-0.018187671899795532
1761315263240754400,6.43375439453125,-0.010545074939727783,0.04923085868358612,-0.011697549372911453
1761315263250736000,6.443736083984375,-0.0009157388121820986,0.04553717002272606,-0.0006146326195448637
1761315263260717300,6.45371728515625,0.010480459779500961,0.030729997903108597,0.02418525516986847
1761315263270699300,6.46369921875,0.025020264089107513,0.007313125766813755,0.03700041398406029
1761315263280681500,6.473681396484375,0.03563615679740906,-0.013179631903767586,0.038909900933504105
1761315263290662400,6.483662353515625,0.036698516458272934,-0.006423411425203085,0.026322441175580025
1761315263300644400,6.493644287109375,0.04319183528423309,0.010747585445642471,0.00651358300819993
1761315263310626300,6.503626220703125,0.04237198084592819,0.020713478326797485,-0.011830924078822136
1761315263320607500,6.513607421875,0.032702576369047165,0.026780422776937485,-0.017978299409151077
1761315263330589200,6.523589111328125,0.020019203424453735,0.02328639291226864,-0.013321557082235813
1761315263340571400,6.5335712890625,0.01024140790104866,0.02148343250155449,-0.007023980841040611
1761315263350552300,6.54355224609375,0.001364199910312891,0.0244794599711895,-0.006241376046091318
1761315263360534300,6.5535341796875,-0.001470468589104712,0.02021414041519165,-0.0033212201669812202
1761315263370516200,6.56351611328125,-0.003110390156507492,0.01712975837290287,-0.008401126600801945
1761315263380497200,6.5734970703125,-0.0040906998328864574,0.014162996783852577,-0.011487996205687523
1761315263390479400,6.583479248046875,-0.00034458853770047426,0.009144440293312073,-0.023138705641031265
1761315263400461300,6.59346142578125,-0.00523441843688488,0.015140281058847904,-0.0406029187142849
1761315263410442200,6.603442138671875,-0.007809464819729328,0.028263341635465622,-0.054535798728466034
1761315263420424200,6.613424072265625,-0.01784398965537548,0.0575685016810894,-0.053591176867485046
1761315263430406400,6.623406494140625,-0.020659705623984337,0.09005934000015259,-0.03596526011824608
1761315263440387300,6.63338720703125,-0.03541175276041031,0.15077008306980133,0.10256358981132507
1761315263450369300,6.643369384765625,-0.034262754023075104,-0.029755335301160812,0.12551480531692505
1761315263460351200,6.653351318359375,0.010347327217459679,-0.1281418353319168,0.12036451697349548
1761315263470332400,6.66333251953125,0.04620366916060448,-0.09583919495344162,0.10425727069377899
1761315263480314400,6.673314453125,0.047878529876470566,-0.10351602733135223,0.06910647451877594
1761315263490296300,6.68329638671875,0.03710557520389557,-0.046801283955574036,0.017988774925470352
1761315263500277200,6.69327734375,0.0266468096524477,0.05870650336146355,-0.04381999745965004
1761315263510259500,6.703259521484375,0.009182021953165531,0.11450158059597015,-0.0934496521949768
1761315263520241200,6.7132412109375,-0.013542997650802135,0.12233366072177887,-0.12030976265668869
1761315263530222300,6.723222412109375,-0.022899722680449486,0.09885174036026001,-0.11911211907863617
1761315263540204300,6.733204345703125,-0.021271731704473495,0.06831726431846619,-0.09510452300310135
1761315263550186500,6.7431865234375,-0.010968772694468498,0.04191257432103157,-0.05036022886633873
1761315263560167400,6.75316748046875,0.008178822696208954,0.003593948669731617,0.005816490855067968
1761315263570149400,6.7631494140625,0.03552908077836037,-0.046378977596759796,0.044806353747844696
