time,seconds_elapsed,z,y,x
1761315746349136400,0.074136474609375,-0.14236556693017482,-1.3740116406887768,0.16657328526321796
1761315746359119400,0.084119384765625,-0.42121874866783615,-1.3015277114972472,0.1361876089476049
1761315746369101300,0.094101318359375,-0.9555138414174318,-1.0856754680737852,0.07017156059592962
1761315746379083500,0.10408349609375,-1.5591607028126715,-0.754989807768166,-0.0482580541472882
1761315746389065200,0.114065185546875,-2.0541186414301396,-0.3959788012102246,-0.12257877031192183
1761315746399048400,0.12404833984375,-2.327512388718128,-0.09285013313293457,-0.09531564646363258
1761315746409030400,0.134030517578125,-2.36001589743793,0.06668284169733524,0.17779307333789765
1761315746419012400,0.144012451171875,-2.127197321644425,0.1497892871901393,0.5103440891239792
1761315746428994300,0.153994384765625,-1.6528069547593593,0.23524024998247622,0.7317662416342645
1761315746438976300,0.163976318359375,-1.071905009135604,0.2995677607253194,0.7687666233818977
1761315746448959200,0.173959228515625,-0.49509237865209577,0.3507426521673798,0.7262422905810176
1761315746458941400,0.18394140625,-0.05082184022068977,0.37935207605808974,0.6913459684405475
1761315746468923400,0.19392333984375,0.2813309700280428,0.41896717034876346,0.7178623655747621
1761315746478905300,0.2039052734375,0.5627390969455242,0.5146069342002272,0.8015747410714625
1761315746488888300,0.213888427734375,0.7678320459455251,0.6052043199703097,0.8646389538802206
1761315746498870300,0.223870361328125,0.8699152868479489,0.652851037286222,0.9478429414633661
1761315746508852500,0.2338525390625,0.9095353495746851,0.6725406571403145,1.0859336806185542
1761315746518834400,0.24383447265625,0.9787462484449148,0.7469166836887597,1.2000257776141166
1761315746528817400,0.2538173828125,1.0418459709584713,0.8835445837497711,1.2493977112874388
1761315746538799400,0.26379931640625,0.9944868384122848,0.9724529935196041,1.2613140667915343
1761315746548781300,0.27378125,0.8575742761909961,0.9715107442334294,1.1662059986639768
1761315746558763300,0.28376318359375,0.6998597489595413,0.9306114553511142,0.976128321031481
1761315746568745500,0.293745361328125,0.5611246474862098,0.9284747355833649,0.7031845094680785
1761315746578728400,0.303728515625,0.4355588241875171,0.9247881560251117,0.38777357518374916
1761315746588710400,0.31371044921875,0.28290274938941,0.9507532028868794,0.11725552946254611
1761315746598692400,0.3236923828125,0.06727613141536712,1.0130094603136182,-0.07161423368491232
1761315746608674300,0.33367431640625,-0.24819267053604124,1.1320526038452983,-0.12742146110273897
1761315746618657300,0.3436572265625,-0.6663958707749843,1.350778941400349,-0.0658292205426842
1761315746628639500,0.353639404296875,-1.1162176135927437,1.6097744532406328,0.05172222312651574
1761315746638621400,0.363621337890625,-1.4493933371484278,1.8998045702919364,0.2684012727629393
1761315746648603400,0.373603271484375,-1.5664415074706077,2.178114731194079,0.5264797428235412
1761315746658585300,0.38358544921875,-1.5101584792345761,2.354277353785932,0.8188347226258367
1761315746668568300,0.393568359375,-1.2647124770581721,2.3984154784590004,1.0509182621430606
1761315746678550500,0.403550537109375,-0.8592571147114038,2.334526651394367,1.1694083018366246
1761315746688532500,0.413532470703125,-0.4121189118891954,2.1562392917335034,1.113382024840638
1761315746698514400,0.423514404296875,0.044290392625331874,1.8884902723342178,1.0093703000936656
1761315746708497400,0.433497314453125,0.49898237182795996,1.5816960674867033,0.9028406742416322
1761315746718479400,0.443479248046875,0.8816279364734888,1.3316121763765811,0.8382642302390187
1761315746728461300,0.45346142578125,1.2139297998040914,1.1406997284203768,0.7919455466564744
1761315746738443300,0.463443359375,1.502605287376046,1.0018526910051704,0.7097100387793034
1761315746748425500,0.473425537109375,1.6934364867895841,0.8145914590328931,0.5699732859827578
1761315746758408200,0.483408203125,1.7534984490424395,0.6336778425216675,0.4091125696800649
1761315746768390400,0.493390380859375,1.7783949898898601,0.46977235169559717,0.30391448469273746
1761315746778372400,0.503372314453125,1.7316922754257917,0.3342506593108177,0.17107121773697434
1761315746788354300,0.513354248046875,1.6118746403902768,0.1898740448191762,0.019267741180211306
1761315746798337500,0.523337646484375,1.5287345848888159,0.07062690314799547,-0.05814224623665213
1761315746808319200,0.5333193359375,1.420932966339588,-0.00013385551273822782,-0.06033288814872503
1761315746818301400,0.543301513671875,1.3224784373283385,-0.03983107512891292,-0.016268267103284596
1761315746828283400,0.553283447265625,1.218331834155321,-0.07706921115517616,0.06489683506339788
1761315746838265300,0.563265380859375,1.1204273402422666,-0.12472118916809558,0.14435659461691974
1761315746848248600,0.57324853515625,0.9940385101228952,-0.1754758093714714,0.23435791418999433
1761315746858230300,0.583230224609375,0.9019535161435603,-0.21730945649445055,0.34045134058184917
1761315746868212500,0.59321240234375,0.80064710483253,-0.2244961531281471,0.43766555067580193
1761315746878194400,0.6031943359375,0.7322434306919574,-0.25787615242153406,0.5536551518557593
1761315746888177400,0.613177490234375,0.6600310119181871,-0.30810674875080585,0.6318694779254496
1761315746898159400,0.623159423828125,0.6265764860838652,-0.36804186975359915,0.6735941117160021
1761315746908141300,0.633141357421875,0.6617424920111894,-0.46700201019942755,0.6891036694064736
1761315746918123500,0.64312353515625,0.7354588856071234,-0.5542334266677499,0.6437568995960057
1761315746928105500,0.65310546875,0.7480272752791642,-0.6611749212563037,0.5735785439331084
1761315746938088400,0.66308837890625,0.6504162113547325,-0.7950809951379895,0.48506658613495524
1761315746948070400,0.6730703125,0.5349959344953298,-0.8943404107913374,0.42362675965763624
1761315746958052400,0.68305224609375,0.4574509225219488,-0.9542737782284617,0.369853339622356
1761315746968034300,0.693034423828125,0.3902472718209028,-1.00544370123446,0.3425922981332987
1761315746978017300,0.703017333984375,0.30230653803944585,-1.037659332923591,0.2751813065581955
1761315746987999500,0.71299951171875,0.14180559495985506,-1.1137909709677098,0.19334442434348165
1761315746997981200,0.722981201171875,0.008325929796695709,-1.192123041665554,0.1314294363687746
1761315747007963400,0.73296337890625,-0.11285247219800948,-1.262792030389607,0.11286880227830261
1761315747017945300,0.7429453125,-0.24519524228572845,-1.3596101903706788,0.11386860870430246
1761315747027928300,0.75292822265625,-0.36856735493242737,-1.4219620171263814,0.1604638624722138
1761315747037910500,0.76291064453125,-0.4300216483265161,-1.4606965291902423,0.2248559994164854
1761315747047892200,0.772892333984375,-0.4328869746297598,-1.4782958987668156,0.27730896623665463
1761315747057874400,0.78287451171875,-0.38263738133907316,-1.5021417615175245,0.3326258345879614
1761315747067857200,0.792857177734375,-0.291422155931592,-1.5808309750899672,0.39879758495800194
1761315747077839400,0.80283935546875,-0.1934270611256361,-1.654864764072001,0.45928208347186444
1761315747087821600,0.812821533203125,-0.16235270842611788,-1.71068602001518,0.48568307406548406
1761315747097803300,0.82280322265625,-0.2329372337371111,-1.7707623030543327,0.4761941649040207
1761315747107785500,0.832785400390625,-0.36741935394108294,-1.7648124547392128,0.48433966009989377
1761315747117768200,0.842768310546875,-0.5587134946912526,-1.7138368852615355,0.5035619181705638
1761315747127750400,0.85275048828125,-0.8095423589497804,-1.6778212767675518,0.5476890465255826
1761315747137732400,0.862732421875,-1.1008446878939866,-1.7008038006871937,0.6992742772217839
1761315747147714300,0.87271435546875,-1.275882105848193,-1.8305290817528963,1.060196158902347
1761315747157697500,0.882697509765625,-1.2101853525787591,-2.011602857261896,1.4718832552455365
1761315747167679200,0.89267919921875,-0.9010042525947094,-2.0352283552601933,1.7064342077895998
1761315747177661400,0.902661376953125,-0.6600397797465324,-1.9473817295029758,1.7934151566281913
1761315747187643600,0.9126435546875,-0.6548042171806097,-1.8925906933903693,1.842074704248458
1761315747197626400,0.92262646484375,-0.8026894243150949,-1.7507453509420154,1.683813210658729
1761315747207608600,0.932608642578125,-1.1923480825930832,-1.494330210983753,1.3179220891982317
1761315747217590300,0.94259033203125,-1.9191215574413536,-1.2616072045192122,0.9071040307745337
1761315747227572500,0.952572509765625,-2.7872341787815094,-0.9645946812346577,0.5823951067909598
1761315747237554400,0.962554443359375,-3.3490076455652713,-0.502182629173994,0.4203352072989568
1761315747247537400,0.972537353515625,-3.6096547240048644,-0.07644289595037698,0.42659043176881967
1761315747257519400,0.982519287109375,-3.633977264356613,0.328565599411726,0.5247536862159148
1761315747267501300,0.992501220703125,-3.462040735027194,0.7103188913926481,0.6553185964435339
1761315747277483500,1.0024833984375,-3.0635359224706886,1.0545125603079795,0.9119096044253557
1761315747287466500,1.012466552734375,-2.5430443141460417,1.3647601204797626,1.2211645733632146
1761315747297448400,1.022448486328125,-1.963001031178236,1.6506325333297251,1.429193868076056
1761315747307430400,1.032430419921875,-1.2866747180193663,1.9089540914312004,1.5481018409207463
1761315747317412400,1.042412353515625,-0.5274930115193128,2.0577286486208437,1.5953636505723
1761315747327394600,1.05239453125,0.21156652892827987,2.0536703131407497,1.6183622488439082
1761315747337377300,1.062377197265625,0.949729997318983,1.9543498149499297,1.7008958628848194
1761315747347359500,1.072359375,1.6497130803972482,1.8131930392876265,1.7872937511384486
1761315747357341400,1.082341552734375,2.21943136870563,1.6622846849396824,1.8982523724138736
1761315747367323400,1.092323486328125,2.538291566661,1.4701044090047477,2.015775174510479
1761315747377305600,1.1023056640625,2.496581253656745,1.2106421564355492,2.156005044586211
1761315747387288300,1.112288330078125,2.280913134628534,0.9721320910021662,2.2898909524627027
1761315747397270500,1.1222705078125,1.892917441126704,0.8099003786072134,2.4192735575705764
1761315747407252200,1.132252197265625,1.313253512865305,0.7495856106370687,2.363913051006943
1761315747417234400,1.142234375,0.6383265451103448,0.7932794986739754,2.1839476751312614
1761315747427217400,1.152217529296875,0.022969372177124022,0.8771706648036837,1.9972699421353637
1761315747437199400,1.162199462890625,-0.48198564431965346,0.9114309540629386,1.8479492953702807
1761315747447181600,1.172181640625,-0.8680226049691439,0.9842673499539494,1.724082384943962
1761315747457163300,1.182163330078125,-1.132204287275672,1.1506205261930822,1.6178341333165764
1761315747467145500,1.1921455078125,-1.29149819265306,1.3421435072630643,1.6287660078279673
1761315747477128400,1.20212841796875,-1.3541782284498214,1.5463517823830246,1.7264555438160896
1761315747487110400,1.2121103515625,-1.256038756737113,1.7472686147421597,1.835822511985898
1761315747497092600,1.222092529296875,-1.087774193918705,1.9153920155242083,1.9118404605224728
1761315747507074300,1.23207421875,-0.8658113586604594,2.0268927808523176,1.9717394872985778
1761315747517057500,1.2420576171875,-0.6365560283064842,2.033686678776145,1.9894585377320646
1761315747527039500,1.25203955078125,-0.4582739293426275,1.9903329824790357,1.9541054848000405
1761315747537021400,1.262021484375,-0.32374212477803227,1.9253081371217966,1.8880311303898691
1761315747547003400,1.27200341796875,-0.19854864192306995,1.839335780803859,1.8476666790366172
1761315747556985300,1.2819853515625,-0.09159458011388778,1.7496017338648437,1.8151489956609903
1761315747566968300,1.29196826171875,0.068358081433177,1.6705486554160713,1.789943096603453
1761315747576950300,1.3019501953125,0.25771219403147694,1.6177312574639915,1.796241612225771
1761315747586932500,1.311932373046875,0.4638263027727604,1.5577064123511313,1.767100857937336
1761315747596914400,1.32191455078125,0.596598696449399,1.4983251258388162,1.6974895615726708
1761315747606897400,1.3318974609375,0.6588941168427467,1.4426973466411233,1.6466868644438684
1761315747616879400,1.34187939453125,0.7194236966073513,1.3869421416714787,1.6198158086530863
1761315747626861300,1.351861328125,0.6304606340408325,1.3413994108974934,1.5992086355626582
1761315747636843500,1.361843505859375,0.46355625365972514,1.358933021761477,1.615702966506779
1761315747646825200,1.3718251953125,0.2805325131267309,1.4432538114801048,1.6288794050745665
1761315747656808400,1.381808349609375,0.09037526745200157,1.5215508108645677,1.6605533311024308
1761315747666790400,1.391790283203125,-0.0962730933189392,1.5178373432993888,1.678416027790308
1761315747676772400,1.4017724609375,-0.26025544877350326,1.4893112137779592,1.6235516341805458
1761315747686754600,1.411754638671875,-0.39046354492008684,1.4801535093322395,1.5490841299563645
1761315747696737500,1.421737548828125,-0.5034650701999664,1.4630068519592285,1.4837041875511408
1761315747706719500,1.431719482421875,-0.6105453887373209,1.4267220711350441,1.388055071349442
1761315747716701400,1.441701416015625,-0.7236836921393871,1.349879946734011,1.2744890440545975
1761315747726683400,1.451683349609375,-0.8273451421439647,1.2219924024894833,1.0954407830238342
1761315747736665600,1.46166552734375,-0.8881465245872735,1.1047788124725222,0.8976061345890164
1761315747746648300,1.4716484375,-0.8498831371665,1.0075146622896194,0.6768639271669089
1761315747756630500,1.481630615234375,-0.7299971130698919,0.9063619802355766,0.4857595733677968
1761315747766612500,1.491612548828125,-0.5853817213863134,0.7168997310876846,0.31511231666393574
1761315747776594400,1.501594482421875,-0.4312859691739082,0.4946382051438093,0.19816125004068016
1761315747786577400,1.511577392578125,-0.2651373755961656,0.308419760222733,0.11612166659440845
1761315747796559400,1.521559326171875,-0.07287818920612335,0.10900836399048566,0.011326974776200949
1761315747806541600,1.53154150390625,0.11531973909437655,-0.0958005073711276,-0.08625106366146355
1761315747816523300,1.541523193359375,0.20333938333094118,-0.27416531618237494,-0.20611586230695247
1761315747826505500,1.55150537109375,0.2185270155906677,-0.4379962804675102,-0.35129071450419724
1761315747836488400,1.561488525390625,0.1368418350726366,-0.588715249723196,-0.45424416236989196
1761315747846470400,1.571470458984375,-0.07549684727191924,-0.6867176510527729,-0.5339484712690115
1761315747856452400,1.581452392578125,-0.3858165958970785,-0.7239072717621922,-0.5838322634546086
1761315747866434300,1.591434326171875,-0.7937485774904489,-0.7053142149731516,-0.5911888732951134
1761315747876417300,1.601417236328125,-1.258008010983467,-0.7346756262749433,-0.4971138380097225
1761315747886399500,1.6113994140625,-1.5601123044490812,-0.8723559579983353,-0.31737441637702285
1761315747896381400,1.62138134765625,-1.5368103393167256,-1.052906001894176,-0.24207236102484164
1761315747906363400,1.63136328125,-1.2892536285966634,-1.1852867659047246,-0.39563002430517225
1761315747916345300,1.641345458984375,-1.111298861891031,-1.26735539278239,-0.6826458715692162
1761315747926328300,1.651328369140625,-1.1847779395997524,-1.295356621646881,-0.976960095680505
1761315747936310500,1.661310546875,-1.5163082340359686,-1.1623366829499602,-1.2038532269477844
1761315747946292500,1.67129248046875,-1.9839368517011402,-0.8444234104558825,-1.370034115359932
1761315747956274400,1.6812744140625,-2.4721534993648526,-0.44342298169136046,-1.3954999805279076
1761315747966257400,1.69125732421875,-2.7985060989022252,-0.05780278514921665,-1.2853748874671755
1761315747976239400,1.7012392578125,-2.9657021557062864,0.26515081959962844,-1.0168287263408302
1761315747986221300,1.71122119140625,-2.9095781174242497,0.4712777878224849,-0.6972362685881555
1761315747996203500,1.72120361328125,-2.7350550787329673,0.5464657152757049,-0.36599359545428306
1761315748006185500,1.731185546875,-2.4305548300415274,0.5233259549677372,-0.19392353940568863
1761315748016168400,1.74116845703125,-2.0224434002280236,0.4718623097121715,-0.16254874245487153
1761315748026150400,1.751150390625,-1.5326491279840468,0.45359161674529314,-0.20722568671237676
1761315748036132400,1.76113232421875,-1.002834395518899,0.4450122967094183,-0.2844586005292833
1761315748046114600,1.771114501953125,-0.4951332951843738,0.39011166274249554,-0.38638204776011403
1761315748056097500,1.78109765625,-0.11376491086781024,0.3537923951268196,-0.4817614801749587
1761315748066079500,1.79107958984375,0.20547055014073848,0.3371902198940515,-0.6022891997085884
1761315748076061400,1.8010615234375,0.47777708671391006,0.3364557681396603,-0.7130179942835122
1761315748086043400,1.81104345703125,0.7462514977782965,0.34203824444711206,-0.7569207027655095
1761315748096025300,1.821025390625,1.0117466007709504,0.3191740862101316,-0.7809132074452936
1761315748106008600,1.831008544921875,1.2161802090793847,0.2993880202442407,-0.842095990421623
1761315748115990500,1.840990478515625,1.3117366785615683,0.277136148686707,-0.9496714720647782
1761315748125972500,1.850972412109375,1.325000649282336,0.28701164601296186,-1.0645403986517339
1761315748135954400,1.860954345703125,1.3003180434465407,0.3055073799073696,-1.1987885639693587
1761315748145936400,1.870936279296875,1.2042132924318314,0.30856793652176856,-1.2990173361115156
1761315748155919400,1.88091943359375,1.059084690529108,0.3314785642489791,-1.3835903470255433
1761315748165901300,1.8909013671875,0.9166384595781564,0.3732373925700784,-1.475403246065229
1761315748175883500,1.900883544921875,0.7674258032321929,0.4393520789906382,-1.5837090147443116
1761315748185866000,1.910865966796875,0.642557899069786,0.48751551365703344,-1.6156965367659926
1761315748195848700,1.9208486328125,0.5176373879373073,0.5942024489626289,-1.4966506167553364
1761315748205831000,1.930830810546875,0.4490817381054163,0.7800193273454904,-1.274811554007232
1761315748215812600,1.9408125,0.4037310227721929,1.0056380547627806,-0.9582432663813233
1761315748225794800,1.950794921875,0.3402314872860908,1.2287409999668597,-0.6083520434115082
1761315748235777000,1.960777099609375,0.2981277910500765,1.384203948879242,-0.30357147994134576
1761315748245759700,1.970759765625,0.37206747200787066,1.482220963256061,-0.040084355770237744
1761315748255742000,1.980741943359375,0.5284674095094204,1.5064359515801071,0.14498641695305703
1761315748265723600,1.9907236328125,0.7679056957036257,1.4403247722908854,0.22949184252358973
1761315748275705900,2.000705810546875,1.0686690959542988,1.3107359770864246,0.26105885584456845
1761315748285688800,2.010688720703125,1.3800731326848268,1.1874170559316872,0.23777086443863807
1761315748295670800,2.0206708984375,1.6630886947989463,1.045555931392312,0.1762049638962373
1761315748305652700,2.03065283203125,1.835842970252037,0.8748676485583186,0.10651658370736986
1761315748315634700,2.040634765625,1.9415280350387096,0.7172393383055925,-0.0078597187907435
1761315748325617000,2.050616943359375,1.9898025288641452,0.6047925242990255,-0.1394403636658564
1761315748335599900,2.060599853515625,1.999330820187926,0.5084425663515925,-0.2567222879449837
1761315748345581800,2.070581787109375,1.949818893522024,0.4190013648793101,-0.286270399191603
1761315748355563800,2.080563720703125,1.843414866811037,0.3399488709524274,-0.23589754484742878
1761315748365545700,2.090545654296875,1.7336211976617573,0.3237786573961377,-0.13894470736971123
1761315748375528700,2.10052880859375,1.5993816540420054,0.3316396000295877,-0.02175810125779826
1761315748385510700,2.1105107421875,1.5001462037861346,0.3610793372645974,0.0789423389501404
1761315748395492900,2.120492919921875,1.3739502658903597,0.33961277086585756,0.12399652815535664
1761315748405474800,2.130474853515625,1.2476894460648298,0.2409729484155774,0.12653038488137536
1761315748415456800,2.140456787109375,1.168478546705842,0.13458441153466702,0.1311666663798969
1761315748425439700,2.150439697265625,1.1599790139079094,0.041299394115805625,0.1743172869861126
1761315748435421700,2.160421630859375,1.2051865213781594,-0.0800344907015562,0.24042099535493178
1761315748445404000,2.17040380859375,1.2386919006168842,-0.2060647166416049,0.2640268753373064
1761315748455385600,2.180385498046875,1.2064999420642852,-0.31777532532811165,0.2629706077500246
1761315748465368800,2.190368896484375,1.0836100599765777,-0.41179888615459204,0.2823228671422228
1761315748475350800,2.200350830078125,0.8569055831491946,-0.5319917842432856,0.29750374086759984
1761315748485332700,2.210332763671875,0.559876693251729,-0.643762890945375,0.29727216060142964
1761315748495315000,2.22031494140625,0.2357680732488632,-0.7339718619197607,0.3170581169694662
1761315748505296600,2.230296630859375,-0.050343701314926145,-0.8764373820930719,0.3175469599323347
1761315748515280000,2.24027978515625,-0.2505067926973104,-1.0427663006737828,0.34549850443620234
1761315748525261800,2.25026171875,-0.3584188858836889,-1.1611248229421673,0.3913589593898505
1761315748535243800,2.260243896484375,-0.40134558894038197,-1.2741697489723562,0.4218461233185604
1761315748545226000,2.27022607421875,-0.40963410933613775,-1.3809564913906156,0.4378410168405622
1761315748555207700,2.280207763671875,-0.433871309491992,-1.486669174836576,0.3939879561865702
1761315748565191000,2.29019091796875,-0.47967795189917084,-1.6129101209178567,0.3385147099634632
1761315748575172900,2.3001728515625,-0.548127218747139,-1.7487255355522036,0.31520291755683716
1761315748585154800,2.31015478515625,-0.6345183849990368,-1.8612462915778158,0.31690712765883655
1761315748595136800,2.32013671875,-0.7272545363634825,-1.9320251704171298,0.3343852089432999
1761315748605119700,2.33011962890625,-0.8605623520910739,-1.9521533278189598,0.3964540540391579
1761315748615101700,2.340101806640625,-1.0711159045845269,-1.90372831960693,0.45436884819548573
1761315748625083600,2.350083740234375,-1.3426561329603195,-1.8266620310612023,0.5308203658437356
1761315748635065900,2.36006591796875,-1.583610084414482,-1.7333965951256454,0.5764025153126567
1761315748645047800,2.3700478515625,-1.7970348084300756,-1.6786305473238228,0.6300816446606069
1761315748655030800,2.38003076171875,-1.9482927068680524,-1.6104362781502306,0.7113865206241607
1761315748665012700,2.3900126953125,-2.0558681154459713,-1.5125918438613415,0.848405685025081
1761315748674994700,2.39999462890625,-2.1026485713213683,-1.5260836319886146,1.099496999612078
1761315748684977000,2.409976806640625,-1.9220786536812782,-1.7055077405944465,1.4108299438677727
1761315748694959900,2.4199599609375,-1.4978823505073784,-1.8735526693128048,1.5786983469754456
1761315748704941800,2.42994189453125,-1.0228332274526357,-1.993678201253712,1.5792060042366385
1761315748714923800,2.439923828125,-0.7432365338712931,-2.0833364064775406,1.5458952707871794
1761315748724905700,2.44990576171875,-0.8253057452708482,-2.0750315194688738,1.5132850868225096
1761315748734888000,2.459887939453125,-1.2333867799460887,-1.9036625608943403,1.3769550006642937
1761315748744871000,2.469870849609375,-1.9225848496377467,-1.5932595178999005,1.209382657893747
1761315748754852900,2.479852783203125,-2.644170692715049,-1.210678104531765,1.058089030555263
1761315748764834800,2.489834716796875,-3.091894586470723,-0.7652440752789378,0.9215914788756518
1761315748774816800,2.499816650390625,-3.31376097561717,-0.37149011051133274,0.9304584567464887
1761315748784799700,2.5097998046875,-3.354357189899683,-0.10216083618327974,0.9523284893795847
1761315748794781700,2.51978173828125,-3.235615075141191,0.17841653899848461,0.9789427939303219
1761315748804764000,2.529763916015625,-2.9051451034128664,0.46351212225705385,0.9798054751742631
1761315748814745900,2.539745849609375,-2.439603813415766,0.6575418254509567,1.002244247606024
1761315748824727800,2.549727783203125,-1.8865286168724298,0.7797016396984457,1.0355562231644988
1761315748834710800,2.559710693359375,-1.3539040876835584,0.9060846245989203,1.0557299002084881
1761315748844692700,2.569692626953125,-0.8703080855578184,1.0459523833639919,1.061075791281089
1761315748854675000,2.579675048828125,-0.43026831656396386,1.127991053494811,1.0539883172381668
1761315748864656600,2.58965673828125,-0.0010579846203327178,1.153265780004859,1.0696369180731475
1761315748874638800,2.599638916015625,0.48616497583091256,1.1513137691542505,1.1100524420265108
1761315748884621800,2.609621826171875,0.9951450100600718,1.1103466757327318,1.1670182648949325
1761315748894603800,2.619603759765625,1.4684528424054384,1.0209320700064302,1.2063481855686753
1761315748904585700,2.629585693359375,1.8194418705493212,0.8933195433109998,1.1919378943569958
1761315748914567700,2.639567626953125,2.0230267530739305,0.7559133523538708,1.20571273720935
1761315748924550700,2.649550537109375,2.1428245143651963,0.6779872321084142,1.2588462153732776
1761315748934532900,2.659532958984375,2.1523370235979558,0.6431444667860865,1.3213915188744663
1761315748944514800,2.669514892578125,2.0347797347098586,0.6602692045882343,1.3359842539809643
1761315748954496800,2.679496826171875,1.7749398809999226,0.7137792609795928,1.299114512875676
1761315748964478700,2.689478759765625,1.3669108687728642,0.7984156925186514,1.2087121382210404
1761315748974461700,2.699461669921875,0.908446385294199,0.9390534127429128,1.0915378573011607
1761315748984444000,2.70944384765625,0.46949499605894085,1.121601644718647,1.0216536622792483
1761315748994425900,2.71942578125,0.08458207100331783,1.310024906207621,1.015307873449102
1761315749004407800,2.72940771484375,-0.27157003899216653,1.4839210451722145,1.0912276953734457
1761315749014390800,2.739390869140625,-0.6454957060873509,1.6435416982859372,1.2108246003303675
1761315749024372700,2.749372802734375,-0.970802595964074,1.76618871152848,1.2999031790353357
1761315749034354700,2.759354736328125,-1.178109129360318,1.9271373983755706,1.352385207553208
1761315749044337000,2.7693369140625,-1.2793851455330847,2.070924522541463,1.4433528879404067
1761315749054318800,2.77931884765625,-1.1805477546840906,2.157496598318219,1.4646267082460225
1761315749064301800,2.7893017578125,-0.9265595496118069,2.1458821483701467,1.4372725451134145
1761315749074283800,2.79928369140625,-0.48238253468275066,2.033433288536966,1.3731016862370073
1761315749084265700,2.809265625,0.051857028487324715,1.8817007583245633,1.2648723437950014
1761315749094248000,2.819248046875,0.5456096829682588,1.7260320577070116,1.1320569146942348
1761315749104231000,2.82923095703125,0.8900608337759971,1.5707047178730367,0.9755842772826552
1761315749114212900,2.839212890625,1.1175181747972964,1.4405772857472299,0.8394552666544913
1761315749124194800,2.84919482421875,1.2390496280133723,1.3325573482722044,0.7268652447849512
1761315749134176800,2.8591767578125,1.2896318142592906,1.2185782101318239,0.6508335599839687
1761315749144158700,2.86915869140625,1.3283102122217416,1.1286731905400753,0.6116158675130456
1761315749154142000,2.879141845703125,1.348610072928667,1.0919307290762663,0.5846859576744958
1761315749164123600,2.88912353515625,1.333811147725582,1.055533720049262,0.556650826540403
1761315749174105900,2.89910595703125,1.2653981212347745,0.9958943671226501,0.5093517170857638
1761315749184087300,2.90908740234375,1.2019260582774878,0.9293392434582114,0.4794181319192052
1761315749194070000,2.919070068359375,1.1600924111545086,0.8451794895201921,0.43242111068367955
1761315749204052200,2.92905224609375,1.0881558867126702,0.7562000603407621,0.4139575985584408
1761315749214034200,2.9390341796875,0.9835305601119995,0.6501011540561914,0.3774064218830317
1761315749224016100,2.94901611328125,0.9499357490241527,0.5383990209370851,0.2867804676055908
1761315749233998000,2.958998046875,0.9418319375455378,0.4379267223626375,0.25061883823703973
1761315749243981000,2.96898095703125,0.8803495871007442,0.3408943351089954,0.2851399703895673
1761315749253963300,2.97896337890625,0.7291454646766186,0.2187348131224513,0.3468823234774172
1761315749263945200,2.9889453125,0.5249205306828022,0.14656360314190386,0.3706466819571331
1761315749273927200,2.99892724609375,0.29245968228578567,0.07705167549848556,0.3416057713139802
1761315749283910400,3.008910400390625,0.07670271593034267,-0.027984569990634915,0.3102916185092181
1761315749293892000,3.01889208984375,-0.11771569432020186,-0.2013911718726158,0.29407267044037577
1761315749303874300,3.028874267578125,-0.2818617159038782,-0.389597868001461,0.23343109993496908
1761315749313856000,3.03885595703125,-0.41103696187138555,-0.5217071215942501,0.11361162000223994
1761315749323838200,3.048838134765625,-0.588724602073431,-0.6404834308832883,-0.016414361043088136
1761315749333821200,3.0588212890625,-0.8276198674321175,-0.7259492989838123,-0.15082798258811234
1761315749343803100,3.06880322265625,-1.1005898363500832,-0.7262655253261328,-0.25024867148408664
1761315749353785300,3.078785400390625,-1.380438458865881,-0.6617804859340191,-0.3018065526280552
1761315749363767000,3.08876708984375,-1.6537123791664838,-0.5729603389695287,-0.34853063867371525
1761315749373750300,3.098750244140625,-1.925904349449277,-0.4925432786911726,-0.33163218390811233
1761315749383732000,3.10873193359375,-2.200603918638825,-0.43482904860824345,-0.20407449267245828
1761315749393714200,3.118714111328125,-2.418002222460508,-0.5001444013446569,0.022356939367204905
1761315749403696000,3.128696044921875,-2.414505612516403,-0.6973270156115293,0.2511425698501989
1761315749413678000,3.138677978515625,-2.032608820411563,-0.8321513733819127,0.3305354747125879
1761315749423661300,3.148661376953125,-1.517811039814353,-0.8404366789072751,0.196386751181446
1761315749433643000,3.15864306640625,-1.235872167021036,-0.8308239241704344,-0.008954327360726893
1761315749443625200,3.168625244140625,-1.3324936353862284,-0.8027528449401259,-0.14367818389870227
1761315749453607200,3.178607177734375,-1.7044249137938021,-0.6425853715986013,-0.2659679446687922
1761315749463590100,3.188590087890625,-2.1377117013961073,-0.38784956302940843,-0.36490075871627775
1761315749473572400,3.198572265625,-2.4017110128730534,-0.120962421156466,-0.3245174199994653
1761315749483554000,3.208553955078125,-2.4173376210719346,0.0899117415934801,-0.12176058579683303
1761315749493536300,3.218536376953125,-2.2594407230108975,0.20339432838857172,0.09071450934372842
1761315749503518200,3.228518310546875,-1.9830992318332195,0.23440058428794144,0.23709493793845177
1761315749513501200,3.238501220703125,-1.7057891878843308,0.2607084532380104,0.25190106006730345
1761315749523483400,3.2484833984375,-1.4807131890416145,0.28026187949180603,0.1903648605434224
1761315749533465000,3.258465087890625,-1.3453776668787,0.2834945778027177,0.0748302365893498
1761315749543447300,3.268447265625,-1.2254290989398955,0.31640929767191406,-0.07944430625606327
1761315749553430000,3.278429931640625,-1.07181908441782,0.38332857847362756,-0.2553166771970689
1761315749563412200,3.288412109375,-0.8096919965535402,0.45544688922315835,-0.3540171803260222
1761315749573394200,3.298394287109375,-0.4652379231363535,0.5590548554748297,-0.38323954848330466
1761315749583376100,3.308376220703125,-0.05924187804162502,0.6512070694714784,-0.34367315217256544
1761315749593358300,3.3183583984375,0.35916648938059803,0.7005053533867001,-0.31495887966789304
1761315749603341000,3.328341064453125,0.7071072358697652,0.7045677805200219,-0.317557810119912
1761315749613323300,3.3383232421875,0.947078021505475,0.6999468427211046,-0.337472507434152
1761315749623305000,3.348304931640625,1.0446487534195183,0.701874303652346,-0.3433339468134567
1761315749633287200,3.358287109375,1.0257955843895674,0.70111179484725,-0.33776078632362183
1761315749643269000,3.36826904296875,0.9548796351671218,0.7021209718897938,-0.37225053695719684
1761315749653252000,3.378252197265625,0.8822253178447484,0.7129363804146647,-0.4304114513617009
1761315749663234300,3.388234375,0.8993588234752417,0.691913466130197,-0.5365341403806582
1761315749673216000,3.398216064453125,0.978079893490672,0.6495522880017757,-0.6337558761939406
1761315749683198200,3.4081982421875,1.0892051035046577,0.6176850313588976,-0.78496686675027
1761315749693181200,3.41818115234375,1.1872241637080907,0.6260363878577947,-0.9870966550957411
1761315749703163100,3.4281630859375,1.1483809305727481,0.6423354884907603,-1.1221595708623529
1761315749713145300,3.438145263671875,1.044158924075961,0.7035878295719623,-1.1856829256154595
1761315749723127000,3.448126953125,0.8104021906495094,0.8024316501617431,-1.1149633026827126
1761315749733109200,3.458109130859375,0.5779378351211547,0.9272408098742365,-0.9179684660729021
1761315749743092000,3.468092041015625,0.3593991290926933,1.0744883036270736,-0.665995107954368
1761315749753074200,3.47807421875,0.20390286243259906,1.1946306405723095,-0.43530864881873127
1761315749763056400,3.488056396484375,0.19135434650480745,1.2471166146129369,-0.24728088945336638
1761315749773038000,3.4980380859375,0.3017892361670732,1.22797586081326,-0.12734035869054497
1761315749783021300,3.508021240234375,0.5873825398147106,1.1326789190500974,-0.027231559666246175
1761315749793003000,3.5180029296875,0.9923644394308329,0.9613102527365088,0.033281507354974746
1761315749802985200,3.527985107421875,1.3626023579239845,0.7446253578811883,0.062242484629713
1761315749812967200,3.53796728515625,1.6133108106732368,0.5270446832299233,0.08501173112485558
1761315749822949000,3.54794921875,1.7297943328499792,0.3553498537018895,0.1366095241541043
1761315749832932400,3.557932373046875,1.731685845685005,0.24883009165674447,0.18113219116535037
1761315749842914000,3.5679140625,1.6065560757160187,0.21904460972398518,0.2872281017752364
1761315749852896300,3.577896240234375,1.3861550829470157,0.24849603739678858,0.3295347001722082
1761315749862878200,3.587878173828125,1.1261731904178858,0.2857955482214689,0.35744711824208497
1761315749872861200,3.597861083984375,0.9027630789607762,0.28597002800554033,0.37925796803385015
1761315749882843100,3.607843017578125,0.716067371916771,0.25016192478239535,0.3916398221578449
1761315749892825000,3.6178251953125,0.5568623138666152,0.16376228296309708,0.3467606333265081
1761315749902807300,3.627807373046875,0.45127895588874817,0.07627513816803694,0.27055023095775393
1761315749912789000,3.6377890625,0.37669104015529153,-0.00234627086520195,0.18324925638455897
1761315749922772200,3.647772216796875,0.32335575580894943,-0.09900953254550694,0.11035703865308313
1761315749932754200,3.657754150390625,0.2733043154388666,-0.2138122620284557,0.05363803015258163
1761315749942736100,3.667736083984375,0.2714256620854139,-0.2868725298032164,0.040109599809348584
1761315749952718300,3.67771826171875,0.3054126873612404,-0.3318140798136592,0.05478661566581577
1761315749962701000,3.687701171875,0.3588251285970211,-0.3937210854113102,0.1023314069772139
1761315749972683300,3.697683349609375,0.4173609041959047,-0.4906222475007176,0.14448358199745415
1761315749982665000,3.7076650390625,0.4546265127509832,-0.6170245216235518,0.18718915311675519
1761315749992647200,3.717647216796875,0.5127122064948082,-0.7401289232447743,0.26541904208175837
1761315750002629400,3.72762939453125,0.6052940440803766,-0.8523799224182963,0.308346621921286
1761315750012612000,3.737612060546875,0.7177291676491498,-0.9832271932512521,0.31077669861242174
1761315750022594300,3.74759423828125,0.7959627464085817,-1.1800871514350175,0.35588067264296114
1761315750032576000,3.757575927734375,0.8233394136339426,-1.3248214933231472,0.39670148946158584
1761315750042558200,3.76755810546875,0.7944932583779096,-1.3936732034921646,0.40185715519171206
1761315750052541200,3.777541259765625,0.635590398144722,-1.4376742577821016,0.4305349316108972
1761315750062523100,3.787523193359375,0.4868517890512943,-1.4486217682540417,0.3801813664890826
1761315750072505300,3.79750537109375,0.34093174450993535,-1.5154375886812805,0.33503837562240657
1761315750082487000,3.807487060546875,0.2295774019151926,-1.6345438605770468,0.3218052384313196
1761315750092469200,3.81746923828125,0.20406419047415256,-1.7003943431034683,0.3731656059755012
1761315750102452200,3.8274521484375,0.18636252956688404,-1.7076061741784214,0.4741634262613952
1761315750112434200,3.83743408203125,0.08546177644729613,-1.7011059985041617,0.5634231336869299
1761315750122416400,3.84741650390625,-0.0834679722815752,-1.6578274132698774,0.6654351359840482
1761315750132398000,3.857398193359375,-0.3611468495428562,-1.6143825315579772,0.7208421851031481
1761315750142381300,3.86738134765625,-0.6892588599681854,-1.5311279097661374,0.7516289530329405
1761315750152363000,3.877363037109375,-1.0726105270564557,-1.4247028402671218,0.7740129265375435
1761315750162345200,3.88734521484375,-1.4928443563401699,-1.3045087731346487,0.7961127493385225
1761315750172327200,3.8973271484375,-1.8874094913601873,-1.1908704112559556,0.8450197689138352
1761315750182309000,3.90730908203125,-2.1883090852111575,-1.0858598847299814,0.8379002922974527
1761315750192292000,3.9172919921875,-2.355646011790633,-1.142156064708531,1.0472289791710674
1761315750202274300,3.9272744140625,-2.2450188144266603,-1.3459607274636625,1.4564473473131656
1761315750212256300,3.93725634765625,-1.8255150529831647,-1.4747949049085378,1.7626000393867491
1761315750222238200,3.94723828125,-1.3395634276419877,-1.4532906368479133,1.9471657486647367
1761315750232221400,3.957221435546875,-0.9049491908282041,-1.4196458491384982,2.0363789866000412
1761315750242203100,3.967203125,-0.6906926921635865,-1.4373898878827691,2.103231047384441
1761315750252185300,3.977185302734375,-0.7875742727696895,-1.4113424234345555,1.9452463249094782
1761315750262167300,3.987167236328125,-1.1177917310416698,-1.205338497069478,1.549332113368064
1761315750272149200,3.997149169921875,-1.663003354603052,-0.8741033861875533,1.0863810590598733
1761315750282132200,4.00713232421875,-2.3415233784139153,-0.5961407235488295,0.6725391958355903
1761315750292114200,4.0171142578125,-2.870283048868179,-0.2942421817883849,0.43998000163063405
1761315750302096400,4.027096435546875,-3.0214801570296284,0.0700876817047596,0.37575452649015934
1761315750312078300,4.037078369140625,-2.8931770177215337,0.37135318625867364,0.42556828564684834
1761315750322060300,4.047060302734375,-2.608403213763237,0.5893339661434293,0.5980063712902367
1761315750332043300,4.057043212890625,-2.1863404154866934,0.8251660445392132,0.8095652283687144
1761315750342025200,4.067025146484375,-1.7123077759981153,1.080179793266952,0.9922264922648668
1761315750352007200,4.077007080078125,-1.247383156594634,1.3078536996483803,1.1332673864625393
1761315750361989400,4.0869892578125,-0.7868249157071113,1.5260259104520082,1.2676295335486532
1761315750371972400,4.096972412109375,-0.28422552242577076,1.6559110582545398,1.3365139769434928
1761315750381954300,4.106954345703125,0.25510639544725416,1.6955130008026957,1.3697053217969835
1761315750391936300,4.116936279296875,0.8295482051461934,1.6662626486599443,1.3861689653418958
1761315750401918200,4.126918212890625,1.3994360048025847,1.6212860273361205,1.4407250236548483
1761315750411900200,4.136900146484375,1.9257073655724524,1.5150307614460587,1.521602541051805
1761315750421883400,4.14688330078125,2.3648007936269044,1.3619362952306866,1.6088560232214628
1761315750431865000,4.156864990234375,2.6923838117420673,1.2031360185891389,1.7120343658842145
1761315750441847300,4.166847412109375,2.8705320551931854,1.015258992806077,1.7997687634386121
1761315750451829200,4.176829345703125,2.9110347459733483,0.816411952458322,1.915834060203284
1761315750461812200,4.186812255859375,2.7787527661621567,0.6627227352201939,2.0825638146698475
1761315750471794400,4.19679443359375,2.486177933064103,0.5787295700207352,2.2361004716947672
1761315750481776000,4.206776123046875,2.019792008936405,0.5339058011710643,2.3513589821211993
1761315750491758300,4.21675830078125,1.505720204526186,0.5854276063546539,2.411757628982514
1761315750501740300,4.226740234375,1.0858441026389598,0.6982102281868457,2.4196628491491077
1761315750511723300,4.23672314453125,0.7384282568067312,0.8389043547734618,2.3368835897840556
1761315750521705200,4.246705322265625,0.4096563211679458,0.9703481301948428,2.1499175413660705
1761315750531687200,4.256687255859375,0.031013562422990797,1.0621987308964134,1.8727273244045675
1761315750541669400,4.26666943359375,-0.4103063095092773,1.1027379542946816,1.5798194599598645
1761315750551652000,4.276652099609375,-0.8027858704268932,1.1453329411789774,1.4078667101480067
1761315750561634300,4.28663427734375,-1.126691076812148,1.2649819416493178,1.355648593263328
1761315750571616300,4.2966162109375,-1.3657476702123879,1.4167360991716385,1.4314816867522895
1761315750581598200,4.30659814453125,-1.5310060369521379,1.577876801459491,1.6372310538344084
1761315750591580200,4.316580078125,-1.6749387070685624,1.7197101612091064,1.8940569665506481
1761315750601563100,4.326563232421875,-1.7056372121930121,1.8430030711397527,2.1640296533487735
1761315750611545300,4.33654541015625,-1.5993156030684708,1.9505372709244488,2.3914962005898355
1761315750621527300,4.34652734375,-1.378336518150568,1.9973770557716488,2.527670803925395
1761315750631509200,4.35650927734375,-1.0985410871267318,1.9494281406387686,2.584939043806493
1761315750641492500,4.366492431640625,-0.7803378917753696,1.8644135234370827,2.5466908539548516
1761315750651474200,4.37647412109375,-0.44981472855508325,1.733786032834649,2.4134109491474924
1761315750661456400,4.386456298828125,-0.13821663055717945,1.5819962194770574,2.246889868995547
1761315750671438300,4.396438232421875,0.12295301045179366,1.4570745393007993,1.9912652948930858
1761315750681420300,4.406420166015625,0.2894692682981491,1.3635802630454301,1.7872076802901922
1761315750691403300,4.4164033203125,0.43415480260849,1.2903998760223387,1.654944843570888
1761315750701385200,4.42638525390625,0.5511176327347755,1.2586413404509424,1.6041257798291741
1761315750711367400,4.436367431640625,0.6270294905483722,1.2628604194507003,1.5716905140399933
1761315750721349000,4.44634912109375,0.6692851624757051,1.2700719582647084,1.5309480231545864
1761315750731332400,4.456332275390625,0.6060930855035781,1.2462260955139994,1.4666810104273258
1761315750741314000,4.46631396484375,0.4626303709864616,1.1765534243509173,1.3877056733898818
1761315750751296300,4.476296142578125,0.3022352263689041,1.137953644582629,1.3374565184906124
1761315750761278200,4.4862783203125,0.13337035956978796,1.122311838814616,1.2413858158759772
1761315750771260200,4.49626025390625,-0.025711948883533477,1.0872378950849175,1.1078686682466417
1761315750781243400,4.506243408203125,-0.1634896035015583,1.0355141375884414,0.967374667342007
1761315750791225000,4.51622509765625,-0.22844927466809747,0.9427283018633723,0.8217351202424615
1761315750801207300,4.526207275390625,-0.23611469472944735,0.8112541313037276,0.6587575579162687
1761315750811189200,4.536189208984375,-0.16604162607192993,0.6856602509543299,0.5222278210001066
1761315750821172200,4.546172119140625,-0.0734463444828987,0.5216296724438667,0.4057313297439366
1761315750831154400,4.556154541015625,0.01617372068762779,0.3658437751874327,0.3083198069795966
1761315750841136000,4.56613623046875,0.13064882565140723,0.1894581574946642,0.23339728899691253
1761315750851118300,4.576118408203125,0.18507658140957353,-0.003946691799163818,0.19812811495605856
1761315750861100300,4.586100341796875,0.1797282061189413,-0.18692425510287283,0.20197967581767587
1761315750871083300,4.596083251953125,0.13098667930364608,-0.35186814906597136,0.1953156696175225
1761315750881065500,4.6060654296875,0.010549451065063477,-0.5159498732417822,0.10330352167868986
1761315750891047200,4.616047119140625,-0.16960253342390058,-0.673778089980781,-0.02955803213572362
1761315750901029400,4.626029296875,-0.426467170715332,-0.803539611403644,-0.19392149357907473
1761315750911012000,4.63601220703125,-0.7543003641992807,-0.9074176267683506,-0.4148412129925564
1761315750920994300,4.645994384765625,-1.123518876516819,-0.9819380302235483,-0.6381426399108022
1761315750930976300,4.655976318359375,-1.4995049832731484,-0.9774486098498105,-0.719527230047062
1761315750940958200,4.665958251953125,-1.8795032482802867,-1.0095996518701313,-0.5948083789665252
1761315750950940400,4.6759404296875,-2.0688988619327544,-1.1927876430541275,-0.2721077260654419
1761315750960923100,4.685923095703125,-1.9807307491362094,-1.3457944309860468,-0.05376750175114721
1761315750970905300,4.6959052734375,-1.793610094678402,-1.3348384449467061,-0.1653761296342127
1761315750980887300,4.70588720703125,-1.7195862425684927,-1.286837215104699,-0.5282801067763939
1761315750990869200,4.715869140625,-1.8365449810415506,-1.2777239343225955,-0.8276702824451029
1761315751000852200,4.725852294921875,-2.1091770963072776,-1.1865171844825149,-0.9464940841376781
1761315751010834200,4.735834228515625,-2.4530086539119482,-0.840871563193202,-0.9599422523189336
1761315751020816400,4.74581640625,-2.762000953325629,-0.341380072799325,-0.9186438080511987
1761315751030798000,4.755798095703125,-2.8976252293020486,0.09539104978740215,-0.7418788356520235
1761315751040780300,4.7657802734375,-2.789418537083268,0.3441203114181757,-0.400415760744363
1761315751050763300,4.77576318359375,-2.499634211486578,0.42181481486484407,0.023630557765904812
1761315751060745200,4.7857451171875,-2.048759744745493,0.43149435122758145,0.3690850951962173
1761315751070727400,4.7957275390625,-1.565937649601698,0.4382292124405503,0.5717206045741215
1761315751080709000,4.805709228515625,-1.0397358469367026,0.40603696162700653,0.6698435270108282
1761315751090692400,4.8156923828125,-0.5084031111240387,0.30200609378814697,0.7435569249320775
1761315751100674000,4.825674072265625,-0.05920446864068508,0.2079638282611966,0.7415246153868734
1761315751110656300,4.83565625,0.33339959543943404,0.18601985360905526,0.6974503497302532
1761315751120638500,4.845638427734375,0.6035112523168326,0.2015314571261406,0.6632733548402786
1761315751130621200,4.85562109375,0.7658668833523988,0.21658757196068762,0.6705328975144773
1761315751140603400,4.865603271484375,0.8250392032891511,0.22787176704108714,0.683025956927985
1761315751150585000,4.875585205078125,0.7969552645772695,0.24695056152045725,0.6495838521838188
1761315751160567300,4.8855673828125,0.6927665758281946,0.24745412712842224,0.5244228833589702
1761315751170549200,4.89554931640625,0.5420458530068397,0.2093485606178641,0.4161517841344699
1761315751180532200,4.9055322265625,0.40790976976156235,0.19161036709249019,0.29914569938834756
1761315751190514700,4.9155146484375,0.23878069906830787,0.2447738020032644,0.15912424789890647
1761315751200497000,4.925496826171875,-0.012823825737833977,0.2763300930008292,-0.025997633957117794
1761315751210478800,4.935478759765625,-0.316993235039711,0.2718792510718107,-0.19034173539616167
1761315751220460800,4.945460693359375,-0.6166179866492748,0.2900605121895671,-0.31949411194473504
1761315751230444000,4.955444091796875,-0.8747019366025924,0.3760638481676578,-0.434099711420387
1761315751240425700,4.96542578125,-1.0025760368436574,0.5302943326756357,-0.5000591342139988
1761315751250408000,4.975407958984375,-1.0274667324721813,0.7052291670382023,-0.4743170093879103
1761315751260390000,4.985389892578125,-0.9191133252590894,0.9004612317591905,-0.35698519981876015
1761315751270372900,4.995372802734375,-0.7229793432623147,1.0700500289186834,-0.18957301604598759
1761315751280355000,5.00535498046875,-0.4315910896003246,1.1709957902237773,0.020993030602857468
1761315751290336800,5.015336669921875,-0.05383095890879631,1.267445116892457,0.2496088209442794
1761315751300319000,5.025319091796875,0.3988140246361494,1.3589490961134434,0.4735350652299821
1761315751310301700,5.0353017578125,0.8700117329597472,1.411434777893126,0.6809096954263746
1761315751320284000,5.045283935546875,1.279662793430686,1.409704300838709,0.8165717461299151
1761315751330266000,5.05526611328125,1.6216104369848965,1.3672308945074676,0.8821415120188146
1761315751340247800,5.065247802734375,1.9175690673023462,1.3000018171042202,0.9560484597507863
1761315751350230000,5.07522998046875,2.1610054832220076,1.1931836566343903,1.0068190812408924
1761315751360212700,5.085212646484375,2.354362986242771,1.0597045759931205,1.0538647639237344
1761315751370195000,5.09519482421875,2.4689964966386557,0.9114502432852983,1.0863368545919656
1761315751380177000,5.105177001953125,2.519571084100008,0.772187026284635,1.103750492338091
1761315751390158800,5.115158935546875,2.52950737170279,0.6722127403602004,1.042068381537497
1761315751400142000,5.12514208984375,2.4360458286732434,0.5928378826111554,0.9117634739529341
1761315751410123800,5.135123779296875,2.2485580944687125,0.47731297633349895,0.8131615723602473
1761315751420106000,5.14510595703125,1.9885107354879379,0.3733160107642412,0.7524340588707477
1761315751430087700,5.155087646484375,1.7009686358600853,0.33793548530340195,0.6991561307348311
1761315751440070000,5.16506982421875,1.3818617696672677,0.2954217469617724,0.6308943492829799
1761315751450052900,5.175052978515625,1.0642512795120478,0.29240035331398245,0.6105743591034785
1761315751460034800,5.185034912109375,0.6893313406825066,0.2891168015986681,0.5747232935214415
1761315751470017000,5.19501708984375,0.23976620297431944,0.3118263537958264,0.5862465215221047
1761315751479998700,5.204998779296875,-0.19563421578109264,0.34077509264349937,0.601473243683204
1761315751489982000,5.21498193359375,-0.5656225434273481,0.40951662043631076,0.6311912864029408
1761315751499964000,5.2249638671875,-0.7424485983639955,0.4386553288981318,0.7027426839847117
1761315751509945900,5.23494580078125,-0.7389122409313916,0.405827118268609,0.8410013270527124
1761315751519928000,5.244927978515625,-0.6540303101986646,0.3570613337948918,0.9011818011187016
1761315751529909800,5.25490966796875,-0.49756490624547,0.25718963146209717,0.8576686034109443
1761315751539893000,5.26489306640625,-0.3348901262581348,0.13963497292250393,0.734796476175636
1761315751549874700,5.274874755859375,-0.1480389363914728,-0.02430062078088522,0.5876513468187302
1761315751559857000,5.28485693359375,0.07805646862685679,-0.2343146595701575,0.47402620974779125
1761315751569838800,5.2948388671875,0.30559622723460195,-0.4209153818070888,0.38067821009531616
1761315751579821800,5.30482177734375,0.4629489354163408,-0.5615598240330815,0.25086157921804114
1761315751589804000,5.314803955078125,0.5610059895426035,-0.6960881214663386,0.09962028485499322
1761315751599785700,5.32478564453125,0.6195972947210073,-0.7946192228451371,-0.053653172922786325
1761315751609768000,5.334767822265625,0.6428454838395118,-0.8941869737952947,-0.1739880184991285
1761315751619750000,5.34475,0.6161684893161058,-1.0019514752045273,-0.21693152656015008
1761315751629732900,5.35473291015625,0.6108008248031139,-1.0871423257559538,-0.19988834782792253
1761315751639715000,5.364715087890625,0.615412702512741,-1.1499930419445037,-0.15674292398663237
1761315751649696800,5.37469677734375,0.6156798290163278,-1.2006529696017503,-0.14593648421950636
1761315751659679000,5.384678955078125,0.6056137775540351,-1.2607789370015263,-0.16381125493766738
1761315751669662000,5.394661865234375,0.5497188718527555,-1.3598884227901695,-0.12077086237343028
1761315751679644000,5.404643798828125,0.5002922853827476,-1.463608324983716,-0.08641505858413874
1761315751689625900,5.4146259765625,0.48983518877625465,-1.545439343713224,-0.03408478656187653
1761315751699607800,5.42460791015625,0.47761283606290816,-1.586184026555717,0.05713274040054529
1761315751709590000,5.434590087890625,0.43675709406137464,-1.6330390089720486,0.16853210944710298
1761315751719572700,5.44457275390625,0.34138533349633216,-1.6719567686483263,0.28830466323187576
1761315751729555000,5.454554931640625,0.11432663640379905,-1.666060111825168,0.4195804068762809
1761315751739536600,5.46453662109375,-0.17636778977513312,-1.604802217786014,0.5036620540767908
1761315751749518800,5.474518798828125,-0.43531507855951784,-1.5421449783429502,0.5840263612546026
1761315751759501800,5.484501708984375,-0.6699930184841155,-1.4671400062412023,0.5666476121587678
1761315751769483800,5.49448388671875,-0.8514373808711767,-1.4682770474471152,0.47294046033769843
1761315751779466000,5.504466064453125,-0.9748696992725133,-1.6268451227679848,0.605971066559106
1761315751789447700,5.51444775390625,-0.88804131064713,-1.881125296524167,0.8588764448307454
1761315751799430000,5.524429931640625,-0.6165034203588963,-2.1714598033495247,1.0650237251892685
1761315751809412900,5.534412841796875,-0.30530864246487616,-2.3686579074464738,1.1281538428410887
1761315751819394800,5.544394775390625,-0.12935703227519987,-2.4821988003000617,1.0705568093970417
1761315751829377000,5.554376953125,-0.21679916888475417,-2.5595868681460616,0.9711831197142601
1761315751839358700,5.564358642578125,-0.4683382272392511,-2.4765555337160823,0.7778396452188492
1761315751849342000,5.574342041015625,-0.9371715445190667,-2.1947340036921203,0.5917372278928756
1761315751859324000,5.584323974609375,-1.6925369076013563,-1.8185260708786546,0.47715968546792864
1761315751869305900,5.594305908203125,-2.6848312044054268,-1.3674723020479083,0.46055276099480685
1761315751879288000,5.6042880859375,-3.5146535503178833,-0.8090253493383527,0.47224948239885267
1761315751889269800,5.614269775390625,-3.9736306594938036,-0.21936785032898187,0.6673861969865859
1761315751899253000,5.6242529296875,-4.240156859099865,0.14540113523378967,0.8306208028137684
1761315751909234700,5.634234619140625,-4.202764993816614,0.4670521329514682,0.8846027145005763
1761315751919217000,5.644216796875,-3.803912390735745,0.8293247716538608,1.0579683267850428
1761315751929199000,5.65419921875,-3.1682711391866207,1.1258829752996564,1.2247066298842428
1761315751939181800,5.664181884765625,-2.3414929832756517,1.3761100742727517,1.354195471845567
1761315751949164000,5.6741640625,-1.4366338088184594,1.5229609699234365,1.4953015402339398
1761315751959145700,5.684145751953125,-0.5872761568307876,1.489805719296634,1.6358059894673525
1761315751969128000,5.6941279296875,0.043946693754196166,1.2834201001375913,1.787216886509955
1761315751979110000,5.70410986328125,0.4779945288568735,1.042542136529088,1.9082758999086915
1761315751989092900,5.7140927734375,0.8371616027593612,0.8823430990055203,1.9056309383578598
1761315751999074800,5.72407470703125,1.1460334906637668,0.7524623351171612,1.8648266342826187
1761315752009056800,5.734056884765625,1.3923597828060388,0.6078244393408299,1.885672000043094
1761315752019039000,5.7440390625,1.4955641366928816,0.4586316567391157,1.9197325289465486
1761315752029022000,5.75402197265625,1.3994132084488868,0.3988680929109454,1.914522685343772
1761315752039004000,5.76400390625,1.0673153432577849,0.4714139814227819,1.7818423538647592
1761315752048985900,5.77398583984375,0.5528852269291877,0.6601119681999087,1.568944576332718
1761315752058967800,5.7839677734375,-0.028147651597857475,0.893201762150228,1.373587423927337
1761315752068950000,5.793949951171875,-0.6369850673735141,1.114570430907607,1.1603127028416842
1761315752078932700,5.8039326171875,-1.2350766327291727,1.291207100751996,1.0076412112787365
1761315752088915000,5.8139150390625,-1.8319085534125565,1.5088935738652944,0.9231240952704102
1761315752098897000,5.82389697265625,-2.3796049795269965,1.7480650258168577,0.899246668337658
1761315752108878800,5.83387890625,-2.7660744863748548,2.0336498538970944,0.9400155357733369
1761315752118861800,5.84386181640625,-2.933352376243472,2.351271157707274,0.942688700505346
1761315752128843800,5.85384375,-2.7585680562675,2.6074057271584867,0.9378630339145659
1761315752138826000,5.863825927734375,-2.3158909245073795,2.724510888364911,1.033737556369975
1761315752148807700,5.8738076171875,-1.677339922991395,2.714368849056959,1.0250487115450202
1761315752158790000,5.883789794921875,-0.8974047667980194,2.5966557850852605,0.8823926372356712
1761315752168772900,5.89377294921875,-0.1588841555327177,2.369735911941528,0.7091822885781526
1761315752178754800,5.9037548828125,0.44636488036215305,2.110605375544727,0.5285598005006089
1761315752188737000,5.913737060546875,0.9221580997824669,1.9119421673312782,0.34647487518768755
1761315752198719000,5.923718994140625,1.3081395308524368,1.7516005064666271,0.22049864445719866
1761315752208702200,5.9337021484375,1.5237515357792377,1.5930723247647285,0.22022169067934155
1761315752218684000,5.943683837890625,1.6748738251388071,1.4704112829968332,0.19869104606844484
1761315752228666000,5.953666015625,1.7157237219214438,1.4450675829038022,0.21488533462006598
1761315752238648000,5.96364794921875,1.6794336804002523,1.4437389646485448,0.2390131561173126
1761315752248630000,5.973630126953125,1.5911901642799378,1.443548118251562,0.29418488037688656
1761315752258613000,5.983613037109375,1.4886094952493905,1.4299220362201333,0.31342984346970915
1761315752268595000,5.993594970703125,1.3876181412369013,1.355751469115913,0.2646551085045561
1761315752278577200,6.0035771484375,1.32986094879508,1.2772519328966736,0.18886086745494976
1761315752288558800,6.013558837890625,1.32307231156826,1.1776043947085737,0.10551546210711821
1761315752298542000,6.0235419921875,1.3431336873441935,1.0613675407692789,0.06555419386043213
1761315752308523800,6.033523681640625,1.3743535859942435,0.9218027104735373,0.07154215482939034
1761315752318506000,6.043506103515625,1.4127309551835059,0.7569546781003474,0.09592837153449654
1761315752328488200,6.05348828125,1.3920868110835551,0.5871954928100108,0.09266306786192581
1761315752338471000,6.063470947265625,1.3721785800427198,0.45456806056201454,0.06681848730836064
1761315752348453000,6.073453125,1.3451900353521107,0.3931085064709186,0.11493837509397417
1761315752358434800,6.083434814453125,1.3030775712877511,0.3236132377013564,0.15256960209105164
1761315752368417000,6.0934169921875,1.1948749707221984,0.19881722973138094,0.12736894546421243
1761315752378399000,6.10339892578125,1.0461252557128666,0.04234218116700649,0.09517874047728254
1761315752388382000,6.1133818359375,0.8379255728691816,-0.10252250910252332,0.05201711441986263
1761315752398364200,6.1233642578125,0.6511725826799869,-0.2181137586146593,0.005801434554066509
1761315752408345900,6.133345947265625,0.49141456692218777,-0.30330490142703054,-0.003331190249323845
1761315752418328000,6.143328125,0.3798351833999157,-0.3778337804496288,0.02935441530542448
1761315752428311000,6.15331103515625,0.29313188245892524,-0.5531728116989135,0.061067412968352434
1761315752438293000,6.16329296875,0.23197569522857664,-0.7376713009595871,0.12370044955192133
1761315752448275200,6.173275146484375,0.27896365637481213,-0.8985694266632199,0.19702115836115552
1761315752458257000,6.1832568359375,0.42861762674748893,-1.0590975500106812,0.22423439691942185
1761315752468239000,6.193239013671875,0.48635026926994324,-1.229756899011135,0.1969109759849496
1761315752478221800,6.203221923828125,0.3953811275780201,-1.4233774368822574,0.12024243631884456
1761315752488204000,6.2132041015625,0.15600772331357002,-1.5748454709395765,0.046025783316884186
1761315752498186000,6.22318603515625,-0.20303250933885572,-1.6099246753662824,-0.06315042978748679
1761315752508168000,6.23316796875,-0.642089697036147,-1.5347297336503862,-0.17796061192452906
1761315752518151200,6.243151123046875,-1.0896867495417595,-1.4727683675169945,-0.23840306139495224
1761315752528132900,6.2531328125,-1.4564911864548922,-1.3921645524948834,-0.2934147545209154
1761315752538115000,6.263114990234375,-1.7285370262652635,-1.3054738187745212,-0.3086228815793991
1761315752548096800,6.2730966796875,-2.0265408986747264,-1.3585545438379047,-0.13738553176159038
1761315752558079000,6.283078857421875,-2.204222693657875,-1.5511159280449152,0.18167523026717824
1761315752568062000,6.29306201171875,-2.1711410927891728,-1.6785162732943892,0.3528258516496047
1761315752578044000,6.3030439453125,-2.016994487172365,-1.6112670298859475,0.322229235997051
1761315752588026000,6.313026123046875,-1.9101397940844296,-1.4651961786970495,0.18417902978165074
1761315752598007800,6.3230078125,-1.940906103748083,-1.3338843590922653,0.04206951997177675
1761315752607991000,6.332990966796875,-2.1513678863048553,-1.1419812926635144,-0.036356731815543025
1761315752617973000,6.342972900390625,-2.4740210468024015,-0.8858765338286757,-0.11528685973808168
1761315752627955000,6.352954833984375,-2.7770436241567134,-0.5760932301677764,-0.20313606104487553
1761315752637937200,6.362937255859375,-2.9960002633363008,-0.2834010543003678,-0.19367939191889016
1761315752647918800,6.3729189453125,-3.1289649647146462,-0.04068754582777619,-0.07399254365619272
1761315752657902000,6.382902099609375,-3.0499364361852406,0.18716507812142372,0.011552125301584601
1761315752667884000,6.392884033203125,-2.7538819442778824,0.43146717095971104,0.05138164779422805
1761315752677866000,6.402865966796875,-2.3265771536946294,0.5839544650621712,0.07606810782123356
1761315752687848200,6.41284814453125,-1.8631378044128417,0.6055144088327884,0.047696219013445076
1761315752697831000,6.422830810546875,-1.4621172096431254,0.5729105084784328,-0.08972891410617158
1761315752707813000,6.432813232421875,-1.101423949086666,0.5992874971419573,-0.2147610689195804
1761315752717794800,6.442794921875,-0.7240916884183883,0.6888901727862655,-0.3393793639687821
1761315752727777000,6.452777099609375,-0.30848902606666084,0.7889023065030575,-0.43680173692069946
1761315752737760000,6.462760009765625,0.07784078004956245,0.8164325568549334,-0.4907571624593809
1761315752747742000,6.472741943359375,0.43038229833245273,0.8177275651015341,-0.500865993617475
1761315752757724200,6.48272412109375,0.6998685167878865,0.8869237047940493,-0.3988904143406078
1761315752767705900,6.492705810546875,0.798347595718503,0.9845037890583276,-0.34349308289792385
1761315752777688000,6.50268798828125,0.773520612975955,1.0138213612183928,-0.5019997103551402
1761315752787671000,6.512671142578125,0.697672468048334,0.9993255106151103,-0.7400136263020336
1761315752797653000,6.522653076171875,0.678125471535325,0.9201308317385614,-1.0408084446042776
1761315752807635000,6.532635009765625,0.7169833177179098,0.8228615669891238,-1.285434654830396
1761315752817617000,6.542616943359375,0.7975906398713588,0.7154407644510269,-1.4060152370624244
1761315752827600100,6.55260009765625,0.9090963736355304,0.6635948418796062,-1.4492261638879775
1761315752837582000,6.56258203125,1.0108365001887083,0.7331102766543627,-1.5013276686556636
1761315752847564000,6.57256396484375,1.1365268266499042,0.8348129938066006,-1.4570572959050536
1761315752857546000,6.5825458984375,1.261461950829625,0.9427338548213243,-1.2934852748170493
1761315752867528000,6.59252783203125,1.3833107994318008,1.0289698305115103,-1.0555560049463062
1761315752877511000,6.602510986328125,1.4998469285786151,1.1077078516617416,-0.8034194190900772
1761315752887492900,6.612492919921875,1.5600748950481413,1.151652499589324,-0.5774421970913186
1761315752897475000,6.62247509765625,1.593194489839673,1.142426406082511,-0.4173753345800563
1761315752907457000,6.63245703125,1.5718191088557243,1.1237325192674994,-0.3269873903095722
1761315752917440000,6.64243994140625,1.490725464490056,1.0290715373203159,-0.25894599187644196
1761315752927422000,6.652421875,1.417277950963378,0.8652741830438375,-0.18357295364728196
1761315752937404000,6.66240380859375,1.4788760367423295,0.8031403829529881,-0.1938679367609322
1761315752947386000,6.67238623046875,1.5703940444886684,0.7198445523679255,-0.0976718176683411
1761315752957367800,6.682367919921875,1.7010504689246415,0.5794295349836349,-0.09007595571186393
1761315752967351000,6.69235107421875,1.7694938905537128,0.46890024503618477,-0.0000877878813073039
1761315752977333000,6.7023330078125,1.6387521259218454,0.39438919393122196,0.24811668269038198
1761315752987315000,6.71231494140625,1.3007488360792399,0.30729689367264507,0.45371663136444984
1761315752997297200,6.722297119140625,1.4950158551603554,0.3698313835188746,0.8591114956956356
1761315753007280000,6.732280029296875,1.053151793348789,0.4635138758227229,0.8445680796235799
1761315753017262000,6.742261962890625,0.6527829404860734,0.5717895416244864,0.14758421489391474
1761315753027244000,6.752244140625,0.49580724892318245,0.38226737898290153,-0.1697545821804553
1761315753037226000,6.76222607421875,0.44474809281527994,-0.004689326860010624,-0.31984201206695284
1761315753047208200,6.772208251953125,0.5390893412888049,-0.24523908142745493,-0.5831589307703078
1761315753057191000,6.78219091796875,0.6075456223994493,-0.2635473299257457,-0.7612771444093436
1761315753067173000,6.792173095703125,0.5978115793704987,-0.3070591393940151,-0.7742475390110164
