time,seconds_elapsed,z,y,x
1761316070217871600,0.07487158203125,2.3120506156921383,0.014283084635436535,0.36095461490638553
1761316070227853600,0.084853515625,2.6064953343152997,0.1999167154058814,0.30311471261717376
1761316070237836500,0.09483642578125,2.762879489725828,0.4458618992760777,0.26075327876042576
1761316070247819800,0.10481982421875,2.816614002522826,0.6961173475608229,0.1334752447163686
1761316070257802800,0.114802734375,2.825530299428105,0.890909559559822,-0.033545236325077714
1761316070267784700,0.12478466796875,2.798658074593544,0.9988938411995768,-0.12396898256130516
1761316070277767700,0.134767578125,2.807469157558679,1.100869822335243,-0.22885880531705916
1761316070287750700,0.144750732421875,2.9446067607074973,1.1452142832353711,-0.33518870734591033
1761316070297733600,0.154733642578125,3.140925451621413,1.0266717827022076,-0.37934217571858314
1761316070307715600,0.164715576171875,3.1415584888279438,0.9438266184940933,-0.3187156383855268
1761316070317698800,0.17469873046875,2.8217957890748977,1.7721502502813935,0.34085747369732705
1761316070327681500,0.184681640625,2.2931132755100725,1.958686967371404,0.9041070409156382
1761316070337664500,0.19466455078125,1.6365665985763072,0.6848892665818334,0.9528441838167607
1761316070347646700,0.204646728515625,0.6472358277529477,-0.5961325402423739,1.2346738971471787
1761316070357629400,0.21462939453125,-0.8313117076873778,-1.8396815255016088,1.6128322333760559
1761316070367612700,0.22461279296875,-2.7229724267512556,-2.8284041012987493,1.1524066058922557
1761316070377595600,0.234595703125,-5.446159957557916,-3.5610467604413625,-0.10250862670764327
1761316070387577600,0.24457763671875,-9.026486880269646,-3.783026546834409,-2.060165520378947
1761316070397560600,0.254560546875,-13.011986841255426,-3.028822044225037,-3.702536129058897
1761316070407543600,0.26454345703125,-16.49974478586316,-2.0017831817761063,-4.375873489534855
1761316070417526800,0.27452685546875,-18.750332924854753,-1.2706199475362896,-3.7946307676494118
1761316070427508500,0.284508544921875,-18.99954032539129,-1.2210216577611863,-2.34813607455194
1761316070437491700,0.29449169921875,-17.46198121353388,-1.2542305382713674,-1.1699988881409167
1761316070447474700,0.304474609375,-14.622932676362991,-1.367323541226983,-0.27342100062109526
1761316070457457700,0.314457763671875,-10.935177060067653,-1.8340937884971498,0.20654979674480856
1761316070467439600,0.324439697265625,-7.343177235218882,-2.4817434577479958,0.521757317411527
1761316070477422600,0.334422607421875,-4.358301007965207,-3.1079964109659195,0.5925226061169058
1761316070487405600,0.344405517578125,-1.8017863868713377,-3.46184258210659,0.20351737024635075
1761316070497388800,0.354388916015625,0.2790034038633108,-3.2649829161837696,-0.1313958446264267
1761316070507370800,0.364370849609375,1.9149100772261618,-2.302258120474219,0.06027458209022879
1761316070517353700,0.374353759765625,3.0063854637503624,-1.0914084587678312,0.49605000817049294
1761316070527337000,0.3843369140625,3.609415070030093,-0.18881518341600895,0.8149632149547338
1761316070537319700,0.394319580078125,3.870551393291354,0.4631514722511172,0.8270329343896359
1761316070547302000,0.404302001953125,4.018045555281639,1.0866257545359432,0.5642023744311183
1761316070557284900,0.414284912109375,4.188739391073584,1.4400551615692674,0.2513884709026664
1761316070567267600,0.424267578125,4.533330242612958,1.548569312302023,0.08324747966499998
1761316070577249800,0.434249755859375,5.011722830876708,1.5235092514559625,-0.04613436282447073
1761316070587232800,0.444232666015625,5.30374119913578,1.4334383737780152,-0.26258913415176793
1761316070597215700,0.4542158203125,5.391482026430964,1.500185512883216,-0.48954859038721765
1761316070607198700,0.46419873046875,5.611751501774788,1.8058796475343406,-0.5941666469968855
1761316070617181000,0.474180908203125,5.932812424644827,2.1072217244558034,-0.5506036187980323
1761316070627163600,0.48416357421875,6.230982301270961,2.1967560110390183,-0.4246458005070686
1761316070637146600,0.494146728515625,6.565006166088581,2.197258845994621,-0.1938980579045601
1761316070647129900,0.5041298828125,6.970283249258995,2.2112891249127684,0.11815332768564112
1761316070657111600,0.514111572265625,7.304388362619281,2.2206230627082286,0.39428997134044763
1761316070667094800,0.5240947265625,7.575776615303754,2.219178416857868,0.6087763332381844
1761316070677077800,0.534077880859375,7.528774041110276,2.299170529722422,1.3638715010769664
1761316070687060700,0.544060791015625,7.303626146075129,2.2880907711729406,1.2505284688830376
1761316070697042700,0.554042724609375,7.3282654972910874,2.2837547877952455,0.5948617531215772
1761316070707025700,0.564025634765625,7.416332487800717,2.3314283931180833,0.30226147505501283
1761316070717009000,0.5740087890625,7.506925781917571,2.4703762605592607,0.2801713151315227
1761316070726991600,0.58399169921875,7.647012297999859,2.585455761156976,0.3411343909425661
1761316070736973800,0.593973876953125,7.80870508121252,2.666740251919627,0.25458770533539354
1761316070746956800,0.603956787109375,8.011073573684692,2.7896839100211857,0.175973347097449
1761316070756939800,0.613939697265625,8.243226963567734,2.8074019375413655,0.18103194566126912
1761316070766922800,0.6239228515625,8.35684925109446,2.7753990718200803,0.29360234951488673
1761316070776904700,0.63390478515625,8.149169792732597,2.757982365334034,0.345609307866916
1761316070786887700,0.6438876953125,7.522450098785757,2.6726515217900273,0.14797522350549697
1761316070796870700,0.65387060546875,6.63076721676588,2.480667060688138,-0.16596644194386898
1761316070806854000,0.66385400390625,5.631867822608351,2.1384777173325418,-0.17235512006767092
1761316070816835600,0.673835693359375,3.905727336090803,1.479554082134366,0.13133498128466306
1761316070826818800,0.68381884765625,0.9754331783741712,0.481589338478446,0.48146768486015495
1761316070836801800,0.6938017578125,-1.876201868647337,-0.9268462575986981,0.16878449503928422
1761316070846784800,0.70378466796875,-4.7434302061200135,-3.237479992230236,0.2583490671629086
1761316070856766700,0.7137666015625,-7.535270417392254,-5.99741203032732,0.8513812667697668
1761316070866749700,0.723749755859375,-9.295044877964258,-7.67192578998208,1.0853887600868939
1761316070876733000,0.73373291015625,-10.314050071561336,-7.899890496003628,1.2727221805125475
1761316070886715600,0.743715576171875,-11.641450183200835,-7.161788986933231,1.2454695780582725
1761316070896697900,0.75369775390625,-13.606442095935344,-5.778743560439348,0.8152966116275638
1761316070906680800,0.763680908203125,-15.754592773759365,-4.450965847659111,0.7273437490168958
1761316070916663600,0.77366357421875,-17.19817362523675,-4.023312974290549,0.9355588486254215
1761316070926646800,0.783646728515625,-17.10176842997074,-4.46950395939052,0.8479339027948677
1761316070936628700,0.793628662109375,-15.236414118552206,-4.860464055655896,0.6220429343074559
1761316070946611700,0.80361181640625,-12.261357859045267,-5.056591315650939,0.5842858889736234
1761316070956594700,0.8135947265625,-8.97592222968042,-5.266976525840163,0.6865643601872027
1761316070966577700,0.82357763671875,-5.979764729955792,-5.244646620610356,0.6930167511969805
1761316070976559600,0.8335595703125,-3.6235657604575153,-4.768990179312229,0.1918919970454648
1761316070986542600,0.84354248046875,-2.029956844598055,-3.889240019409358,-1.1462282095182685
1761316070996525800,0.85352587890625,-1.034774425137043,-2.8620573645755645,-2.561260938838124
1761316071006508800,0.8635087890625,-0.45849663218259806,-1.7946160568505525,-3.3749516496390104
1761316071016490800,0.87349072265625,-0.28262510149180886,-0.6429825542226434,-3.336374373963475
1761316071026473700,0.8834736328125,-0.6230261001259089,0.6171180451259016,-2.437836511482298
1761316071036456700,0.893456787109375,-0.9610171150088309,1.8570736820682883,-1.4240169038295745
1761316071046439700,0.903439697265625,-0.9114783003360033,2.6297099134251476,-0.7869214348841458
1761316071056421600,0.913421630859375,-0.6335322965711355,2.8930583597779274,-0.5535509973615408
1761316071066404900,0.92340478515625,0.05703063173294067,2.846738214890659,-0.7264123133856802
1761316071076387600,0.9333876953125,1.3211778761237858,2.653383049957454,-1.0206979689896105
1761316071086370800,0.943370849609375,2.960449057483673,2.51428875978291,-1.2791827548287809
1761316071096352800,0.953352783203125,4.6049517097562545,2.636484522126615,-1.3929369981721043
1761316071106335700,0.963335693359375,6.22841157400012,2.801113943313062,-1.336610423055291
1761316071116318700,0.973318603515625,7.715201452606916,2.732313963331282,-1.1461314711455255
1761316071126301700,0.9833017578125,8.861927601709962,2.4879598480448126,-0.8672690101228654
1761316071136283600,0.99328369140625,9.614542204779386,2.3062910292521117,-0.40045192803628743
1761316071146266600,1.0032666015625,9.9825548484385,2.257304587765038,0.17315613425225018
1761316071156249900,1.013249755859375,10.036537783038616,2.3912200139969584,0.6931996334832161
1761316071166232800,1.02323291015625,9.840671512067317,2.5361241594940425,1.2087222212236375
1761316071176214800,1.03321484375,9.39809842520356,2.641836989070475,1.457132991489768
1761316071186197800,1.04319775390625,8.817144457131624,2.6454087100774046,1.4554177120044827
1761316071196180700,1.0531806640625,8.279911557364464,2.5538319578811524,1.3229232584863901
1761316071206162700,1.06316259765625,7.927215140780806,2.4418568530395626,1.1320813915483652
1761316071216145700,1.073145751953125,7.758470100969076,2.3307345656350256,0.9047988225720822
1761316071226129000,1.08312890625,7.73600634022653,2.1802225171282887,0.6194068867154419
1761316071236111600,1.093111572265625,7.774478401961922,2.0070295579969883,0.3440248151544481
1761316071246093800,1.10309375,7.85973208861649,1.8578043344303965,0.2360516394305974
1761316071256076800,1.113076904296875,7.872655283075571,1.7897449436828492,0.36967144371680916
1761316071266059500,1.1230595703125,7.837737698951363,1.8344260891914366,0.6705492641273886
1761316071276042800,1.133042724609375,7.697037434884906,1.811532412599027,0.9523189178336411
1761316071286024700,1.143024658203125,7.343745975017547,1.5027145929694175,1.357970314209163
1761316071296007700,1.153007568359375,6.723358991223574,0.9403013669773935,2.003489985693991
1761316071305990700,1.16299072265625,5.499748339882493,0.3427858479440212,2.8212901776403188
1761316071315973600,1.1729736328125,3.261028333339095,-0.8862184791341423,3.3940056019380687
1761316071325955600,1.18295556640625,-0.17972586803138255,-3.308076500239968,3.6523429421305655
1761316071335938800,1.192938720703125,-5.622562818646431,-6.535078060814738,3.2800667958080765
1761316071345921800,1.202921875,-10.972142224371433,-9.305753318983315,0.9811424959316849
1761316071355904800,1.21290478515625,-15.552708265411853,-10.333858349359035,-1.1453447777472436
1761316071365886700,1.22288671875,-19.222889646571872,-9.969000954860448,-2.0151263552129266
1761316071375869700,1.23286962890625,-21.611626027059554,-8.040698312097787,-1.4674305136203765
1761316071385853000,1.24285302734375,-23.306068476021288,-4.694000112518668,-0.20821714543513953
1761316071395835600,1.252835693359375,-24.258808761072157,-2.2184388505369426,0.9589382629081606
1761316071405817900,1.26281787109375,-24.440842906045912,-1.6311112557798624,1.9402189982667564
1761316071415800800,1.27280078125,-23.542177910053727,-1.510815189577639,2.277435521645844
1761316071425783600,1.282783447265625,-20.960421880197522,-1.2782590641126035,1.9555909010522066
1761316071435766800,1.292766845703125,-16.777136662876604,-1.5352461587399244,1.6061678070507943
1761316071445748700,1.302748779296875,-11.884258238089084,-2.0239313006982207,1.414316178548336
1761316071455731700,1.312731689453125,-6.965919793352485,-2.2080630024731156,0.8804176108356565
1761316071465714700,1.322714599609375,-2.5081881048202512,-2.168825217062235,-0.07422359419940039
1761316071475697700,1.33269775390625,1.1434265230357645,-1.9461422508358954,-1.0126540710046887
1761316071485679600,1.3426796875,3.744247318845987,-1.5692051269650458,-1.630456152871996
1761316071495662600,1.35266259765625,5.341797665807604,-0.9482689848557114,-1.9200977089971303
1761316071505645800,1.362645751953125,6.099705114588141,-0.1050876834154129,-1.7000184955284
1761316071515627800,1.372627685546875,6.161048348823189,0.8255068208009004,-1.0224208472594618
1761316071525610800,1.38261083984375,5.709377763268352,1.5883382819801568,-0.34941483762972053
1761316071535593700,1.39259375,5.069173733848333,2.0707430284947157,-0.10566650621667503
1761316071545576700,1.40257666015625,4.4624680694043635,2.4376611549153924,-0.18093882401771844
1761316071555558700,1.41255859375,4.094457763832807,2.712935016861558,-0.5264890951737761
1761316071565541600,1.422541748046875,4.05676019360125,2.861493885473907,-0.9611445407807826
1761316071575524900,1.43252490234375,4.283953915250301,2.9537875537678597,-1.2696388275444508
1761316071585507800,1.4425078125,4.908652332502603,3.0322786144196985,-1.3858312578201293
1761316071595489800,1.45248974609375,5.839246252197027,3.064564388735592,-1.2564886924616991
1761316071605472800,1.46247265625,6.7528644871711725,3.1464187883406876,-0.9892632585451007
1761316071615455700,1.472455810546875,7.594344537651539,3.2118747185915706,-0.7106420589324086
1761316071625438700,1.482438720703125,8.269050556132196,3.2393951782017942,-0.3167795922890305
1761316071635420700,1.492420654296875,8.829324139747023,3.2191660446435213,0.12866145122647285
1761316071645404000,1.50240380859375,9.173145175957679,3.197353149025142,0.5704753902859986
1761316071655386600,1.51238671875,9.324411842224002,3.252531430889666,0.8549822869364172
1761316071665369900,1.522369873046875,9.411469947952032,3.280338598486781,0.955976928884536
1761316071675351800,1.532351806640625,9.461272381997109,3.2861233193680643,0.9774005329243838
1761316071685334800,1.542334716796875,9.428635017764568,3.2878587648585436,0.9179602097012102
1761316071695317800,1.55231787109375,9.347836556953192,3.224900496642291,0.7722181520752608
1761316071705300700,1.56230078125,9.334138286468386,3.1341099263876675,0.5544682948695495
1761316071715282700,1.57228271484375,9.25973449513018,3.037540188209712,0.38027591290473933
1761316071725265700,1.582265625,8.921279369866847,2.942848811124265,0.34264917941968887
1761316071735249000,1.592248779296875,8.193224038514494,2.8531764312446115,0.357369851754792
1761316071745230600,1.602230712890625,7.254578914311527,2.8190611034139987,0.32991898678205905
1761316071755213800,1.6122138671875,6.199250361445546,2.760671166026592,0.2838564699176699
1761316071765196800,1.62219677734375,5.0326253336519,2.6194930553153157,0.33105233819354324
1761316071775179800,1.6321796875,3.87055899207592,2.4021722006440163,0.5518270231131464
1761316071785161700,1.64216162109375,2.8573148462235927,2.0201313238933682,0.7636617745235562
1761316071795144700,1.652144775390625,1.857960109513998,1.5014879737839102,0.9072790220152586
1761316071805128000,1.6621279296875,0.5055523978680372,0.6795119574576616,1.201627075330913
1761316071815110700,1.672110595703125,-1.659528956490755,-0.8034662539064884,1.6637972814597188
1761316071825092900,1.6820927734375,-4.396859578940272,-3.396621337394416,1.8697412943311034
1761316071835075800,1.692075927734375,-6.690362730550766,-6.563703851318359,1.418258778694272
1761316071845058600,1.70205859375,-8.19235602350831,-8.273990350621938,0.861225711370632
1761316071855041800,1.712041748046875,-9.49262204450667,-8.060656227499246,0.7863130937274545
1761316071865023700,1.722023681640625,-11.45220070002079,-6.7217176537573335,1.3542698522560297
1761316071875006700,1.7320068359375,-14.12644796656966,-4.931154087167978,1.7500952164702117
1761316071884989700,1.74198974609375,-16.846201431274412,-3.701835287313163,1.9992804051749407
1761316071894973000,1.751972900390625,-18.70019380620122,-3.483338374599814,2.3610706671878696
1761316071904954600,1.76195458984375,-19.18326958384514,-3.7791923754990098,2.6500194187432524
1761316071914937900,1.771937744140625,-17.87705488357544,-4.0836870712324975,2.69234114164412
1761316071924920800,1.7819208984375,-14.914478166413307,-4.593535704989731,2.6066037631258365
1761316071934903800,1.79190380859375,-11.24822594139576,-5.127014512920379,2.5377482535645366
1761316071944885800,1.8018857421875,-7.813919016468525,-5.330941340750456,1.9321720315419135
1761316071954868700,1.81186865234375,-5.201546314552426,-5.029456640487909,0.803518130224198
1761316071964852000,1.82185205078125,-3.4880110425859687,-4.4331157181918615,-0.23345219752192495
1761316071974833700,1.831833740234375,-2.3290765692949296,-3.6879789036571977,-0.9616050709646194
1761316071984817000,1.84181689453125,-1.4156278456687927,-2.651796073026955,-1.4414584524959324
1761316071994799900,1.8517998046875,-0.584908843177557,-1.549431920480728,-1.7915083000935612
1761316072004782600,1.861782470703125,0.1858966656208038,-0.6688795042842626,-2.0631039119184016
1761316072014764800,1.871764892578125,0.8709405382424592,0.04231441637724638,-2.0840308184824883
1761316072024747800,1.881747802734375,1.421410520723462,0.5718459479868412,-1.8579443274229763
1761316072034730800,1.891730712890625,1.778803570690751,0.9025973670050501,-1.6284490508332847
1761316072044713700,1.901713623046875,2.2913468503594396,1.1627382494881748,-1.449047884711623
1761316072054696000,1.911696044921875,3.1339795780062674,1.3949091750279068,-1.249862552320212
1761316072064678700,1.9216787109375,4.18995928825736,1.5899182446479796,-1.1014709300335497
1761316072074661600,1.93166162109375,5.363229745414853,1.8166393803492187,-0.9420311864446848
1761316072084644900,1.941644775390625,6.562019259232282,1.9114552605971693,-0.7389608293134718
1761316072094626600,1.95162646484375,7.6953721320211885,1.8643913116052746,-0.49232196409069
1761316072104609800,1.96160986328125,8.629843769931792,1.7000623346701262,-0.1962389036759734
1761316072114592800,1.9715927734375,9.248481279709935,1.5719289989709853,0.08698007205575704
1761316072124575700,1.98157568359375,9.567540215107798,1.5962316655784845,0.4029687331628054
1761316072134557700,1.9915576171875,9.621682139661907,1.7366028438210486,0.7809345424942672
1761316072144540700,2.001540771484375,9.397263727945088,1.8682199299827218,1.105828467655927
1761316072154524000,2.01152392578125,9.041203387886286,1.8935490170285105,1.140068371714279
1761316072164505600,2.021505615234375,8.715905850359796,1.8060387836188077,1.033590183788538
1761316072174488800,2.03148876953125,8.506693775603175,1.8018205814018844,0.8955551934085786
1761316072184471800,2.041471923828125,8.442259589615464,1.8531693681061268,0.8082632789246738
1761316072194454800,2.051454833984375,8.456412618130445,1.9053841239899396,0.74185267829746
1761316072204436700,2.061436767578125,8.48309078169763,1.9053125200584529,0.6584717997774482
1761316072214420000,2.071419921875,8.554176242268085,1.9220652096778152,0.6240124808147549
1761316072224402700,2.081402587890625,8.732451911491156,1.9595248795002698,0.6984801311694085
1761316072234385700,2.0913857421875,8.860534101524948,2.016317903085053,0.8751536258928477
1761316072244368000,2.101367919921875,8.866642939794064,2.081471343258023,1.0376450121372938
1761316072254350600,2.1113505859375,8.65745073878169,2.1348478363975882,1.1901438505470752
1761316072264333800,2.121333740234375,8.32560947870016,2.167873615425825,1.2610916562125085
1761316072274316800,2.13131689453125,8.013018278011678,2.0886992486849425,1.1788377358958124
1761316072284299000,2.141299072265625,7.693770542043447,1.8444564848184584,1.0292232207506895
1761316072294281700,2.15128173828125,6.843486422860622,1.378336518150568,0.9085952922455965
1761316072304264700,2.1612646484375,4.907485042288899,0.49119858608394856,0.8234153284143656
1761316072314247000,2.171246826171875,1.9916104550689457,-0.7787175970971584,0.9876906754661351
1761316072324229600,2.181229736328125,-1.9379075064539908,-2.286252742090821,1.4385118776500225
1761316072334212900,2.191212890625,-6.679383655896783,-3.9341660795897244,2.0177099419653413
1761316072344195800,2.20119580078125,-10.626996077036857,-5.4152574542939655,2.587367147736251
1761316072354177800,2.211177734375,-12.729494426232575,-6.6881859710335725,2.6556352127984164
1761316072364160800,2.221160888671875,-13.415859902846812,-7.3182842015028,2.351428101834655
1761316072374143700,2.231143798828125,-16.61235409695506,-5.8098015465259545,1.9256740478247403
1761316072384126700,2.241126708984375,-23.401614424109457,-2.9659850643008947,1.107500054129958
1761316072394108700,2.251108642578125,-29.646108533382414,-1.586353830164671,-0.1693265294941142
1761316072404092000,2.261091796875,-32.1742218203783,-1.7180097870320081,-1.058798420933634
1761316072414075000,2.271074951171875,-30.030913321888445,-1.9777201691433786,-0.8707702231768518
1761316072424057600,2.2810576171875,-24.636716191279888,-2.3751199430674315,-0.12906433293893932
1761316072434039800,2.291039794921875,-18.636587303209303,-3.0239605756685135,0.3905016849733889
1761316072444022800,2.301022705078125,-13.364814775264263,-3.515885137939453,0.3134780665256083
1761316072454005800,2.311005859375,-9.136977299511432,-3.6472356821194287,-0.3933525443598628
1761316072463988700,2.32098876953125,-6.033334992101788,-3.520462236596644,-1.4067264540717004
1761316072473971000,2.330970947265625,-3.747208506739139,-3.1795264004334807,-2.260433241179585
1761316072483953700,2.34095361328125,-2.1612778704226017,-2.5667507684260604,-2.8668241405859587
1761316072493936600,2.3509365234375,-1.0021318002074957,-1.8120915077865123,-3.206144358246028
1761316072503918600,2.360918701171875,-0.14768763873577118,-1.113732080387324,-2.8674305820465085
1761316072513901600,2.370901611328125,0.2122317148387432,-0.34459202058315275,-1.7679880160354078
1761316072523884500,2.380884521484375,0.7341121471732854,0.4691968898952007,-0.5797367012366652
1761316072533867500,2.390867431640625,1.6043383996665477,1.0801263095140456,0.07970204387679695
1761316072543849500,2.400849365234375,2.63836814391613,1.2134512225069105,0.20280710308514535
1761316072553832400,2.41083251953125,3.921219504255056,1.0101699991039932,-0.16125475712157786
1761316072563815700,2.420815673828125,5.374094253778457,0.8269450369104743,-0.762629289670661
1761316072573798400,2.43079833984375,6.975897582009434,0.7883169078305363,-1.2047496643308548
1761316072583780600,2.440780517578125,8.518338036167622,0.8252870405703783,-1.2882635946460068
1761316072593763600,2.450763671875,9.781075413760542,0.8483011286720633,-1.152978487496078
1761316072603746300,2.460746337890625,10.450935745775698,0.9756237325102091,-0.5966008518738671
1761316072613729500,2.4707294921875,10.973573133957386,1.2653402535676956,-0.16699929212294518
1761316072623711500,2.48071142578125,11.637982799351215,1.705799709278345,-0.41026992302164433
1761316072633694700,2.49069482421875,11.84746843035221,1.9400772517085074,-0.1611287926543504
1761316072643677400,2.500677490234375,12.047381930887699,1.9125357493102548,0.33531273558437824
1761316072653659600,2.51065966796875,12.198489022678135,2.1396341938912866,0.6519824377581477
1761316072663642600,2.520642578125,12.185668119549751,2.5255750006899236,0.9763148565795272
1761316072673625300,2.530625244140625,11.939853284060954,2.8731673721328375,1.3035418277986346
1761316072683608600,2.540608642578125,10.942158589518069,3.0002041447669265,1.7354396452605723
1761316072693590500,2.550590576171875,10.945175891512632,3.182526459032297,1.8532810117870568
1761316072703573500,2.560573486328125,11.402858869224787,3.4732837213143704,1.5305699836224316
1761316072713556500,2.570556396484375,10.909871938419341,3.524288809147477,1.4874702620863913
1761316072723539700,2.580539794921875,10.538258639919757,3.4173648502156135,1.4130715853147209
1761316072733521400,2.590521484375,10.205513708996772,3.3924192095294594,1.3388771989434958
1761316072743504600,2.600504638671875,9.877755918836593,3.3683439219370483,1.2265667246676981
1761316072753487600,2.610487548828125,9.563859480768441,3.3775077638626096,1.0541258260127155
1761316072763470600,2.620470703125,9.234225375342369,3.5447245711937545,0.8912097846154123
1761316072773452500,2.63045263671875,8.824775390401483,3.7275755855083466,0.7761497924357652
1761316072783435500,2.640435546875,8.333035244786739,3.6971737252429127,0.7008906263772398
1761316072793418800,2.650418701171875,7.47057904177308,3.2489068106517194,0.5745566682502627
1761316072803400400,2.660400390625,5.907749295058846,2.5980013544753193,0.6114635995607822
1761316072813383700,2.6703837890625,3.9056811588615177,1.8777058434695004,0.8217788132537156
1761316072823366700,2.68036669921875,1.9065823938637971,0.7774015460625291,0.9652253072883933
1761316072833349400,2.690349365234375,-0.5698311010330915,-0.7379308286786079,1.4408495268173516
1761316072843331600,2.70033154296875,-3.2444086224496362,-2.6045602745994922,2.100208630823344
1761316072853314600,2.710314453125,-5.189216409811377,-4.65986578772664,2.5473805897846815
1761316072863297500,2.720297607421875,-6.618139205861091,-5.858197620904446,2.232539710473269
1761316072873280500,2.730280517578125,-8.806476348122954,-5.756147113227844,0.8222732457071542
1761316072883262700,2.7402626953125,-13.494021000891923,-4.453417332464456,-0.8690194339867681
1761316072893245400,2.750245361328125,-19.81061354717016,-2.4641285983413455,-1.9903750680550931
1761316072903228400,2.760228515625,-25.395759950613975,-1.112198148818314,-2.624132405553758
1761316072913211600,2.770211669921875,-28.88552865052223,-0.8948007217794656,-2.9200051111534235
1761316072923193300,2.780193359375,-29.985051734423635,-1.1216653576046227,-3.193065680964291
1761316072933176600,2.790176513671875,-28.18678884550333,-1.5981050582349299,-3.0673692170232534
1761316072943159600,2.80015966796875,-23.879620058882235,-2.612536075784266,-2.2838632166057824
1761316072953141500,2.8101416015625,-19.367997205686567,-3.7354178234413262,-1.4047624605223537
1761316072963124500,2.82012451171875,-15.483768584698439,-4.42948291464746,-1.0434751065302639
1761316072973107500,2.830107421875,-12.195576934623718,-4.854461015848815,-1.255987464941293
1761316072983090700,2.840090576171875,-9.540516014581918,-5.015591781264543,-1.7240490671962498
1761316072993072400,2.850072265625,-7.316752754151821,-4.707467789117992,-2.21186853223592
1761316073003055600,2.8600556640625,-5.29094776853621,-4.146709052334725,-2.5664848109662532
1761316073013038600,2.87003857421875,-3.5447651954650876,-3.5632129985645413,-2.3683099707916377
1761316073023021600,2.880021484375,-2.65127438724041,-2.503219084236026,-1.2756442054390906
1761316073033003500,2.89000341796875,-2.0556687934815883,-1.0567612160176039,-0.24110172589439896
1761316073042986800,2.89998681640625,-1.073357546031475,0.14425196519866584,0.12665186496973038
1761316073052969500,2.909969482421875,0.21434709955751893,0.8958915857560932,0.11527115071229636
1761316073062951700,2.91995166015625,1.8005547992497681,1.217753742006421,-0.16828724957425145
1761316073072934700,2.9299345703125,3.516664890140295,1.3902020202502607,-0.5986577478710562
1761316073082917400,2.93991748046875,5.238147906240821,1.651668013857305,-0.9945785352837294
1761316073092900600,2.949900634765625,6.909495895341038,1.9334788763567805,-1.2487772413015366
1761316073102882600,2.959882568359375,8.375969546627998,2.129148455712199,-1.295152477376908
1761316073112865500,2.969865478515625,9.555422491812706,2.22889682392627,-1.2441792459867893
1761316073122848500,2.9798486328125,10.318792882174252,2.407856383760273,-0.9954521763131022
1761316073132831500,2.98983154296875,10.939052440196274,2.783052509182691,-0.5314957443546503
1761316073142813400,2.9998134765625,11.268167490184306,3.228845727136731,0.07758921644128859
1761316073152796400,3.00979638671875,11.314219631785154,3.5258152880623936,0.6459529483355582
1761316073162779600,3.019779541015625,11.071429112553595,3.6135602070108055,1.0157496989324688
1761316073172762600,3.0297626953125,10.764788929224014,3.7182685357198118,1.2815043296441435
1761316073182744600,3.03974462890625,10.483865370953083,3.9426603516906495,1.40055390291661
1761316073192727600,3.0497275390625,10.24494321758747,4.122743362596631,1.3240050623737274
1761316073202710500,3.05971044921875,10.226848757970332,4.191079232198,1.1033077170066534
1761316073212692500,3.0696923828125,10.375818837732076,4.1554675283297895,0.691490272282064
1761316073222675500,3.079675537109375,10.545860931617021,4.036766330103576,0.18008845426607875
1761316073232658700,3.08965869140625,10.690202767056226,3.941209276099503,-0.2988302402310073
1761316073242641400,3.099641357421875,10.74965215036869,4.08189200450927,-0.44438897717930376
1761316073252623600,3.10962353515625,10.71166290371418,4.233384588485956,-0.34053288138546045
1761316073262606600,3.119606689453125,10.603645596587658,4.256442223468422,-0.18441640046779065
1761316073272589600,3.129589599609375,10.358763658034801,4.323750795848667,-0.009182363962940872
1761316073282572500,3.139572509765625,10.112312862730025,4.570855086626112,0.25297760325763374
1761316073292554500,3.149554443359375,9.891747034788132,4.749211419869959,0.6771992966011167
1761316073302537500,3.159537353515625,9.521647647982835,4.618939318576455,1.0678635517250745
1761316073312520400,3.1695205078125,8.681426657652855,4.221502427512407,1.2239650177367032
1761316073322502700,3.179502685546875,7.411933960580825,3.609823358570039,1.1111902138847858
1761316073332485400,3.1894853515625,6.119168524470925,2.4957056398659945,0.7459452813733368
1761316073342468600,3.199468505859375,5.025288999414443,1.1268687714666128,0.294637994439248
1761316073352451600,3.20945166015625,4.026315370976925,-0.511919887073338,0.23472988930754363
1761316073362433500,3.21943359375,2.9502514885962006,-2.6772859035924075,0.8197650622785091
1761316073372416500,3.22941650390625,1.6693769812881945,-4.928877374407649,1.8110126265086233
1761316073382399500,3.2393994140625,-0.2667132466107607,-6.470929706031083,2.769102894285321
1761316073392382700,3.2493828125,-3.545490002608299,-6.601435908341408,2.5297961255162953
1761316073402364400,3.259364501953125,-9.673963531041144,-5.567001674944162,0.4955623342514038
1761316073412347600,3.26934765625,-18.6774734403491,-3.1995471519380807,-2.5468121422469614
1761316073422330600,3.27933056640625,-28.22919473955631,-0.640907501514256,-5.039024094778299
1761316073432313300,3.289313232421875,-35.33255959457159,0.09539221883118153,-5.535098470205068
1761316073442295600,3.299295654296875,-37.352968858623505,-0.4287558661743998,-3.4975586231321096
1761316073452278500,3.309278564453125,-34.02745782397985,-1.5420795118913053,-0.48831908512488004
1761316073462261500,3.319261474609375,-27.846744405221937,-2.7355799793899056,1.3498058585844934
1761316073472243500,3.329243408203125,-21.823260360527037,-3.61665671172142,2.0209195516616103
1761316073482226700,3.339226806640625,-16.731436403453348,-4.25342609051764,1.748906883468479
1761316073492209400,3.34920947265625,-12.845707899296283,-4.7712481873720884,0.9400622975245118
1761316073502196000,3.359196044921875,-9.709832132279873,-4.813408874492347,0.21832882613744586
1761316073512178200,3.36917822265625,-7.160621112197637,-4.432479758375883,-0.10911671973578631
1761316073522161000,3.379160888671875,-5.153330857437849,-3.770765615676343,-0.21531850187294183
1761316073532144000,3.38914404296875,-3.2678350907444953,-2.9175328758209944,-0.3143177322201431
1761316073542127000,3.399127197265625,-1.4766998617470264,-2.116997706930339,-0.45608102240823206
1761316073552109000,3.409109130859375,-0.1137713406085968,-1.453234815007448,-0.9048835782460868
1761316073562092000,3.419092041015625,0.9043325202345848,-0.8169690018191933,-1.5773754278086125
1761316073572075000,3.429074951171875,1.9659429298490285,-0.28753771571367975,-2.1048681470669806
1761316073582057000,3.439056884765625,2.9891987666279074,0.06092179395258426,-2.3396949939429756
1761316073592040000,3.4490400390625,3.996038306134939,0.3481561428055167,-2.3045934315539895
1761316073602023200,3.459023193359375,5.068796132707596,0.6585039484813809,-2.0613737271249293
1761316073612006100,3.469006103515625,6.159954708367586,1.03252343133986,-1.6479162601083517
1761316073621988000,3.478988037109375,7.237500353738665,1.3487977044552564,-1.1531469028655439
1761316073631971000,3.48897119140625,8.228135777419805,1.5488047284930944,-0.6265531782735139
1761316073641954300,3.498954345703125,9.05607888545692,1.7700524012193082,0.07100662318058311
1761316073651937000,3.50893701171875,9.648702833056449,2.0780849156901238,0.8351688945721835
1761316073661919200,3.518919189453125,10.051014052158594,2.471994217149913,1.5817092192292213
1761316073671902200,3.528902099609375,10.487454335355759,2.834710215705633,2.213594040854275
1761316073681885000,3.538885009765625,10.94933885641098,3.075428604838252,2.2790350657969713
1761316073691867100,3.5488671875,11.37334635901451,3.2289430500313636,2.069580122195184
1761316073701850000,3.55885009765625,11.610297504568099,3.3738013105601072,1.7978090076729654
1761316073711833000,3.5688330078125,11.72613220744729,3.350906757184863,1.4457272158563137
1761316073721816000,3.578816162109375,11.729261737644672,3.1836665689781305,1.2296829569920897
1761316073731798300,3.58879833984375,11.494416039937734,3.286269742101431,1.1187272583261132
1761316073741781000,3.598781005859375,11.220973192811012,3.5824963757053014,0.9405591411307453
1761316073751764000,3.608763916015625,11.02550205863714,3.824495452298224,0.7437579273968935
1761316073761747200,3.618747314453125,10.904494337034224,3.899483181004226,0.6310908947683871
1761316073771729200,3.628729248046875,10.72971527775526,4.017935372905433,0.8427180678427219
1761316073781712100,3.638712158203125,10.320934570378064,4.193626870854199,1.2819929899439215
1761316073791695000,3.648695068359375,9.921914209514856,4.406152307942509,1.5387673186033963
1761316073801677300,3.65867724609375,9.65334510590434,4.504607129214704,1.5253046104401349
1761316073811660000,3.668659912109375,9.361097605064511,4.4583299466863275,1.498874430284649
1761316073821643000,3.67864306640625,9.08963161096871,4.20976581248939,1.2473559763267636
1761316073831626200,3.688626220703125,8.775517730757594,3.8901422289460896,0.7617833403658122
1761316073841608000,3.69860791015625,8.33322112274766,3.5135248385488986,0.3197087776087224
1761316073851591200,3.708591064453125,7.6467732285469765,2.906143759061396,0.28805355628132817
1761316073861574100,3.71857421875,6.561615939128399,1.9236925186187028,0.5161072557605803
1761316073871557000,3.72855712890625,4.794187748932838,0.652524581810832,0.730267819770053
1761316073881539000,3.7385390625,2.129970878010988,-1.0818027182936667,0.8627068167738616
1761316073891522000,3.74852197265625,-0.28939971019327637,-3.2236843988507986,1.376708040165901
1761316073901505300,3.75850537109375,-2.1340625312387944,-4.7531414527952665,2.17046567774564
1761316073911487000,3.768487060546875,-4.686588374957442,-4.621201418289542,2.0463094289839265
1761316073921470200,3.77847021484375,-9.499325926059484,-3.6058404264137147,0.24985315109416842
1761316073931453200,3.788453125,-16.91306605927944,-2.6916692337319255,-2.987142710880935
1761316073941436200,3.798436279296875,-25.464331382536887,-1.8399638495743273,-5.677782017043232
1761316073951418000,3.808418212890625,-33.6530201157093,-0.8910948529988527,-6.428705013763905
1761316073961401300,3.8184013671875,-37.61233992577791,-0.28701617605760693,-5.1409273029386995
1761316073971384000,3.828384033203125,-35.53155188860893,-0.736227093500644,-2.5619360616207123
1761316073981367000,3.838366943359375,-29.942215632259845,-2.1128828189574183,-0.04476184606198221
1761316073991349200,3.848349365234375,-24.31738253059387,-3.500006600806117,1.4247661147616804
1761316074001332000,3.85833203125,-19.880000971651075,-4.4991427263289685,1.738024254926294
1761316074011315200,3.868315185546875,-16.855037064158914,-5.068530759769677,1.2544200694940983
1761316074021297200,3.878297119140625,-14.933227290546894,-5.097379253113269,0.5059417990444228
1761316074031280000,3.888280029296875,-13.240485800284146,-4.685042899081111,0.024686003369279206
1761316074041263000,3.89826318359375,-11.285291643464564,-3.9721968272984025,-0.08932247046343982
1761316074051246000,3.90824609375,-8.83328486007154,-3.2435236563086507,-0.11773403369449079
1761316074061228000,3.91822802734375,-6.095390173998474,-2.603712425598502,-0.41047918185815213
1761316074071211000,3.9282109375,-3.3271810136824844,-2.0112755250036716,-0.9321008901912718
1761316074081194200,3.9381943359375,-0.6552198122441768,-1.4645894449755548,-1.3623084895439446
1761316074091177200,3.94817724609375,1.6960516377240418,-0.9790177588626742,-1.600031642383337
1761316074101159200,3.9581591796875,3.660331602796912,-0.43697950464040036,-1.6057783693417906
1761316074111142100,3.96814208984375,5.345668369761109,0.14177490756064653,-1.4461090547807514
1761316074121125000,3.978125,6.747354199317098,0.7664709867253899,-1.1457700904872268
1761316074131107000,3.988107177734375,7.915296739450096,1.4062506532534955,-0.6532948355309665
1761316074141090000,3.998090087890625,8.910335366526246,2.031567786926031,-0.1824159108329564
1761316074151073300,4.0080732421875,9.72945862376988,2.5479402694940565,0.18499010870251803
1761316074161056000,4.018055908203125,10.278076256382464,2.874474655339122,0.5757786112606526
1761316074171038200,4.0280380859375,10.608874729412793,3.0781203281402587,0.9542679330095648
1761316074181021200,4.038021240234375,10.842690499550104,3.399161669526994,1.2378477048777043
1761316074191004200,4.048004150390625,11.172066246300934,3.7195147363886236,1.3558670583195984
1761316074200987100,4.057987060546875,11.443172174912691,3.8878155395641922,1.4063712108932436
1761316074210969000,4.067968994140625,11.602757172191142,4.021611431069672,1.4140575276121496
1761316074220952000,4.0779521484375,11.839013905739783,4.26691831703633,1.2158039961781353
1761316074230935000,4.08793505859375,12.17727789234519,4.588030093310773,1.0845477061528712
1761316074240917200,4.097917236328125,12.475097640359401,4.7520481046006084,1.0669234943959862
1761316074250900000,4.10789990234375,12.667447427642344,4.791720482036471,1.1319975126571953
1761316074260883200,4.11788330078125,12.731587014597654,4.817927520960569,1.3244611355781555
1761316074270866200,4.1278662109375,12.659320235288142,4.884382399120927,1.485837107926607
1761316074280848100,4.13784814453125,12.52592064962387,4.866268942542374,1.60204970420748
1761316074290831000,4.1478310546875,12.221464240074157,4.876368311752379,1.747070461821556
1761316074300814000,4.15781396484375,11.674227832686901,4.988844059592485,1.8152017487615346
1761316074310797300,4.16779736328125,10.822108314770459,5.038439572888612,1.7383830052360891
1761316074320779000,4.177779052734375,9.954667309081554,4.920741414225101,1.5561371172077954
1761316074330762200,4.18776220703125,9.32348420598507,4.917444710767269,1.4586407657042144
1761316074340745200,4.1977451171875,8.638680571860075,4.8535374712631105,1.5404063179820775
1761316074350727200,4.20772705078125,7.72944215940535,4.558992799396813,1.6063900714993475
1761316074360710100,4.217710205078125,6.582028612560033,4.063219745004177,1.6191782414019107
1761316074370693000,4.227693115234375,5.388535451585054,3.251565216206014,1.604166257970035
1761316074380676000,4.237676025390625,4.357612441179156,2.1758625683531165,1.7284930409930646
1761316074390658000,4.247657958984375,3.006611673721671,0.5854731990620493,1.9715569703385232
1761316074400641300,4.257641357421875,1.1476081926345825,-1.232770986135304,2.292776298640668
1761316074410624000,4.2676240234375,-0.22906945239305496,-3.121868868973851,2.631200736504793
1761316074420606200,4.277606201171875,-1.4224112221986054,-4.645006364507973,2.483528003077209
1761316074430589200,4.287589111328125,-3.3937767616182564,-5.671439370018243,1.1581376238249241
1761316074440572000,4.297572021484375,-7.20341863591671,-6.303247911536693,-1.7355828531235455
1761316074450555100,4.30755517578125,-13.223126669204234,-5.937002277550101,-5.01238918583095
1761316074460537000,4.317537109375,-20.358450843060016,-4.775980768851936,-6.823802063703536
1761316074470520000,4.32752001953125,-26.545177823019028,-3.7975574687510725,-6.618892070055008
1761316074480503000,4.3375029296875,-29.723083051991463,-3.37162367426008,-5.005386613592505
1761316074490486300,4.347486328125,-29.694799206793306,-3.2025928032442925,-2.812570572350919
1761316074500464000,4.357464111328125,-27.42079395185709,-3.4864170513927935,-0.9148024763226509
1761316074510447400,4.367447265625,-24.139215582442283,-4.288790833887457,-0.06177413646560162
1761316074520430300,4.377430419921875,-21.083840170073508,-4.96748153809011,0.15094284113943576
1761316074530412300,4.387412353515625,-18.282812443739175,-5.1772313729852435,0.12688012076765298
1761316074540395300,4.397395263671875,-15.566500643920898,-5.125136444088817,-0.10135931054204701
1761316074550378200,4.407378173828125,-13.043710013252497,-4.8235941684201356,-0.33411863042898476
1761316074560361200,4.417361328125,-10.618894603645801,-4.200273469261825,-0.4608581736821681
1761316074570343200,4.42734326171875,-8.2747122351557,-3.4707109482169147,-0.4814028029303997
1761316074580326400,4.437326416015625,-6.016410745307803,-2.7882909943580625,-0.6172562845528126
1761316074590309000,4.44730908203125,-3.859591023337841,-2.068856776356697,-0.8942343200683593
1761316074600291300,4.457291259765625,-1.743968988674879,-1.2649687899067996,-1.2289198636651038
1761316074610274300,4.4672744140625,0.44603754810392854,-0.5834323408842087,-1.5643215927071867
1761316074620257000,4.477257080078125,2.552287358787656,-0.10337328071296215,-1.9010316278688608
1761316074630240300,4.487240234375,4.4740269897729155,0.31507863359004257,-2.0783402056254445
1761316074640222200,4.49722216796875,6.224759481233358,0.898563581444323,-1.8921654537156223
1761316074650205200,4.507205078125,7.808290070670843,1.4933631195172667,-1.5162807615071534
1761316074660188200,4.517188232421875,9.075874888294935,1.9708067364931106,-0.9717697604957968
1761316074670171100,4.527171142578125,9.847467163556814,2.3562422241181133,-0.05872179969027638
1761316074680153000,4.537153076171875,10.123376693058013,2.7659923610493538,1.054146065083146
1761316074690136300,4.54713623046875,10.244143591642379,3.1973733150303363,1.9057697623066603
1761316074700119300,4.557119384765625,10.39722169124484,3.4569393202349543,2.3944440906099973
1761316074710101200,4.567101318359375,10.563483097547293,3.572807048600912,2.5033897646278143
1761316074720084200,4.577084228515625,10.843334642672538,3.687696579584479,2.444371758469939
1761316074730067200,4.587067138671875,11.119504868936538,3.846482827700674,2.3470257752224803
1761316074740050400,4.597050537109375,11.310890195101498,3.9441903377369045,2.106575973898172
1761316074750032100,4.6070322265625,11.442712740707396,3.9078707778602837,1.8405208989351987
1761316074760015400,4.617015380859375,11.459970164978504,3.828991302412748,1.621696215572208
1761316074769998300,4.626998291015625,11.472718587392569,3.8646296020269393,1.493280409669876
1761316074779980300,4.636980224609375,11.520631846690177,3.8641923796534536,1.434140384567529
1761316074789963300,4.64696337890625,11.506778677904606,3.8958097531884905,1.4624451264232396
1761316074799946200,4.6569462890625,11.45777470076084,4.058009024618566,1.6535095500707626
1761316074809929200,4.66692919921875,11.264751544260978,4.140766218282282,1.9360344060584902
1761316074819911200,4.6769111328125,10.782303543126583,4.144885636299849,2.2371932353675366
1761316074829894400,4.686894287109375,10.280375765496492,4.1580967077896,2.4066281571395693
1761316074839877000,4.696877197265625,9.78366952190697,4.169097994275391,2.4280843482747674
1761316074849860000,4.706860107421875,9.278170315530895,4.034467113250494,2.263169680406153
1761316074859842300,4.71684228515625,8.761846348279715,3.9481294307515022,1.9173177228897809
1761316074869825000,4.726824951171875,8.385155892646312,3.8546477217167614,1.6041440461382268
1761316074879808300,4.736808349609375,8.020935042485593,3.4986902575105425,1.4624914497829973
1761316074889790200,4.746790283203125,7.5346952478528015,2.9429426268875596,1.49151500743255
1761316074899773200,4.756773193359375,6.976206209567189,2.3681311070933937,1.6838263624012468
1761316074909756200,4.766756103515625,6.006750936558842,1.4620815538078547,1.9076351177871227
1761316074919739100,4.7767392578125,4.080644927057624,-0.07774637976437807,1.8504174390494823
1761316074929721300,4.786721435546875,1.4238877244919537,-2.054974089215696,1.452004104168713
1761316074939704000,4.7967041015625,-1.3196101884156464,-4.166446018461883,0.8181260628998279
1761316074949687300,4.806687255859375,-4.614896180665493,-5.739401730132102,0.023530805452167985
1761316074959669200,4.816669189453125,-9.85392613043785,-5.9005316187649965,-1.4432609718732534
1761316074969652200,4.82665234375,-17.330115413308143,-5.233161349999905,-4.338559073401988
1761316074979635200,4.83663525390625,-25.551490610551834,-4.305080874431133,-7.700194437611103
1761316074989618200,4.8466181640625,-31.73070765327215,-3.3122780435830355,-9.510321951848267
1761316074999600000,4.85660009765625,-34.49970241100788,-2.750489963752031,-8.876344834119081
1761316075009583400,4.866583251953125,-33.91955274505615,-2.430570173741132,-6.324357919582725
1761316075019566300,4.87656640625,-30.27769846371412,-2.3460861562848088,-3.5701688090518116
1761316075029549000,4.886549072265625,-25.18120300769806,-3.06653627333045,-1.6844056235939264
1761316075039531300,4.89653125,-20.022736540937423,-3.996016386564076,-0.8414699674777686
1761316075049514200,4.90651416015625,-14.953477466893196,-4.660910036082566,-0.9155353206418454
1761316075059497500,4.91649755859375,-10.489827494227885,-5.131455125716328,-1.3412642402105033
1761316075069479200,4.926479248046875,-6.874315276366472,-5.240943089917302,-1.4570356685951351
1761316075079462400,4.93646240234375,-4.08486575962305,-4.795212415805459,-1.1550132812593132
1761316075089445400,4.9464453125,-2.00601891964972,-3.978715999934077,-0.9344293331388384
1761316075099428000,4.956427978515625,-0.3772802382200956,-3.1015637475699185,-1.0125468843031673
1761316075109410300,4.966410400390625,1.1062778188586235,-2.3610832344084978,-1.2673676677420735
1761316075119393300,4.976393310546875,2.398657470521331,-1.7342377221249043,-1.4281459664583205
1761316075129376300,4.986376220703125,3.1048160273641345,-0.9383625078693032,-1.0724811285231262
1761316075139358200,4.996358154296875,3.4146231502920386,0.04820099019780755,-0.43047406826913354
1761316075149341400,5.006341552734375,3.6236622065693136,0.7885334731906652,0.018293123994395137
1761316075159324200,5.01632421875,3.750308810842037,1.2464607810527086,0.2694379223342985
1761316075169307100,5.02630712890625,3.7980052125185724,1.564604501301795,0.3828704594425857
1761316075179289300,5.036289306640625,4.048271766719222,1.8518696836844086,0.3782565359063446
1761316075189272000,5.04627197265625,4.752198034465312,2.1118020379833875,0.5025459825936704
1761316075199255300,5.05625537109375,5.750639747983217,2.2203793170802295,0.6537706363491713
1761316075209238300,5.06623828125,7.022412664946914,2.2131232084721324,0.8125462169408798
1761316075219220200,5.07622021484375,8.346286356025933,2.240894720233977,0.9341025123372674
1761316075229203200,5.086203125,9.540561022767424,2.278128764607012,1.0237961542006582
1761316075239186200,5.096186279296875,10.603238769352435,2.284333464466035,1.300312198227644
1761316075249168100,5.106168212890625,11.44490820492506,2.236597315301001,1.8731658619523048
1761316075259151000,5.116151123046875,11.908020221948624,2.2616005313932894,2.442820145113766
1761316075269134300,5.12613427734375,12.004573885774612,2.392949614268541,2.6837892941370605
1761316075279117300,5.136117431640625,11.85571135804057,2.4582240504726767,2.586477797681093
1761316075289099300,5.146099365234375,11.400753421378136,2.357104978427291,2.351481147196144
1761316075299082200,5.156082275390625,10.785473989856243,2.2384166396826504,2.0097481693059205
1761316075309065200,5.166065185546875,10.30419737058878,2.1849416546046734,1.5536299566924572
1761316075319047200,5.176047119140625,9.977785149818658,2.2892378953814507,1.1787244847796856
1761316075329030400,5.186030517578125,9.743435711196064,2.4179575065359473,1.0053101379826663
1761316075339013400,5.196013427734375,9.530535303315519,2.456805708107352,1.0033970709029585
1761316075348996000,5.20599609375,9.308521614652872,2.422021979495883,1.0601552423700689
1761316075358978300,5.215978271484375,9.098978700506686,2.444811903452873,1.1527332074981183
1761316075368961300,5.225961181640625,8.94130392076373,2.562745916698873,1.3733160596400498
1761316075378944300,5.2359443359375,8.683170286449789,2.699163388879597,1.5656290220439433
1761316075388926200,5.24592626953125,8.1668241073668,2.795875458137691,1.620351084573567
1761316075398909400,5.255909423828125,7.089732635504007,2.799375575213134,1.8412950981780885
1761316075408892200,5.26589208984375,5.3654678797304625,2.5009444173023105,2.063503724890947
1761316075418875100,5.275875244140625,3.2288352057427168,1.8085285546079277,2.203454047372937
1761316075428857300,5.285857421875,1.2081307581365108,0.6624632075011729,2.1081977298811077
1761316075438840000,5.295840087890625,-0.5847679734021425,-1.0001876804023981,1.5296427857749164
1761316075448823300,5.3058232421875,-2.167144132107496,-2.8320290137976407,0.7196871698491275
1761316075458806300,5.31580615234375,-4.196495996549725,-4.041581621430814,0.08422708355318755
1761316075468788200,5.325788330078125,-6.368007676216959,-3.849106746463477,-0.3994114060074091
1761316075478771200,5.335771240234375,-8.344324116042255,-3.0874773545503613,-0.6052247051712125
1761316075488754200,5.345754150390625,-11.286488744294642,-2.6512074594840405,-0.10600479826033114
1761316075498736400,5.355736328125,-16.08113008221388,-2.0359642683193084,0.10157441459745169
1761316075508719000,5.365718994140625,-22.66536468038559,-0.8597123111329972,-1.505841492818296
1761316075518702300,5.375702392578125,-28.639617953443526,-0.01681903285384178,-3.9461645604193207
1761316075528684300,5.385684326171875,-32.09356715195179,0.3645635261185467,-5.031108499348163
1761316075538667300,5.395667236328125,-31.88475255208015,0.34472339187785983,-4.205051935710013
1761316075548650200,5.405650146484375,-28.091004412484168,-0.3082894118413329,-2.7832576763659715
1761316075558633200,5.41563330078125,-22.63695691654682,-1.3373155025847256,-1.5140443807572126
1761316075568615200,5.425615234375,-17.05333377714753,-2.415363106128573,-0.7722041235499083
1761316075578598100,5.43559814453125,-12.132810974109173,-3.5646178969264026,-0.7311524205848574
1761316075588581400,5.445581298828125,-8.332124559682606,-4.351051767489314,-0.9491348809700458
1761316075598564400,5.455564453125,-5.634190712597966,-4.60319843634814,-1.2199018599510192
1761316075608546300,5.46554638671875,-3.8259278231889007,-4.377994719472527,-1.5294515009865164
1761316075618529300,5.475529296875,-2.493721772572398,-3.817515676413476,-1.7399568304240702
1761316075628512300,5.48551220703125,-1.2622224138081073,-3.024013182638585,-1.7930967383287846
1761316075638494200,5.495494140625,0.1433598386645317,-2.2082743071362376,-1.7431635175108908
1761316075648477400,5.5054775390625,1.665034568169713,-1.4753271120890974,-1.6519601286716759
1761316075658460400,5.51546044921875,3.190944743287563,-0.720552408376336,-1.4851115701310336
1761316075668443100,5.525443115234375,4.6195361154258245,0.07184270867854356,-1.233354631242156
1761316075678425300,5.53542529296875,5.924798045015335,0.7707713142678141,-0.8755571651924401
1761316075688408300,5.545408203125,7.077768056944012,1.3156678805306552,-0.43596316720470785
1761316075698391300,5.555391357421875,8.070668502947688,1.7304130492702126,0.05355181317385286
1761316075708373200,5.565373291015625,8.961821223613619,2.022257522267103,0.4805809651535004
1761316075718356500,5.5753564453125,9.64170785960257,2.3046263109102845,0.7718579404607415
1761316075728339200,5.585339111328125,10.271679248821735,2.54618027408421,1.052845357748121
1761316075738322200,5.595322265625,10.758179155695437,2.654751707962155,1.3432532220706344
1761316075748304400,5.605304443359375,11.058319455611706,2.7409084809362887,1.463631559728831
1761316075758287000,5.615287109375,11.299553977572918,2.8141064036160706,1.3907324738651514
1761316075768270300,5.625270263671875,11.56693182557225,2.8322844498634336,1.2559941869430242
1761316075778252300,5.635252197265625,11.857459078490733,2.722435251134634,1.0477033186845481
1761316075788235300,5.6452353515625,12.048971830427647,2.6271289570212364,0.8706701968684792
1761316075798218200,5.65521826171875,12.042785250747203,2.574236740267277,0.6176870041202753
1761316075808201200,5.665201171875,11.84696574152708,2.531100193852186,0.3463684922037646
1761316075818183200,5.67518310546875,11.597229933202266,2.4759976075723764,0.21463340568561107
1761316075828166100,5.685166259765625,11.372551409244537,2.307420910064876,0.2562967012103647
1761316075838149400,5.6951494140625,11.148033044284581,2.167927975961566,0.3886738484917208
1761316075848131000,5.705131103515625,10.910599083650112,2.2679954931274056,0.6029692909272387
1761316075858114300,5.7151142578125,10.606178914457558,2.41706640291512,0.8710206908065825
1761316075868097300,5.72509716796875,10.257499916821718,2.496863577729463,1.0986962776884437
1761316075878080300,5.735080322265625,9.619180970495938,2.47669961836189,1.1452169135838746
1761316075888062200,5.745062255859375,8.666924669569731,2.3099060048788784,1.1337523204352706
1761316075898045200,5.755045166015625,7.529177361214161,2.157116366828978,1.1225226320210844
1761316075908028400,5.7650283203125,6.17359920283854,2.015276869599521,1.0206371787130832
1761316075918010000,5.775010009765625,4.1814486495435235,1.6530170903787016,0.6878046425718813
1761316075927993300,5.784993408203125,1.780476472339034,0.9837918413966894,0.16162600158676504
1761316075937976300,5.794976318359375,-0.24657471394538877,0.1460048002153635,-0.4346786803521216
1761316075947959300,5.804959228515625,-1.7920500057548283,-0.943523251633346,-0.5519668699752539
1761316075957941200,5.814941162109375,-3.4518642089277503,-2.1000094549894333,0.2535117831995711
1761316075967924500,5.824924560546875,-5.516555097776651,-3.166409144707024,1.6408520208105444
1761316075977907200,5.8349072265625,-7.505788302320242,-3.7619694380193947,2.4863801776379346
1761316075987889400,5.844889404296875,-8.291879058533906,-3.985529187080264,2.1937449926547705
1761316075997872400,5.854872314453125,-9.00219648862183,-4.064961327974498,0.9720907360784709
1761316076007855000,5.864855224609375,-11.67709900420904,-3.7334433084979652,-0.45414267475679515
1761316076017838300,5.87483837890625,-16.3542724850893,-2.9641815220102665,-1.7720688556082547
1761316076027820300,5.8848203125,-21.395967844903467,-2.170532605502009,-3.4568455044716595
1761316076037803300,5.89480322265625,-25.123333002531528,-1.7451093908816575,-5.071293210220337
1761316076047786200,5.9047861328125,-26.187455102705954,-1.4797639254927635,-5.508883832496404
1761316076057768400,5.9147685546875,-24.21922727679014,-1.3936428083539008,-4.485229351788759
1761316076067751200,5.924751220703125,-20.027260740363598,-1.7942910626798867,-3.0092744631901382
1761316076077734100,5.934734130859375,-15.30645854563713,-2.5521485348388553,-1.8728952283173799
1761316076087717400,5.94471728515625,-11.07060026051402,-3.0626506640687583,-1.0471762260705233
1761316076097699000,5.954698974609375,-7.582597985756397,-3.309768398849666,-0.7409693195916712
1761316076107682300,5.964682373046875,-4.861159928965568,-3.2451217391550538,-0.8581672005828469
1761316076117665300,5.974665283203125,-2.711548530939221,-2.714275617815554,-0.8040319249652326
1761316076127647500,5.9846474609375,-0.9999129551142454,-1.9738412818834183,-0.27012922906670717
1761316076137630200,5.994630126953125,0.5312187540441751,-1.308572077050805,0.2993161971170455
1761316076147613200,6.00461328125,1.8997382270574568,-0.7547457698792218,0.5537594524804502
1761316076157596400,6.014596435546875,3.148402071112394,-0.1938882488965988,0.4559166986919939
1761316076167578000,6.024578125,4.323392776191234,0.2594061384677887,0.09702371075684205
1761316076177561300,6.034561279296875,5.350083263593912,0.5642144301950931,-0.2979121390054002
1761316076187544300,6.04454443359375,6.202777366527915,0.8453376026913523,-0.5665971240805462
1761316076197526300,6.0545263671875,6.910285584414005,1.1024719968348742,-0.8557454533286393
1761316076207509200,6.06450927734375,7.342488668432831,1.3559706648245453,-1.0917367408741265
1761316076217492200,6.0744921875,7.614447414481639,1.5393492101445794,-1.060844905134663
1761316076227475200,6.08447509765625,7.701007507559656,1.6211740913942456,-0.8470511286109685
1761316076237457200,6.09445703125,7.54993665612638,1.6510770622268318,-0.5608359302053227
1761316076247440400,6.1044404296875,7.347792620059847,1.63022044441998,-0.1489562338994816
1761316076257423000,6.114423095703125,7.156544656538963,1.6629577618956566,0.4537468073070049
1761316076267405300,6.1244052734375,7.0886845877557985,1.7214963139735162,0.9010206922728567
1761316076277388300,6.13438818359375,7.227880877000093,1.6779827509395777,1.1138793799035251
1761316076287371500,6.14437158203125,7.498060922938585,1.565706909585744,1.1478061263594777
1761316076297354200,6.154354248046875,7.862182988899946,1.3815379445403813,1.0381135064318776
1761316076307336400,6.16433642578125,8.232890278470515,1.2482235529415309,0.9104097943216561
1761316076317319400,6.1743193359375,8.562254919305444,1.244491672936827,0.7560298183403908
1761316076327302100,6.18430224609375,8.818969334471225,1.2905565278887747,0.47485601163543756
1761316076337284400,6.194284423828125,9.049909841433166,1.28219625743106,0.15615652066711336
1761316076347267300,6.204267333984375,9.097520902913809,1.2699246587485074,0.09666675054533407
1761316076357250300,6.214250244140625,8.915337120336293,1.3008635485000908,0.22058548249043522
1761316076367233300,6.2242333984375,8.764097342076898,1.3539187007308005,0.3239639143025502
1761316076377215500,6.234215576171875,8.6741411768198,1.412743814665079,0.3625556934274733
1761316076387198200,6.2441982421875,8.45757873930037,1.4911471970334649,0.3608544790001586
1761316076397181200,6.25418115234375,8.174528690394759,1.5081652595907449,0.3219841751947999
1761316076407163400,6.264163330078125,7.638233363738656,1.5269947554841636,0.36775640387572345
1761316076417146000,6.27414599609375,6.694935445293784,1.5727376850053667,0.4231623935488984
1761316076427129300,6.28412939453125,5.775105496197939,1.5598764498665927,0.5016234609212726
1761316076437112300,6.2941123046875,4.95554501658082,1.286330434626341,0.6905000191356986
1761316076447094300,6.30409423828125,3.500286586791277,0.7110477901890874,1.1277196161422878
1761316076457077200,6.3140771484375,1.0771896715402602,-0.072559917037189,1.7205971731767058
1761316076467060200,6.324060302734375,-1.7475082687169312,-1.0569859646841884,2.268300613553822
1761316076477042200,6.334042236328125,-4.9268899999827145,-2.3045190511435267,2.4998940314665434
1761316076487025200,6.344025146484375,-7.3604282297492025,-3.7193420101702213,2.191651527506858
1761316076497008400,6.35400830078125,-9.028315849262475,-4.894815238068998,1.7702603448815644
1761316076506992400,6.363992431640625,-10.841674600505828,-5.450068070912361,0.905880407263711
1761316076516974300,6.373974365234375,-12.562312982475756,-4.834638417264819,-0.08291478624506853
1761316076526957300,6.383957275390625,-14.580793324291704,-3.4797587625473736,-0.3158734006969258
1761316076536940300,6.393940185546875,-17.221625812494754,-2.3290537729412315,-0.22463662104476242
1761316076546922200,6.403922119140625,-19.107045591342448,-1.8081246499821542,-0.09727989574130624
1761316076556905200,6.4139052734375,-19.871964964711665,-1.5692643098063765,0.06661160309202968
1761316076566888400,6.423888427734375,-19.90453686249256,-1.31512749004364,0.18044398970548062
1761316076576870100,6.4338701171875,-18.748932410407065,-1.214542378744483,0.3177080687781796
1761316076586853400,6.443853271484375,-16.445731456124783,-1.537769393607229,0.4407697637688368
1761316076596836400,6.45383642578125,-13.51577573658228,-1.950528356965631,0.6161351715683937
1761316076606819000,6.463819091796875,-10.324007986474037,-2.127442528577149,0.7451116800934076
1761316076616801300,6.47380126953125,-7.5402002750098704,-2.099750804053247,0.6995157578274607
1761316076626784300,6.4837841796875,-5.156814023378491,-1.7844314935751258,0.5150332698535174
1761316076636767200,6.493767333984375,-2.8842145435869693,-1.2596785745441912,0.29656289808722214
1761316076646749200,6.503749267578125,-0.9312211116820573,-0.9519226850576699,-0.08426701370477675
1761316076656732400,6.513732421875,0.5786392613887786,-0.8275054472722113,-0.6385491748850792
1761316076666715100,6.523715087890625,1.6596107895553112,-0.6017109248965978,-1.2025985507115722
1761316076676698000,6.533697998046875,2.3722534477204085,-0.32293592296168205,-1.6491256358981132
1761316076686680300,6.543680419921875,2.9154473017185927,-0.04917217331752181,-1.9764704613432287
1761316076696663000,6.5536630859375,3.476387240287661,0.13655658839046955,-2.2580600823074577
1761316076706646300,6.563646240234375,4.0464439667701715,0.2199839364007115,-2.474434011517465
1761316076716628200,6.573628173828125,4.662991810792684,0.1585607687972486,-2.536556997953355
1761316076726611200,6.583611083984375,5.167918770238757,0.06595803455412387,-2.412811521949619
1761316076736594200,6.59359423828125,5.642576848149299,0.10534545756876468,-2.1349786231704053
1761316076746577200,6.6035771484375,6.2154573998808855,0.2202389340750873,-1.6660286937735973
1761316076756559000,6.61355908203125,6.821216723385453,0.2778980729699135,-0.9985196741249411
1761316076766542000,6.6235419921875,7.250440499332547,0.2719467633500695,-0.32054603215046223
1761316076776525300,6.633525390625,7.490456877675652,0.2815099798567593,0.2941204368385486
1761316076786507000,6.643507080078125,7.641365232023596,0.3557594574160874,0.7812867899980396
1761316076796490200,6.653490234375,7.806247751188278,0.43110169864818454,0.9417329341504722
1761316076806473200,6.66347314453125,7.9063862877637145,0.41381767863109703,0.7928897687040269
1761316076816456200,6.673456298828125,7.921375182580947,0.3545486203216016,0.5346809137294068
1761316076826438100,6.683438232421875,8.031067729443311,0.2264962409041822,0.31920185099989173
1761316076836421400,6.69342138671875,8.256281675451994,0.08300386190116404,0.15757727418523282
1761316076846404400,6.703404296875,8.507599200010299,0.0029519816733896732,0.017988980815513058
1761316076856386300,6.71338623046875,8.586734111523628,0.023665683878213165,-0.060620107592269774
1761316076866369300,6.723369384765625,8.415240649786591,0.11383125410228967,-0.024093352972064167
1761316076876352300,6.733352294921875,8.160324808475375,0.274116800865531,-0.014250520372972824
1761316076886334200,6.743334228515625,7.980010326901078,0.4444013252042234,-0.0883110283985734
1761316076896317200,6.753317138671875,7.837517918720841,0.627193010547012,0.09045534695088862
1761316076906300400,6.763300537109375,7.654408253470063,0.8262779513038694,0.4745091709591448
1761316076916283100,6.773283203125,7.45000913195312,1.0192856179736554,0.8512947575300931
1761316076926265300,6.783265380859375,6.85201225914359,1.1134110317394137,1.165668238525465
1761316076936248300,6.793248291015625,6.1516486523151395,1.0954062962323428,1.1907185086298733
1761316076946231000,6.80323095703125,5.4154713893055915,0.8921561986200511,1.0290171037193387
1761316076956213200,6.813213134765625,4.808269465777277,0.5587317610003054,0.8964895516492426
1761316076966196200,6.8231962890625,4.084939409381151,0.18731573863849044,0.8444479603752494
1761316076976179200,6.83317919921875,2.8477386241048572,-0.35527810363993045,0.6363797218915075
1761316076986162200,6.843162109375,0.9934276847481727,-1.1821201185673476,0.3363707202047109
1761316076996144400,6.853144287109375,-1.5461428158074617,-2.0606495045036075,0.32680892847012727
1761316077006127400,6.86312744140625,-4.8447196662962435,-2.454802551591396,1.1242635574042796
1761316077016110000,6.873110107421875,-8.175344682952762,-2.0574786193825303,2.25503459700644
1761316077026092300,6.88309228515625,-10.443781197845935,-1.3561883992284536,2.7667487323746083
1761316077036075300,6.8930751953125,-11.887283723390102,-0.5224329516507685,2.4433491374239322
1761316077046058200,6.903058349609375,-13.215565294039248,0.12242343361973762,1.4164993678063154
1761316077056041200,6.913041259765625,-14.220524426627158,0.14161431017145515,0.1393448126032017
1761316077066023400,6.9230234375,-14.599621943402289,-0.22662220537140965,-0.9795268774285912
1761316077076006100,6.933006103515625,-14.738252999979256,-0.6474554618529975,-1.9722537204310298
1761316077085989000,6.942989013671875,-14.642158770358561,-0.8351223520167171,-2.4898405472248792
1761316077095971300,6.952971435546875,-14.142474387741087,-0.7594653457470237,-2.39092804531306
1761316077105954000,6.9629541015625,-13.185474107158184,-0.774967889174819,-1.8371116750136016
1761316077115937300,6.972937255859375,-11.655123319244383,-0.9703348323218524,-1.0021871836565435
1761316077125920300,6.982920166015625,-9.75015771292746,-1.4311466095790266,-0.2614596369314939
1761316077135902200,6.992902099609375,-7.834296034064889,-1.9721653114952147,0.4532957756038755
1761316077145885200,7.00288525390625,-6.16751900614202,-2.2517396471142765,1.0389510532345623
1761316077155868400,7.012868408203125,-4.835502925139665,-2.1935767964810133,1.4230188327029347
1761316077165850000,7.02285009765625,-3.7895360748589035,-1.82919330310449,1.535087607177347
1761316077175833300,7.032833251953125,-2.7584803779840468,-1.3908787504680453,1.353847096799314
1761316077185816300,7.04281640625,-1.8903133961081504,-1.0126783286631107,0.9863395531181246
1761316077195798300,7.05279833984375,-1.3465426190048455,-0.7322381699949503,0.5478013477936386
1761316077205781200,7.06278125,-0.8014934925287962,-0.43349458513408895,0.28381632057037204
1761316077215764200,7.07276416015625,-0.2531312959820032,-0.03091901600733399,0.1329722362308297
1761316077225747500,7.08274755859375,0.14452888244390485,0.1708797137528658,-0.10743105907063
1761316077235729200,7.092729248046875,0.5602753371804953,0.14775420116595922,-0.3608740604834631
1761316077245712400,7.10271240234375,1.0402549023747443,0.11399199762195349,-0.5069919291518629
1761316077255695400,7.1126953125,1.8229864112883805,0.04499313406720757,-0.7147973519809544
1761316077265677300,7.12267724609375,2.720755919745564,-0.12942783248908818,-0.9811767635274677
1761316077275660300,7.132660400390625,3.525461944580078,-0.23847725914232432,-1.1390625556726008
1761316077285643300,7.142643310546875,4.280575378727913,-0.19203692194148897,-1.0766074146728961
1761316077295626200,7.152626220703125,4.917568044885993,-0.06594385989829897,-0.7849516691811382
1761316077305608200,7.162608154296875,5.321434676736593,0.006529401768743992,-0.4555087024129927
1761316077315591400,7.17259130859375,5.675267403873801,0.015354001802578567,-0.16132979511916637
1761316077325574100,7.18257421875,6.090430505764484,0.061096127606183284,0.05844586882572621
1761316077335556400,7.192556396484375,6.59231210616529,0.15602416299171745,0.15109046944919974
1761316077345539300,7.202539306640625,7.087399224120378,0.21401962116882203,0.09408142849355935
1761316077355522000,7.21252197265625,7.573591672480106,0.1998007608760148,-0.06982406233251094
1761316077365504300,7.222504150390625,8.01967598233521,0.22789894730895757,-0.279571851401031
1761316077375487200,7.2324873046875,8.404972353750466,0.3220300601631403,-0.4770611935295164
1761316077385470200,7.24247021484375,8.610801215809584,0.3862994109779596,-0.5784057448938489
1761316077395453200,7.252453125,8.57703046363294,0.4755022736497223,-0.5413575054164975
1761316077405435400,7.262435302734375,8.384157529258728,0.5796329486012458,-0.35926490825377405
1761316077415418000,7.272418212890625,8.412321547469496,0.6926676454983651,-0.20316884906962512
1761316077425401000,7.282401123046875,8.230859649425744,1.001895214972645,-0.26072909416723994
1761316077435383300,7.29238330078125,8.066966141298412,1.218444793010503,-0.705277243963629
1761316077445366300,7.3023662109375,7.77136874550879,1.2700639210887252,-1.149558230723813
1761316077455349200,7.312349365234375,7.245970660442113,1.2198021989688277,-1.3345561208739876
1761316077465332200,7.322332275390625,6.938450187146663,1.1938095334477723,-1.4279182951822875
1761316077475314200,7.332314208984375,6.689416974133253,1.2057904786206781,-1.3558607747092841
