time,seconds_elapsed,z,y,x
1761316097906073300,0.0680732421875,0.555839478969574,0.3946131765842438,-0.07650089263916016
1761316097916055600,0.0780556640625,0.2913658916950226,0.37899425625801086,0.17724807560443878
1761316097926038500,0.08803857421875,0.08307740837335587,-0.006359841208904982,0.3780461549758911
1761316097936020500,0.0980205078125,0.006700411904603243,-0.5284619331359863,0.46242162585258484
1761316097946003500,0.10800341796875,0.03284919261932373,-1.0005418062210083,0.4143177568912506
1761316097955985400,0.1179853515625,0.08341019600629807,-1.3440043926239014,0.27581074833869934
1761316097965968400,0.127968505859375,0.1337125152349472,-1.5020073652267456,0.08497315645217896
1761316097975951400,0.137951416015625,0.17995350062847137,-1.4961026906967163,-0.16257064044475555
1761316097985933300,0.147933349609375,0.25713858008384705,-1.4168213605880737,-0.4092318117618561
1761316097995916300,0.157916259765625,0.3749852180480957,-1.3359549045562744,-0.593919575214386
1761316098005898500,0.1678984375,0.4994078278541565,-1.2940391302108765,-0.7142947316169739
1761316098015881200,0.177881103515625,0.5838069319725037,-1.1915702819824219,-0.7918169498443604
1761316098025864400,0.187864501953125,0.5958835482597351,-0.9602252244949341,-0.851325511932373
1761316098035846400,0.197846435546875,0.559624433517456,-0.6557220816612244,-0.9241881966590881
1761316098045829400,0.207829345703125,0.46883058547973633,-0.4082481265068054,-1.0046201944351196
1761316098055811300,0.217811279296875,0.35034480690956116,-0.20231042802333832,-1.0687038898468018
1761316098065794600,0.227794677734375,0.24488362669944763,0.025695031508803368,-1.0676093101501465
1761316098075776300,0.2377763671875,0.18426652252674103,0.2605192959308624,-0.9723322987556458
1761316098085759500,0.247759521484375,0.16213750839233398,0.4698922336101532,-0.8144713044166565
1761316098095741200,0.2577412109375,0.14945687353610992,0.53294837474823,-0.596245288848877
1761316098105724400,0.267724365234375,0.14842835068702698,0.41492828726768494,-0.32707878947257996
1761316098115707400,0.277707275390625,0.1599496454000473,0.21542418003082275,0.008979995734989643
1761316098125689600,0.287689697265625,0.19618646800518036,0.036657363176345825,0.37070998549461365
1761316098135672300,0.29767236328125,0.24207912385463715,-0.10506000369787216,0.7016164064407349
1761316098145654500,0.307654541015625,0.28813210129737854,-0.224104106426239,0.951082706451416
1761316098155637500,0.317637451171875,0.33632731437683105,-0.282012403011322,1.1004314422607422
1761316098165619500,0.327619384765625,0.33788180351257324,-0.26960206031799316,1.1757901906967163
1761316098175602400,0.3376025390625,0.2936093807220459,-0.2596183717250824,1.16389000415802
1761316098185585400,0.34758544921875,0.24527381360530853,-0.27647191286087036,1.100903034210205
1761316098195567400,0.3575673828125,0.19614055752754211,-0.34143081307411194,1.017304539680481
1761316098205550300,0.36755029296875,0.12589728832244873,-0.4467569589614868,0.9615113735198975
1761316098215532300,0.3775322265625,0.06010523810982704,-0.4426751434803009,0.9485021233558655
1761316098225515300,0.387515380859375,0.027335839346051216,-0.5037973523139954,0.8969723582267761
1761316098235497500,0.39749755859375,-0.011471034958958626,-0.5737670660018921,0.8615522980690002
1761316098245480200,0.407480224609375,-0.018942533060908318,-0.551500141620636,0.8475584983825684
1761316098255463400,0.41746337890625,0.08925428986549377,-0.5074892640113831,0.8902761340141296
1761316098265445400,0.4274453125,0.21764954924583435,-0.3560832142829895,0.9090671539306641
1761316098275428400,0.437428466796875,0.22176535427570343,-0.1376933604478836,0.9196994304656982
1761316098285410300,0.447410400390625,0.04065069556236267,-0.016749361529946327,0.9530674815177917
1761316098295393500,0.4573935546875,-0.14061668515205383,0.04431227594614029,0.9392980933189392
1761316098305375200,0.467375244140625,-0.2260490208864212,0.2285391092300415,0.8383341431617737
1761316098315358500,0.4773583984375,-0.22637563943862915,0.6427974700927734,0.6790416836738586
1761316098325341400,0.487341552734375,-0.13256900012493134,1.1215174198150635,0.4832402169704437
1761316098335323400,0.497323486328125,0.030465487390756607,1.5135562419891357,0.3226078152656555
1761316098345306400,0.507306396484375,0.17021113634109497,1.536184549331665,0.11327723413705826
1761316098355288600,0.51728857421875,0.24128086864948273,0.982357919216156,-0.3315177857875824
1761316098365271300,0.527271240234375,0.3035386800765991,-0.3236096203327179,-1.1345653533935547
1761316098375253500,0.53725341796875,0.4215060770511627,-2.1334824562072754,-2.2954776287078857
1761316098385236500,0.547236572265625,0.5348057746887207,-3.174685001373291,-3.188169002532959
1761316098395219200,0.55721923828125,0.47353217005729675,-2.757139205932617,-3.16033673286438
1761316098405201400,0.567201416015625,0.29406601190567017,-0.8137862682342529,-2.2376019954681396
1761316098415184400,0.577184326171875,0.18166707456111908,1.3238577842712402,-1.1188435554504395
1761316098425166300,0.587166259765625,0.19027386605739594,2.4564995765686035,-0.3156241476535797
1761316098435149300,0.5971494140625,0.24998876452445984,2.746973991394043,0.03432420641183853
1761316098445131300,0.60713134765625,0.28845441341400146,2.4704983234405518,0.05978455767035484
1761316098455114200,0.6171142578125,0.2661380469799042,1.9011764526367188,-0.15540887415409088
1761316098465096400,0.627096435546875,0.21246230602264404,1.3024650812149048,-0.477411150932312
1761316098475079400,0.637079345703125,0.1557428538799286,0.8109784722328186,-0.8229213356971741
1761316098485062400,0.6470625,0.12862016260623932,0.39516985416412354,-1.105043888092041
1761316098495044400,0.65704443359375,0.12650401890277863,-0.006987958215177059,-1.2352925539016724
1761316098505027300,0.66702734375,0.15307651460170746,-0.43156319856643677,-1.1532647609710693
1761316098515009300,0.67700927734375,0.19859352707862854,-0.8629626631736755,-0.8667236566543579
1761316098524992500,0.686992431640625,0.229549840092659,-1.1621352434158325,-0.47277766466140747
1761316098534974500,0.696974365234375,0.2037552148103714,-1.3420990705490112,-0.06049609184265137
1761316098544957400,0.70695751953125,0.17183056473731995,-1.4516767263412476,0.34091445803642273
1761316098554940400,0.7169404296875,0.1238948255777359,-1.5348552465438843,0.7025770545005798
1761316098564922600,0.726922607421875,0.07809218764305115,-1.5573890209197998,1.0185507535934448
1761316098574905300,0.7369052734375,0.05899939313530922,-1.5028340816497803,1.2367660999298096
1761316098584887600,0.746887451171875,0.07465718686580658,-1.4001950025558472,1.3309998512268066
1761316098594870500,0.75687060546875,0.10617481917142868,-1.231834888458252,1.310616135597229
1761316098604852500,0.7668525390625,0.154744490981102,-1.0456032752990723,1.2210191488265991
1761316098614835500,0.77683544921875,0.21655963361263275,-0.8428259491920471,1.0673565864562988
1761316098624818700,0.786818603515625,0.27220240235328674,-0.6163667440414429,0.8685340285301208
1761316098634800400,0.79680029296875,0.2973176836967468,-0.40605637431144714,0.6501375436782837
1761316098644783600,0.80678369140625,0.2892613708972931,-0.2605859935283661,0.4286496341228485
1761316098654765600,0.816765625,0.3037838339805603,-0.1947619616985321,0.23628921806812286
1761316098664748500,0.82674853515625,0.3524667024612427,-0.1417621225118637,0.09724105894565582
1761316098674730500,0.83673046875,0.4054950773715973,-0.08858650922775269,0.009283855557441711
1761316098684713700,0.846713623046875,0.41068586707115173,-0.037917207926511765,0.003719179891049862
1761316098694695400,0.8566953125,0.36304768919944763,-0.057559650391340256,0.059643302112817764
1761316098704678700,0.8666787109375,0.2875111401081085,-0.1564476191997528,0.1648661196231842
1761316098714661600,0.87666162109375,0.2572617530822754,-0.27011626958847046,0.279196560382843
1761316098724643600,0.8866435546875,0.30794915556907654,-0.3552524745464325,0.35415151715278625
1761316098734626600,0.89662646484375,0.39374423027038574,-0.5037115216255188,0.3850559890270233
1761316098744608500,0.9066083984375,0.4650287926197052,-0.5702444314956665,0.4081123173236847
1761316098754591500,0.916591552734375,0.5502714514732361,-0.6284011602401733,0.45537254214286804
1761316098764573700,0.92657373046875,0.6424849629402161,-0.7018985748291016,0.4929500222206116
1761316098774556400,0.936556396484375,0.7063250541687012,-0.7292844653129578,0.48336613178253174
1761316098784539400,0.946539306640625,0.7759472727775574,-0.6910337209701538,0.4952978789806366
1761316098794521600,0.956521484375,0.7770519852638245,-0.3565331995487213,0.5508593916893005
1761316098804504300,0.96650439453125,0.7480741143226624,0.01544087566435337,0.5277367830276489
1761316098814486500,0.976486572265625,0.6947994232177734,0.29878631234169006,0.3413197696208954
1761316098824469500,0.986469482421875,0.5880037546157837,0.5329598784446716,0.06092964485287666
1761316098834451500,0.996451416015625,0.4852314293384552,0.9998700618743896,-0.08382472395896912
1761316098844434400,1.006434326171875,0.39893651008605957,1.4866445064544678,-0.0021277309861034155
1761316098854417700,1.016417724609375,0.3693965971469879,1.5618069171905518,0.1061909943819046
1761316098864399400,1.0263994140625,0.45973527431488037,0.8199722766876221,-0.02000795118510723
1761316098874382600,1.036382568359375,0.5619480609893799,-0.27079543471336365,-0.33197468519210815
1761316098884364500,1.046364501953125,0.6755630373954773,-0.9737162590026855,-0.4855929911136627
1761316098894347500,1.056347412109375,0.7240045070648193,-1.0853184461593628,-0.49553725123405457
1761316098904329500,1.06632958984375,0.6368424296379089,-0.49186068773269653,-0.3834749162197113
1761316098914312700,1.076312744140625,0.4529181122779846,0.6473381519317627,-0.10675891488790512
1761316098924294400,1.08629443359375,0.2610224485397339,1.8152767419815063,0.22169193625450134
1761316098934277600,1.096277587890625,0.08452674746513367,2.574070930480957,0.43113043904304504
1761316098944260600,1.106260498046875,-0.03418819233775139,2.855433225631714,0.4258022606372833
1761316098954242600,1.11624267578125,-0.11256620287895203,2.6752769947052,0.21461816132068634
1761316098964225500,1.1262255859375,-0.1785217970609665,2.1805622577667236,-0.12181498110294342
1761316098974207500,1.13620751953125,-0.2374238818883896,1.5283405780792236,-0.49614617228507996
1761316098984190500,1.1461904296875,-0.280779093503952,0.8303106427192688,-0.8324882388114929
1761316098994172700,1.156172607421875,-0.32069453597068787,0.20437005162239075,-1.0701508522033691
1761316099004155400,1.1661552734375,-0.3641805052757263,-0.3649168312549591,-1.1510313749313354
1761316099014137600,1.1761376953125,-0.3754476010799408,-0.7967774271965027,-1.0168615579605103
1761316099024120600,1.18612060546875,-0.3548310101032257,-1.0948054790496826,-0.6876423358917236
1761316099034103300,1.196103271484375,-0.3579714894294739,-1.2586320638656616,-0.2436116635799408
1761316099044085500,1.20608544921875,-0.43108269572257996,-1.2678207159042358,0.2690308690071106
1761316099054068500,1.216068359375,-0.552128255367279,-1.1645735502243042,0.7681699395179749
1761316099064050400,1.226050537109375,-0.7042378783226013,-1.0453736782073975,1.1789706945419312
1761316099074033400,1.236033447265625,-0.8689936399459839,-1.0541404485702515,1.449952483177185
1761316099084015600,1.246015625,-0.9995732307434082,-1.132491111755371,1.5610071420669556
1761316099093998300,1.255998291015625,-1.0610016584396362,-1.1786607503890991,1.5252313613891602
1761316099103980500,1.26598046875,-1.0395756959915161,-1.1423065662384033,1.355185627937317
1761316099113963500,1.275963623046875,-0.9528077840805054,-1.0198369026184082,1.136088490486145
1761316099123946500,1.285946533203125,-0.8370329737663269,-0.8410767316818237,0.9299427270889282
1761316099133928400,1.295928466796875,-0.7309210300445557,-0.6520175337791443,0.7438524961471558
1761316099143911700,1.30591162109375,-0.6386651396751404,-0.42374762892723083,0.5369459390640259
1761316099153893400,1.315893310546875,-0.5762144923210144,-0.183073490858078,0.3219815194606781
1761316099163876600,1.325876708984375,-0.5690202713012695,0.024625636637210846,0.09566371887922287
1761316099173858300,1.3358583984375,-0.5923628807067871,0.16696524620056152,-0.12562234699726105
1761316099183841500,1.345841552734375,-0.6294463276863098,0.23843729496002197,-0.32497701048851013
1761316099193823500,1.355823486328125,-0.6836868524551392,0.20282354950904846,-0.49348562955856323
1761316099203806500,1.365806396484375,-0.7633411884307861,0.11644259095191956,-0.6461731791496277
1761316099213789400,1.37578955078125,-0.8267499208450317,0.05482158437371254,-0.7982187867164612
1761316099223771600,1.385771728515625,-0.8186318278312683,0.00483058812096715,-0.9468583464622498
1761316099233754400,1.39575439453125,-0.7245907187461853,0.039463937282562256,-1.075608253479004
1761316099243736600,1.405736572265625,-0.5766417384147644,0.16138264536857605,-1.2172306776046753
1761316099253719600,1.415719482421875,-0.43637195229530334,0.37268611788749695,-1.3689121007919312
1761316099263701500,1.425701416015625,-0.3282356262207031,0.5838572382926941,-1.4505454301834106
1761316099273684500,1.4356845703125,-0.2933279275894165,0.7946006059646606,-1.3996248245239258
1761316099283667500,1.44566748046875,-0.32536736130714417,1.0116177797317505,-1.2313085794448853
1761316099293649400,1.4556494140625,-0.396915465593338,1.1393073797225952,-1.0060921907424927
1761316099303632400,1.46563232421875,-0.48594149947166443,1.107069730758667,-0.7787446975708008
1761316099313614600,1.475614501953125,-0.5497308969497681,1.0701019763946533,-0.5739917159080505
1761316099323597300,1.485597412109375,-0.6230237483978271,1.1272486448287964,-0.4352906048297882
1761316099333579500,1.49557958984375,-0.734869658946991,1.261504888534546,-0.32676243782043457
1761316099343562500,1.5055625,-0.706394612789154,1.4906009435653687,-0.27642789483070374
1761316099353544400,1.51554443359375,-0.5152764916419983,1.7742729187011719,-0.4922371506690979
1761316099363527400,1.52552734375,-0.35291871428489685,1.8973019123077393,-1.1794503927230835
1761316099373510700,1.5355107421875,-0.4087796211242676,1.3074162006378174,-2.1171460151672363
1761316099383492400,1.545492431640625,-0.7238965630531311,-0.03230192884802818,-2.9617583751678467
1761316099393475600,1.5554755859375,-1.0032601356506348,-1.4921538829803467,-3.51979398727417
1761316099403457300,1.565457275390625,-0.9442234039306641,-1.945893406867981,-3.350100040435791
1761316099413440500,1.5754404296875,-0.5869823694229126,-0.9688725471496582,-2.3071179389953613
1761316099423422500,1.58542236328125,-0.060183536261320114,0.8157471418380737,-0.8278122544288635
1761316099433405400,1.595405517578125,0.5086823105812073,2.281134843826294,0.4352780878543854
1761316099443387400,1.605387451171875,0.9430772066116333,2.9333553314208984,1.07986581325531
1761316099453370600,1.61537060546875,1.1646645069122314,2.875243902206421,1.2840230464935303
1761316099463353300,1.625353271484375,1.126363754272461,2.2764105796813965,1.1769652366638184
1761316099473335600,1.63533544921875,0.8636321425437927,1.2809839248657227,0.8448712229728699
1761316099483318500,1.645318603515625,0.4974355399608612,0.17501941323280334,0.3716530501842499
1761316099493300500,1.655300537109375,0.22010694444179535,-0.7769402861595154,-0.11669698357582092
1761316099503283500,1.665283447265625,0.06665080785751343,-1.4517619609832764,-0.5347334146499634
1761316099513265700,1.675265625,-0.03979645296931267,-1.801088809967041,-0.8155299425125122
1761316099523248600,1.68524853515625,-0.13153621554374695,-1.9187709093093872,-0.9022874236106873
1761316099533230600,1.695230712890625,-0.19255003333091736,-1.974880576133728,-0.816677987575531
1761316099543213600,1.705213623046875,-0.23118264973163605,-1.9839552640914917,-0.5975818634033203
1761316099553196500,1.715196533203125,-0.24482981860637665,-1.8802049160003662,-0.2805839776992798
1761316099563178500,1.725178466796875,-0.2460913509130478,-1.6338297128677368,0.1209365576505661
1761316099573161700,1.73516162109375,-0.24031445384025574,-1.3648823499679565,0.5223552584648132
1761316099583143700,1.745143798828125,-0.26903799176216125,-1.199900507926941,0.8232021927833557
1761316099593126700,1.755126708984375,-0.3088490664958954,-1.1142586469650269,1.013668417930603
1761316099603108600,1.765108642578125,-0.3308528959751129,-1.0537973642349243,1.1465479135513306
1761316099613091600,1.775091552734375,-0.28725436329841614,-0.9779979586601257,1.2062898874282837
1761316099623073500,1.785073486328125,-0.1846797913312912,-0.8188807368278503,1.1695678234100342
1761316099633056800,1.795056884765625,-0.06561791896820068,-0.6377763748168945,1.0462194681167603
1761316099643038500,1.80503857421875,0.05920656770467758,-0.45686832070350647,0.858925998210907
1761316099653021700,1.815021728515625,0.15201838314533234,-0.30868759751319885,0.6340497136116028
1761316099663004700,1.825004638671875,0.196333646774292,-0.2059020847082138,0.41945940256118774
1761316099672986600,1.834986572265625,0.20963343977928162,-0.1365809291601181,0.22836533188819885
1761316099682969600,1.844969482421875,0.20059573650360107,-0.13836205005645752,0.08937070518732071
1761316099692951600,1.85495166015625,0.15633265674114227,-0.18546287715435028,0.006013957317918539
1761316099702934500,1.8649345703125,0.08165228366851807,-0.2808018922805786,-0.04939710348844528
1761316099712916700,1.874916748046875,-0.017300192266702652,-0.4257943034172058,-0.08945441246032715
1761316099722899700,1.884899658203125,-0.11652158200740814,-0.5472872257232666,-0.10199577361345291
1761316099732881700,1.894881591796875,-0.17111913859844208,-0.6239683628082275,-0.08648443967103958
1761316099742864600,1.90486474609375,-0.158498153090477,-0.6272954344749451,-0.0658542588353157
1761316099752847600,1.91484765625,-0.06710092723369598,-0.5018139481544495,-0.0502927340567112
1761316099762829600,1.92482958984375,0.03891818970441818,-0.3023058772087097,-0.03336089104413986
1761316099772812500,1.9348125,0.13774512708187103,-0.15232251584529877,-0.018906084820628166
1761316099782794800,1.944794677734375,0.21986182034015656,-0.013753989711403847,0.03425087407231331
1761316099792777500,1.954777587890625,0.2807327210903168,0.11503437906503677,0.1141892746090889
1761316099802759700,1.964759765625,0.3133702874183655,0.20417116582393646,0.24291929602622986
1761316099812742700,1.97474267578125,0.38092663884162903,0.2537001371383667,0.431091845035553
1761316099822724600,1.984724609375,0.47989633679389954,0.38409489393234253,0.6596400141716003
1761316099832707600,1.99470751953125,0.5657171010971069,0.6313925385475159,0.846208393573761
1761316099842690800,2.00469091796875,0.5993424654006958,0.9332767724990845,0.9250632524490356
1761316099852672500,2.014672607421875,0.6259378790855408,1.2276451587677002,0.8758473992347717
1761316099862655700,2.02465576171875,0.6477115750312805,1.444697380065918,0.6245901584625244
1761316099872637400,2.034637451171875,0.6682130694389343,1.400174856185913,0.18542981147766113
1761316099882620700,2.04462060546875,0.6434521079063416,0.6125373244285583,-0.2675837576389313
1761316099892602600,2.0546025390625,0.5339264273643494,-0.9702095985412598,-0.48573753237724304
1761316099902585600,2.064585693359375,0.339811772108078,-2.782097101211548,-0.44223132729530334
1761316099912567600,2.074567626953125,0.13771796226501465,-3.955214262008667,-0.28467246890068054
1761316099922550800,2.08455078125,-0.001285725156776607,-3.7844386100769043,-0.05740655958652496
1761316099932532500,2.094532470703125,-0.14286983013153076,-2.0443241596221924,0.25083231925964355
1761316099942515700,2.104515625,-0.16323982179164886,0.45968306064605713,0.634467601776123
1761316099952498700,2.114498779296875,0.0034293883945792913,2.731980562210083,1.1050680875778198
1761316099962480600,2.124480712890625,0.2760241627693176,4.042694568634033,1.4842840433120728
1761316099972463600,2.134463623046875,0.5119544267654419,4.4054036140441895,1.6258084774017334
1761316099982445600,2.144445556640625,0.6325668692588806,3.9537851810455322,1.4461767673492432
1761316099992428500,2.154428466796875,0.6229999661445618,2.8758063316345215,0.9898056387901306
1761316100002410800,2.16441064453125,0.4817504286766052,1.5260274410247803,0.4193322956562042
1761316100012393700,2.174393798828125,0.2561432421207428,0.2514404356479645,-0.1234712153673172
1761316100022375700,2.184375732421875,-0.0007482049986720085,-0.7227330207824707,-0.5677163004875183
1761316100032358700,2.194358642578125,-0.27701276540756226,-1.285710096359253,-0.9150873422622681
1761316100042341600,2.204341552734375,-0.5658286213874817,-1.5863149166107178,-1.1873092651367188
1761316100052323600,2.214323486328125,-0.7803731560707092,-1.7545440196990967,-1.3651667833328247
1761316100062306600,2.224306640625,-0.8665685057640076,-1.7342965602874756,-1.4111380577087402
1761316100072288500,2.23428857421875,-0.8506057858467102,-1.4974007606506348,-1.267547845840454
1761316100082271500,2.244271484375,-0.8139731884002686,-1.0982561111450195,-0.9326720237731934
1761316100092253700,2.254253662109375,-0.7628089189529419,-0.6652060151100159,-0.4681168496608734
1761316100102236400,2.264236328125,-0.686882495880127,-0.33910804986953735,0.017998458817601204
1761316100112218600,2.274218505859375,-0.6122517585754395,-0.16488109529018402,0.43402785062789917
1761316100122201600,2.28420166015625,-0.5467545390129089,-0.09940727800130844,0.7459356784820557
1761316100132184600,2.2941845703125,-0.48331186175346375,-0.0951898917555809,0.9472329616546631
1761316100142166500,2.30416650390625,-0.43245187401771545,-0.09255948662757874,1.060700535774231
1761316100152149800,2.314149658203125,-0.37575769424438477,-0.09396084398031235,1.0939736366271973
1761316100162131500,2.32413134765625,-0.30593574047088623,-0.1059780940413475,1.0498063564300537
1761316100172114700,2.33411474609375,-0.23459169268608093,-0.08859165757894516,0.961716890335083
1761316100182096400,2.344096435546875,-0.16423416137695312,-0.037545785307884216,0.8140762448310852
1761316100192079600,2.35407958984375,-0.09285320341587067,0.05499369278550148,0.6045821309089661
1761316100202061600,2.3640615234375,-0.021182211115956306,0.18806307017803192,0.32831960916519165
1761316100212044500,2.37404443359375,0.040227413177490234,0.334468275308609,0.021451186388731003
1761316100222026500,2.384026611328125,0.08961014449596405,0.44818365573883057,-0.2580781877040863
1761316100232009700,2.394009765625,0.1103363037109375,0.4903276562690735,-0.44973084330558777
1761316100241992700,2.40399267578125,0.0963539108633995,0.45418405532836914,-0.5526803731918335
1761316100251974700,2.413974609375,0.077597476541996,0.3477185368537903,-0.5554294586181641
1761316100261957600,2.42395751953125,0.06534028053283691,0.2201690822839737,-0.43496188521385193
1761316100271939600,2.433939697265625,0.06301698833703995,0.06567513197660446,-0.2570432424545288
1761316100281922600,2.443922607421875,0.08771887421607971,-0.0699644535779953,-0.08880440890789032
1761316100291904800,2.45390478515625,0.14580273628234863,-0.18337169289588928,0.0276383925229311
1761316100301887500,2.463887451171875,0.21741673350334167,-0.2576272785663605,0.07949413359165192
1761316100311869700,2.47386962890625,0.2918241322040558,-0.28511378169059753,0.08002854138612747
1761316100321852700,2.483852783203125,0.3880491852760315,-0.3067895174026489,0.01168117392808199
1761316100331834600,2.493834716796875,0.5102498531341553,-0.27964428067207336,-0.09444263577461243
1761316100341817600,2.503817626953125,0.613081693649292,-0.17059583961963654,-0.2022836059331894
1761316100351800600,2.513800537109375,0.6226340532302856,0.08953595906496048,-0.2795705795288086
1761316100361782500,2.523782470703125,0.5535604357719421,0.5148553252220154,-0.27904221415519714
1761316100371765500,2.533765625,0.40699365735054016,1.0495067834854126,-0.14639031887054443
1761316100381747500,2.54374755859375,0.20534813404083252,1.671202301979065,0.07173935323953629
1761316100391730400,2.55373046875,0.03384722024202347,2.4598548412323,0.2720417380332947
1761316100401712600,2.563712646484375,-0.07159531116485596,3.2390694618225098,0.2476876676082611
1761316100411695400,2.5736953125,-0.17361542582511902,3.302130699157715,-0.1467553973197937
1761316100421677600,2.583677490234375,-0.2701297104358673,2.018676280975342,-1.0552568435668945
1761316100431660500,2.59366064453125,-0.32549548149108887,-0.23498612642288208,-2.311846971511841
1761316100441642500,2.603642578125,-0.403115451335907,-2.189063787460327,-3.0440142154693604
1761316100451625500,2.61362548828125,-0.3587971031665802,-3.0826995372772217,-2.543689250946045
1761316100461608700,2.623608642578125,-0.06883026659488678,-2.4523680210113525,-0.9612427949905396
1761316100471590400,2.63359033203125,0.38782942295074463,-0.8846179842948914,0.8439592123031616
1761316100481573600,2.64357373046875,0.8682674169540405,0.6866270899772644,2.1305742263793945
1761316100491555600,2.6535556640625,1.2792052030563354,1.6496915817260742,2.557802677154541
1761316100501538600,2.66353857421875,1.4195963144302368,2.009185314178467,2.2625181674957275
1761316100511520500,2.6735205078125,1.2463032007217407,1.8997341394424438,1.5406863689422607
1761316100521503700,2.683503662109375,0.8652213215827942,1.4859070777893066,0.6569799780845642
1761316100531484700,2.693484619140625,0.47553524374961853,0.875981867313385,-0.1546614021062851
1761316100541467600,2.703467529296875,0.2236122041940689,0.18568575382232666,-0.684345543384552
1761316100551449900,2.713449951171875,0.10692612081766129,-0.4573265314102173,-0.8969547152519226
1761316100561432800,2.723432861328125,0.04508832469582558,-1.0960873365402222,-0.8709082007408142
1761316100571415600,2.73341552734375,0.009256329387426376,-1.6671478748321533,-0.6769521832466125
1761316100581397800,2.743397705078125,-0.056459300220012665,-2.0901448726654053,-0.3923470675945282
1761316100591380700,2.753380615234375,-0.1695808470249176,-2.2579119205474854,-0.06303677707910538
1761316100601362700,2.76336279296875,-0.3065171241760254,-2.1943185329437256,0.24953816831111908
1761316100611345700,2.773345703125,-0.4533284902572632,-1.9519375562667847,0.49246713519096375
1761316100621327600,2.78332763671875,-0.5854277014732361,-1.6021641492843628,0.6319312453269958
1761316100631310600,2.793310546875,-0.6714876294136047,-1.2262285947799683,0.6681578755378723
1761316100641292800,2.803292724609375,-0.7167842388153076,-0.8714758157730103,0.641291081905365
1761316100651275500,2.813275634765625,-0.7174406051635742,-0.5057018399238586,0.5682006478309631
1761316100661257700,2.8232578125,-0.6718230843544006,-0.13947059214115143,0.4546634554862976
1761316100671240700,2.83324072265625,-0.5709365606307983,0.18085011839866638,0.3217141926288605
1761316100681223700,2.8432236328125,-0.44434404373168945,0.4359212815761566,0.21068701148033142
1761316100691205600,2.85320556640625,-0.3247382640838623,0.615981936454773,0.13606062531471252
1761316100701188900,2.86318896484375,-0.22039133310317993,0.7347218990325928,0.113861583173275
1761316100711170600,2.873170654296875,-0.13121475279331207,0.7987669110298157,0.10802533477544785
1761316100721153800,2.88315380859375,-0.06713004410266876,0.7801455855369568,0.0963955745100975
1761316100731135500,2.893135498046875,-0.01863877661526203,0.6839808225631714,0.09020990878343582
1761316100741118700,2.90311865234375,0.01716849021613598,0.5059248208999634,0.07576439529657364
1761316100751100700,2.9131005859375,0.037399403750896454,0.2548898458480835,0.05111298710107803
1761316100761083600,2.923083740234375,0.03972753882408142,-0.0006817406974732876,0.011750400066375732
1761316100771065600,2.933065673828125,0.05145588889718056,-0.2302001714706421,-0.026426777243614197
1761316100781048800,2.943048828125,0.08613850176334381,-0.4205365478992462,-0.04809132590889931
1761316100791031800,2.95303173828125,0.13960517942905426,-0.5294309258460999,-0.07625656574964523
1761316100801013800,2.963013671875,0.21934208273887634,-0.5399218797683716,-0.129144549369812
1761316100810996700,2.972996826171875,0.3089308738708496,-0.5226818919181824,-0.1899270862340927
1761316100820978700,2.982978759765625,0.37506303191185,-0.5126327276229858,-0.22708110511302948
1761316100830961700,2.992961669921875,0.38951414823532104,-0.5240426659584045,-0.27210548520088196
1761316100840943900,3.00294384765625,0.36357495188713074,-0.5318588018417358,-0.3413700461387634
1761316100850926600,3.012926513671875,0.3153304159641266,-0.42241722345352173,-0.4255983233451843
1761316100860908800,3.02290869140625,0.2482387274503708,-0.16901053488254547,-0.4644218981266022
1761316100870891800,3.032891845703125,0.14452920854091644,0.25482696294784546,-0.4409581124782562
1761316100880873700,3.042873779296875,0.03862887620925903,0.8268840909004211,-0.3617514371871948
1761316100890856700,3.052856689453125,0.009557387791574001,1.3734474182128906,-0.34758028388023376
1761316100900839700,3.062839599609375,0.14742231369018555,1.7989110946655273,-0.5440398454666138
1761316100910821600,3.072821533203125,0.3927275240421295,2.2132270336151123,-0.9525465965270996
1761316100920804900,3.082804931640625,0.6405801773071289,2.288402795791626,-1.5471998453140259
1761316100930786600,3.09278662109375,0.6366080641746521,1.4650226831436157,-2.3058998584747314
1761316100940769800,3.102769775390625,0.39098334312438965,-0.04440606012940407,-2.879383087158203
1761316100950751700,3.112751708984375,0.20107713341712952,-1.4844259023666382,-2.812176465988159
1761316100960734700,3.122734619140625,0.240434929728508,-2.014733076095581,-1.9184739589691162
1761316100970716700,3.132716552734375,0.4307011663913727,-1.159582495689392,-0.4081990122795105
1761316100980700000,3.142699951171875,0.7571466565132141,0.19825874269008636,1.1361489295959473
1761316100990681600,3.152681640625,1.1019223928451538,1.1563550233840942,2.2412209510803223
1761316101000664800,3.162664794921875,1.2453922033309937,1.5270878076553345,2.7589662075042725
1761316101010646800,3.172646728515625,1.1565721035003662,1.4317702054977417,2.772883653640747
1761316101020629800,3.182629638671875,0.9045369625091553,0.9417182207107544,2.385197639465332
1761316101030612700,3.19261279296875,0.5652961134910583,0.25775304436683655,1.7047526836395264
1761316101040595000,3.202594970703125,0.22997163236141205,-0.4004594683647156,0.9083583354949951
1761316101050577700,3.21257763671875,-0.006615831516683102,-0.8936673402786255,0.1867755800485611
1761316101060560000,3.222559814453125,-0.17879797518253326,-1.1898775100708008,-0.3767154812812805
1761316101070542800,3.23254296875,-0.3453616499900818,-1.3233444690704346,-0.7656512260437012
1761316101080524800,3.24252490234375,-0.5253615379333496,-1.3949270248413086,-0.9823289513587952
1761316101090507800,3.2525078125,-0.7182033658027649,-1.3918131589889526,-1.0814632177352905
1761316101100489700,3.26248974609375,-0.9079511761665344,-1.1859889030456543,-1.1163431406021118
1761316101110472700,3.27247265625,-1.0384031534194946,-0.7553102374076843,-1.1136788129806519
1761316101120455000,3.282454833984375,-1.1163556575775146,-0.22110171616077423,-1.067780613899231
1761316101130437600,3.292437744140625,-1.1504230499267578,0.2858355641365051,-0.9587454795837402
1761316101140420600,3.302420654296875,-1.131451964378357,0.7064679861068726,-0.7587139010429382
1761316101150402800,3.31240283203125,-1.0615192651748657,0.9463095664978027,-0.4831913411617279
1761316101160385500,3.322385498046875,-0.977196991443634,1.0092813968658447,-0.168528750538826
1761316101170367700,3.33236767578125,-0.8817481398582458,0.917158842086792,0.1809951364994049
1761316101180350700,3.342350830078125,-0.7809624075889587,0.7426115274429321,0.5754694938659668
1761316101190332700,3.352332763671875,-0.6643836498260498,0.5287642478942871,0.950522780418396
1761316101200315600,3.362315673828125,-0.5318402647972107,0.23231293261051178,1.2531894445419312
1761316101210297900,3.3722978515625,-0.3885037899017334,-0.045099012553691864,1.4473767280578613
1761316101220280600,3.382280517578125,-0.22132812440395355,-0.25432148575782776,1.4978293180465698
1761316101230262800,3.3922626953125,-0.06689019501209259,-0.4350316524505615,1.3886789083480835
1761316101240245800,3.402245849609375,0.03335091471672058,-0.5956005454063416,1.1444602012634277
1761316101250227700,3.412227783203125,0.06277596950531006,-0.7166914939880371,0.8399285674095154
1761316101260210700,3.422210693359375,0.07137025892734528,-0.7740197777748108,0.5461227893829346
1761316101270194000,3.43219384765625,0.062269970774650574,-0.7738800048828125,0.2914198338985443
1761316101280175600,3.442175537109375,0.022318290546536446,-0.737457811832428,0.08557134121656418
1761316101290158800,3.452158935546875,-0.046157486736774445,-0.6387157440185547,-0.06461726129055023
1761316101300140500,3.462140625,-0.10963685810565948,-0.46978825330734253,-0.16619794070720673
1761316101310123800,3.472123779296875,-0.1743229180574417,-0.30397137999534607,-0.2369031459093094
1761316101320105700,3.482105712890625,-0.24810180068016052,-0.19471599161624908,-0.2656303942203522
1761316101330088700,3.492088623046875,-0.3359816372394562,-0.1349615454673767,-0.2516922056674957
1761316101340070700,3.502070556640625,-0.40240779519081116,-0.10147521644830704,-0.20165832340717316
1761316101350054000,3.512053955078125,-0.41018936038017273,-0.13042426109313965,-0.17052938044071198
1761316101360035600,3.52203564453125,-0.3419349193572998,-0.18328800797462463,-0.2013338953256607
1761316101370018800,3.532018798828125,-0.2212934046983719,-0.12962321937084198,-0.2667584717273712
1761316101380000800,3.542000732421875,-0.0765995979309082,-0.006339892745018005,-0.32549288868904114
1761316101389983700,3.551983642578125,0.023283053189516068,0.07335493713617325,-0.3610415458679199
1761316101399966700,3.561966796875,0.09326879680156708,0.11282777786254883,-0.3833591043949127
1761316101409949000,3.571948974609375,0.1451759934425354,0.24368837475776672,-0.4337563216686249
1761316101419931600,3.581931640625,0.1700749546289444,0.5817282199859619,-0.5117299556732178
1761316101429913900,3.591913818359375,0.1673731654882431,1.0280773639678955,-0.6626976132392883
1761316101439896800,3.601896728515625,0.1486559361219406,0.863517165184021,-1.0472698211669922
1761316101449878800,3.611878662109375,0.08683960884809494,-0.11219389736652374,-1.6949127912521362
1761316101459861800,3.62186181640625,0.01215498149394989,-1.2921167612075806,-2.2906594276428223
1761316101469843700,3.63184375,0.10465759038925171,-1.9304523468017578,-2.3689141273498535
1761316101479826700,3.64182666015625,0.39591845870018005,-1.4837167263031006,-1.7148312330245972
1761316101489809000,3.651808837890625,0.6697831153869629,-0.032748207449913025,-0.5399467945098877
1761316101499791600,3.66179150390625,0.8330439329147339,1.4904752969741821,0.7594201564788818
1761316101509774600,3.671774658203125,0.9664449691772461,2.331697702407837,1.701772928237915
1761316101519756800,3.6817568359375,1.0581748485565186,2.5149829387664795,2.050466537475586
1761316101529740500,3.691740478515625,1.0149636268615723,2.065197706222534,1.9415923357009888
1761316101539722500,3.701722412109375,0.8304517269134521,1.2567170858383179,1.5683852434158325
1761316101549705500,3.71170556640625,0.5754452347755432,0.44060879945755005,1.0664571523666382
1761316101559687400,3.7216875,0.3516337275505066,-0.13436049222946167,0.5461359024047852
1761316101569670400,3.73167041015625,0.21573293209075928,-0.3612383306026459,0.11886007338762283
1761316101579652600,3.741652587890625,0.15317288041114807,-0.36108359694480896,-0.1748437136411667
1761316101589635300,3.75163525390625,0.12772759795188904,-0.22285111248493195,-0.305620402097702
1761316101599617500,3.761617431640625,0.08540783077478409,-0.10821109265089035,-0.2813502252101898
1761316101609600500,3.7716005859375,0.0050408244132995605,-0.08855223655700684,-0.13227537274360657
1761316101619582500,3.78158251953125,-0.10596691817045212,-0.17690446972846985,0.09738870710134506
1761316101629565400,3.7915654296875,-0.23871175944805145,-0.29608386754989624,0.3403756618499756
1761316101639548400,3.80154833984375,-0.394925057888031,-0.38631173968315125,0.56577068567276
1761316101649530400,3.8115302734375,-0.5666943788528442,-0.3920232951641083,0.7341603636741638
1761316101659513600,3.821513671875,-0.745596706867218,-0.3206750750541687,0.8031647205352783
1761316101669495600,3.83149560546875,-0.9017211198806763,-0.16804087162017822,0.7641611695289612
1761316101679478500,3.841478515625,-1.0013859272003174,0.010198630392551422,0.6158249974250793
1761316101689460500,3.85146044921875,-1.002034068107605,0.1594371199607849,0.39517688751220703
1761316101699443500,3.861443359375,-0.9068768620491028,0.2828304171562195,0.1782190203666687
1761316101709425400,3.87142529296875,-0.7630634307861328,0.34930697083473206,0.008792603388428688
1761316101719408600,3.88140869140625,-0.5978134870529175,0.34477826952934265,-0.08838534355163574
1761316101729390300,3.891390380859375,-0.40792277455329895,0.3030227720737457,-0.09702377766370773
1761316101739373600,3.90137353515625,-0.2198905646800995,0.20882545411586761,-0.02936244197189808
1761316101749355500,3.91135546875,-0.08236364275217056,0.08339609950780869,0.0998704731464386
1761316101759338500,3.92133837890625,0.007023761980235577,-0.046038053929805756,0.2383527308702469
1761316101769320400,3.931320556640625,0.05701103061437607,-0.17330965399742126,0.3630385994911194
1761316101779303400,3.941303466796875,0.06531716138124466,-0.3294731378555298,0.4295768737792969
1761316101789286400,3.951286376953125,0.03653206676244736,-0.517736554145813,0.43536096811294556
1761316101799268600,3.9612685546875,-0.018183909356594086,-0.7213681936264038,0.39755314588546753
1761316101809251600,3.97125146484375,-0.0771566778421402,-0.8733231425285339,0.3328971862792969
1761316101819233500,3.981233642578125,-0.13097916543483734,-0.9400898814201355,0.2393280565738678
1761316101829216500,3.991216552734375,-0.14298613369464874,-0.9329883456230164,0.11702383309602737
1761316101839198500,4.001198486328125,-0.10558443516492844,-0.8852143883705139,-0.01135171391069889
1761316101849181400,4.011181396484375,-0.02713894657790661,-0.8128307461738586,-0.14224612712860107
1761316101859163600,4.02116357421875,0.08601822704076767,-0.7084017992019653,-0.2594108283519745
1761316101869146600,4.031146728515625,0.2099861353635788,-0.5796971917152405,-0.3581537902355194
1761316101879128600,4.041128662109375,0.2990553081035614,-0.4554692208766937,-0.4582146108150482
1761316101889111600,4.051111572265625,0.31847327947616577,-0.3620361387729645,-0.5930236577987671
1761316101899093500,4.061093505859375,0.30195340514183044,-0.23014654219150543,-0.7292701601982117
1761316101909076500,4.071076416015625,0.27412688732147217,-0.052812010049819946,-0.8362962603569031
1761316101919059500,4.0810595703125,0.23631985485553741,0.08972649276256561,-0.9531615972518921
1761316101929041400,4.09104150390625,0.17290732264518738,0.20270952582359314,-1.0639756917953491
1761316101939024400,4.1010244140625,0.15991508960723877,0.28866225481033325,-1.086550235748291
1761316101949006600,4.111006591796875,0.3234078288078308,0.15756602585315704,-1.1202725172042847
1761316101958989300,4.1209892578125,0.6885613203048706,-0.40807047486305237,-1.3998615741729736
1761316101968971500,4.130971435546875,1.1905702352523804,-1.4616897106170654,-1.8462759256362915
1761316101978954500,4.14095458984375,1.5945565700531006,-2.7002012729644775,-2.2171480655670166
1761316101988936400,4.1509365234375,1.7211122512817383,-3.3559553623199463,-2.2128336429595947
1761316101998919400,4.16091943359375,1.595923662185669,-2.799053907394409,-1.6157200336456299
1761316102008901400,4.1709013671875,1.3750920295715332,-1.3322707414627075,-0.6547069549560547
1761316102018884400,4.18088427734375,1.136074423789978,0.20206613838672638,0.29267773032188416
1761316102028866600,4.190866455078125,0.9909871816635132,1.2762105464935303,0.9918126463890076
1761316102038849300,4.200849365234375,0.9133850932121277,1.8792295455932617,1.2609319686889648
1761316102048831500,4.21083154296875,0.8795509338378906,1.9402211904525757,1.1496028900146484
1761316102058814500,4.220814453125,0.8008617162704468,1.571614384651184,0.7774159908294678
1761316102068797700,4.230797607421875,0.6624037623405457,1.0017094612121582,0.33108842372894287
1761316102078779400,4.240779296875,0.5107444524765015,0.42664143443107605,-0.05949530377984047
1761316102088762600,4.2507626953125,0.358722448348999,-0.0017876382917165756,-0.3527084290981293
1761316102098744300,4.260744384765625,0.19974106550216675,-0.2193540632724762,-0.5836215019226074
1761316102108727600,4.2707275390625,0.06354109942913055,-0.2468252032995224,-0.7564592957496643
1761316102118709500,4.28070947265625,0.0030159717425704002,-0.1489364504814148,-0.7917326092720032
1761316102128692500,4.2906923828125,0.04892604798078537,0.02823491580784321,-0.6022112369537354
1761316102138674400,4.30067431640625,0.1312590092420578,0.2239072173833847,-0.22134138643741608
1761316102148657700,4.31065771484375,0.15801051259040833,0.4126046597957611,0.28384241461753845
1761316102158639400,4.320639404296875,0.0756772831082344,0.5349110960960388,0.8346661329269409
1761316102168622600,4.33062255859375,-0.09621527791023254,0.4984741508960724,1.3104242086410522
1761316102178604300,4.340604248046875,-0.292724072933197,0.2959761917591095,1.6395506858825684
1761316102188587500,4.35058740234375,-0.4649387001991272,0.0017161741852760315,1.8142577409744263
1761316102198569500,4.360569580078125,-0.5774412751197815,-0.22650474309921265,1.8648372888565063
1761316102208552400,4.370552490234375,-0.6153756380081177,-0.3144516348838806,1.8333004713058472
1761316102218535400,4.380535400390625,-0.5738268494606018,-0.30859455466270447,1.7259838581085205
1761316102228517600,4.390517578125,-0.5113685131072998,-0.2188713401556015,1.5656108856201172
1761316102238500400,4.400500244140625,-0.45222586393356323,-0.04090427979826927,1.356508493423462
1761316102248482600,4.410482666015625,-0.39024415612220764,0.1913556605577469,1.1121267080307007
1761316102258465500,4.420465576171875,-0.32981517910957336,0.4904477894306183,0.8711697459220886
1761316102268447500,4.430447509765625,-0.2785454988479614,0.8670593500137329,0.6538011431694031
1761316102278430500,4.440430419921875,-0.2626677453517914,1.176687240600586,0.47917982935905457
1761316102288412700,4.45041259765625,-0.3034355640411377,1.358537197113037,0.3527428209781647
1761316102298395400,4.4603955078125,-0.377160906791687,1.4130182266235352,0.25562506914138794
1761316102308377600,4.470377685546875,-0.4476358890533447,1.3262689113616943,0.18114256858825684
1761316102318360600,4.480360595703125,-0.5042421817779541,1.1122783422470093,0.12103156000375748
1761316102328342500,4.490342529296875,-0.524201512336731,0.817150890827179,0.053999654948711395
1761316102338325500,4.500325439453125,-0.49891239404678345,0.4708675444126129,-0.03238476812839508
1761316102348307500,4.510307373046875,-0.4407638609409332,0.11055107414722443,-0.14979705214500427
1761316102358290400,4.52029052734375,-0.34655827283859253,-0.22267429530620575,-0.2984805405139923
1761316102368273400,4.5302734375,-0.18489868938922882,-0.49046552181243896,-0.4390130639076233
1761316102378255400,4.54025537109375,0.021879516541957855,-0.6727604866027832,-0.5271980166435242
1761316102388238300,4.55023828125,0.2184424251317978,-0.8241031765937805,-0.5977904200553894
1761316102398220500,4.560220458984375,0.35009631514549255,-0.983727753162384,-0.6696046590805054
1761316102408203300,4.570203369140625,0.40706682205200195,-1.105023741722107,-0.7365109324455261
1761316102418185500,4.580185546875,0.40513044595718384,-1.08866548538208,-0.8129258155822754
1761316102428168400,4.59016845703125,0.3869585692882538,-0.9179889559745789,-0.8857461810112
1761316102438150400,4.600150390625,0.3748885989189148,-0.7125723958015442,-0.9985566139221191
1761316102448133400,4.61013330078125,0.3941524028778076,-0.42582282423973083,-1.0967262983322144
1761316102458115600,4.620115478515625,0.4936715364456177,0.04967740550637245,-1.09727144241333
1761316102468098300,4.630098388671875,0.599244236946106,0.4365673065185547,-1.0566593408584595
1761316102478080500,4.64008056640625,0.6283344626426697,0.28984206914901733,-1.1777474880218506
1761316102488063500,4.6500634765625,0.6090337634086609,-0.6176530122756958,-1.5315955877304077
1761316102498045400,4.66004541015625,0.5563257932662964,-2.002650022506714,-1.9141565561294556
1761316102508028400,4.6700283203125,0.5769433379173279,-3.2544631958007812,-2.2024431228637695
1761316102518011600,4.68001171875,0.850106954574585,-3.4889676570892334,-2.1640944480895996
1761316102527993000,4.6899931640625,1.1652495861053467,-2.3379018306732178,-1.579033613204956
1761316102537976000,4.69997607421875,1.1835311651229858,-0.6030250787734985,-0.6175174117088318
1761316102547958000,4.7099580078125,0.9616155028343201,0.5161418318748474,0.2777840197086334
1761316102557941000,4.71994091796875,0.7399038672447205,0.8840771913528442,0.7452704906463623
1761316102567923000,4.7299228515625,0.5944485664367676,0.6735876202583313,0.8623970746994019
1761316102577906000,4.739906005859375,0.5030568838119507,0.18491169810295105,0.7624726295471191
1761316102587888000,4.74988818359375,0.4676039516925812,-0.24047286808490753,0.6020364761352539
1761316102597871000,4.75987109375,0.4504864811897278,-0.4228043258190155,0.4632171094417572
1761316102607853000,4.76985302734375,0.39396360516548157,-0.37649890780448914,0.3762020468711853
1761316102617836000,4.7798359375,0.28092464804649353,-0.22039824724197388,0.32843613624572754
1761316102627818000,4.78981787109375,0.12981732189655304,-0.037758968770504,0.33083680272102356
1761316102637801000,4.799801025390625,-0.029718274250626564,0.13700085878372192,0.3770115077495575
1761316102647783200,4.809783203125,-0.1959415078163147,0.32808971405029297,0.48643508553504944
1761316102657766000,4.819765869140625,-0.34747669100761414,0.5156545639038086,0.6713335514068604
1761316102667748000,4.829748046875,-0.4606832265853882,0.716365396976471,0.901676595211029
1761316102677731000,4.83973095703125,-0.5328916311264038,0.8886820077896118,1.1252148151397705
1761316102687713800,4.8497138671875,-0.5830309391021729,0.9799669981002808,1.328487515449524
1761316102697696000,4.859696044921875,-0.6447132229804993,0.9612433910369873,1.5077440738677979
1761316102707679000,4.869678955078125,-0.7181642651557922,0.8972982168197632,1.6688183546066284
1761316102717661000,4.879660888671875,-0.7758941650390625,0.7712180614471436,1.802294373512268
1761316102727644000,4.889643798828125,-0.8125478029251099,0.5987338423728943,1.8939239978790283
1761316102737626000,4.899626220703125,-0.8266249895095825,0.41811367869377136,1.9485292434692383
1761316102747608800,4.90960888671875,-0.7934827208518982,0.28270450234413147,1.9605358839035034
1761316102757591000,4.919591064453125,-0.7077704668045044,0.2000780552625656,1.9216760396957397
1761316102767574000,4.929573974609375,-0.6113907098770142,0.16247718036174774,1.8384355306625366
1761316102777556000,4.939555908203125,-0.5575607419013977,0.17819994688034058,1.7304790019989014
1761316102787539000,4.9495390625,-0.5329041481018066,0.2543322443962097,1.599612832069397
1761316102797521000,4.95952099609375,-0.545208752155304,0.3528550863265991,1.444880485534668
1761316102807504000,4.96950390625,-0.5775761604309082,0.43202537298202515,1.2623564004898071
1761316102817486000,4.979486083984375,-0.6124979257583618,0.4796871542930603,1.065107822418213
1761316102827468800,4.98946875,-0.6422669887542725,0.4615842401981354,0.8622536063194275
1761316102837451000,4.999450927734375,-0.6501294374465942,0.3973085582256317,0.6674391031265259
1761316102847434000,5.00943408203125,-0.6363194584846497,0.30929484963417053,0.5042306780815125
1761316102857416000,5.019416015625,-0.6142709255218506,0.20268025994300842,0.39912721514701843
1761316102867399000,5.02939892578125,-0.5971253514289856,0.07329622656106949,0.3412529230117798
1761316102877382100,5.039382080078125,-0.5940675139427185,-0.07053711265325546,0.3096310794353485
1761316102887363800,5.04936376953125,-0.6272776126861572,-0.19807487726211548,0.2434869110584259
1761316102897347000,5.05934716796875,-0.6716011762619019,-0.28500550985336304,0.11232542246580124
1761316102907329000,5.0693291015625,-0.6863650679588318,-0.3256882429122925,-0.06780721992254257
1761316102917312000,5.07931201171875,-0.6609361171722412,-0.3185639977455139,-0.2652111053466797
1761316102927294000,5.0892939453125,-0.6026741862297058,-0.3175104558467865,-0.46793147921562195
1761316102937277200,5.099277099609375,-0.5055412650108337,-0.33035436272621155,-0.6292378306388855
1761316102947259000,5.1092587890625,-0.3732430040836334,-0.36198678612709045,-0.7522276639938354
1761316102957242000,5.1192421875,-0.24902383983135223,-0.3914080560207367,-0.8189920783042908
1761316102967223800,5.129223876953125,-0.12289558351039886,-0.38453683257102966,-0.8202177286148071
1761316102977207000,5.13920703125,0.022693846374750137,-0.3053456246852875,-0.8032856583595276
1761316102987189000,5.14918896484375,0.18249283730983734,-0.26335909962654114,-0.8045345544815063
1761316102997172000,5.159171875,0.3584020733833313,-0.25214746594429016,-0.7885667681694031
1761316103007154000,5.16915380859375,0.4917569160461426,-0.2959306240081787,-0.6728172898292542
1761316103017137200,5.17913720703125,0.6167161464691162,-0.5139090418815613,-0.6260383129119873
1761316103027118800,5.189118896484375,0.8111311197280884,-1.2680785655975342,-1.1369236707687378
1761316103037102000,5.19910205078125,1.0559781789779663,-2.4588749408721924,-2.2350635528564453
1761316103047083800,5.209083740234375,1.313793420791626,-3.452702283859253,-3.405993938446045
1761316103057067000,5.21906689453125,1.401485800743103,-3.4686641693115234,-4.069036483764648
1761316103067050000,5.229050048828125,1.2698549032211304,-2.2782702445983887,-3.8289034366607666
1761316103077032200,5.2390322265625,1.0069036483764648,-0.31553885340690613,-2.719425916671753
1761316103087015000,5.249014892578125,0.8015941381454468,1.402664065361023,-1.2556411027908325
1761316103096997000,5.2589970703125,0.8011627197265625,2.001070261001587,-0.32021573185920715
1761316103106980000,5.26897998046875,0.871271550655365,1.6020591259002686,-0.038456495851278305
1761316103116962000,5.278962158203125,0.9169714450836182,0.7927100658416748,-0.008445600047707558
1761316103126945000,5.288945068359375,0.8955334424972534,0.007489144802093506,-0.02023126184940338
1761316103136927000,5.298927001953125,0.862701952457428,-0.5197727680206299,-0.004782264120876789
1761316103146910000,5.308909912109375,0.7884238958358765,-0.7855050563812256,0.02100323885679245
1761316103156892200,5.31889208984375,0.6763710975646973,-0.7437341809272766,-0.008053977973759174
1761316103166875000,5.328875,0.5325947403907776,-0.3842284083366394,-0.15177026391029358
1761316103176857000,5.338857177734375,0.3658723533153534,0.17377175390720367,-0.3361092209815979
1761316103186840000,5.348840087890625,0.16795772314071655,0.711114227771759,-0.47886595129966736
1761316103196822000,5.358822021484375,-0.002417199779301882,1.1346145868301392,-0.5018969774246216
1761316103206805000,5.368804931640625,-0.11031298339366913,1.403748631477356,-0.39563220739364624
1761316103216787000,5.378786865234375,-0.18349187076091766,1.5032718181610107,-0.18932165205478668
1761316103226770000,5.38877001953125,-0.22436915338039398,1.4179896116256714,0.06482262909412384
1761316103236753000,5.3987529296875,-0.22299203276634216,1.1924604177474976,0.3128329813480377
1761316103246734800,5.40873486328125,-0.21041642129421234,0.8193855881690979,0.5118340253829956
1761316103256717800,5.4187177734375,-0.23326393961906433,0.42055052518844604,0.6795662641525269
1761316103266700000,5.428699951171875,-0.265750527381897,0.14255274832248688,0.8289414048194885
1761316103276682800,5.438682861328125,-0.2822685241699219,0.019767971709370613,0.9564708471298218
1761316103286665000,5.4486650390625,-0.2724970579147339,0.012916449457406998,1.0561895370483398
1761316103296648000,5.45864794921875,-0.2531212270259857,0.12321099638938904,1.1409422159194946
1761316103306630000,5.4686298828125,-0.21403183043003082,0.3125506639480591,1.2515275478363037
1761316103316612900,5.47861279296875,-0.16690880060195923,0.4978174567222595,1.4071063995361328
1761316103326595000,5.488594970703125,-0.12568098306655884,0.5745977163314819,1.5801774263381958
1761316103336577800,5.498577880859375,-0.10277779400348663,0.5335853099822998,1.7211873531341553
1761316103346560000,5.50856005859375,-0.08963993191719055,0.444755494594574,1.8067446947097778
1761316103356543000,5.51854296875,-0.09961959719657898,0.3234517276287079,1.8205329179763794
1761316103366525000,5.52852490234375,-0.13912902772426605,0.23612770438194275,1.763567566871643
1761316103376508000,5.5385078125,-0.1873982846736908,0.16888847947120667,1.6088368892669678
1761316103386489900,5.54848974609375,-0.23276641964912415,0.104820616543293,1.367943525314331
1761316103396472800,5.558472900390625,-0.26955080032348633,0.10081814974546432,1.0626014471054077
1761316103406455000,5.568455078125,-0.27211594581604004,0.16023273766040802,0.7318003177642822
1761316103416437800,5.578437744140625,-0.24226538836956024,0.2516161799430847,0.4239133894443512
1761316103426420000,5.588419921875,-0.22007912397384644,0.3497485816478729,0.16738839447498322
1761316103436403000,5.59840283203125,-0.21389445662498474,0.4207330346107483,-0.04562961310148239
1761316103446386000,5.608385986328125,-0.20574359595775604,0.4335170090198517,-0.2268449366092682
1761316103456367900,5.618367919921875,-0.20457792282104492,0.35552898049354553,-0.3638879954814911
1761316103466351000,5.62835107421875,-0.18244671821594238,0.22828632593154907,-0.4474111497402191
1761316103476332800,5.638332763671875,-0.12460553646087646,0.05647728219628334,-0.528903067111969
1761316103486316000,5.64831591796875,-0.01682080700993538,-0.08910411596298218,-0.6035541296005249
1761316103496298000,5.658298095703125,0.1084662675857544,-0.19019398093223572,-0.6410053968429565
1761316103506281000,5.668281005859375,0.20481842756271362,-0.26217392086982727,-0.6447052359580994
1761316103516263000,5.678262939453125,0.26008355617523193,-0.31484004855155945,-0.6328677535057068
1761316103526246400,5.688246337890625,0.29537156224250793,-0.29287001490592957,-0.6538965106010437
1761316103536228000,5.69822802734375,0.33051514625549316,-0.15295763313770294,-0.6930322051048279
1761316103546211300,5.70821142578125,0.4056456685066223,-0.03975251317024231,-0.7405799031257629
1761316103556193000,5.718193115234375,0.5526273846626282,-0.15928716957569122,-0.9862312078475952
1761316103566176300,5.72817626953125,0.7674061059951782,-0.6609249711036682,-1.6348598003387451
1761316103576158200,5.738158203125,0.9510505199432373,-1.5171632766723633,-2.4915707111358643
1761316103586141200,5.74814111328125,0.918014645576477,-2.0651702880859375,-3.0200626850128174
1761316103596123100,5.758123046875,0.722718358039856,-2.085967779159546,-3.042152166366577
1761316103606106400,5.7681064453125,0.44768616557121277,-1.6540838479995728,-2.6307992935180664
1761316103616088000,5.778088134765625,0.3401525020599365,-0.6422823071479797,-1.753652572631836
1761316103626071300,5.7880712890625,0.41666990518569946,0.51017826795578,-0.7692756652832031
1761316103636053200,5.79805322265625,0.5046272277832031,1.1489629745483398,-0.04070192202925682
1761316103646036200,5.8080361328125,0.54102623462677,1.2936445474624634,0.42751172184944153
1761316103656018200,5.81801806640625,0.5151086449623108,1.0976271629333496,0.6765993237495422
1761316103666001400,5.82800146484375,0.43749552965164185,0.6712659597396851,0.7825679183006287
1761316103675984100,5.837984130859375,0.339348703622818,0.16163411736488342,0.8385099768638611
1761316103685966300,5.84796630859375,0.24448835849761963,-0.30867069959640503,0.9228937029838562
1761316103695949300,5.85794921875,0.13214237987995148,-0.6194034814834595,1.0243362188339233
1761316103705931300,5.86793115234375,-0.009988749399781227,-0.7332627773284912,1.1046897172927856
1761316103715914200,5.877914306640625,-0.18898940086364746,-0.6272125244140625,1.120600700378418
1761316103725896200,5.887896240234375,-0.3955191671848297,-0.3061103820800781,1.0480493307113647
1761316103735879200,5.897879150390625,-0.5834805369377136,0.10996566712856293,0.934414803981781
1761316103745861400,5.907861328125,-0.6946248412132263,0.5678069591522217,0.868201732635498
1761316103755844000,5.917843994140625,-0.7121703028678894,1.0116115808486938,0.8728987574577332
1761316103765826300,5.927826416015625,-0.6692611575126648,1.3467050790786743,0.9309316277503967
1761316103775809300,5.937809326171875,-0.6188424229621887,1.4864329099655151,1.043370008468628
1761316103785791200,5.947791259765625,-0.6047386527061462,1.411128044128418,1.2111619710922241
1761316103795774200,5.957774169921875,-0.6215844750404358,1.1527018547058105,1.4437150955200195
1761316103805756400,5.96775634765625,-0.6563940048217773,0.8412043452262878,1.6867700815200806
1761316103815739100,5.9777392578125,-0.6747141480445862,0.5790835618972778,1.8675289154052734
1761316103825721300,5.987721435546875,-0.6609929800033569,0.404071182012558,1.9826281070709229
1761316103835704300,5.997704345703125,-0.623632550239563,0.26550185680389404,2.0515236854553223
1761316103845686300,6.007686279296875,-0.5774430632591248,0.12738455832004547,2.0946476459503174
1761316103855669200,6.017669189453125,-0.5183371305465698,0.009220372885465622,2.0913925170898438
1761316103865651200,6.027651123046875,-0.4734659790992737,-0.08454149216413498,2.0264053344726562
1761316103875634200,6.03763427734375,-0.46954578161239624,-0.1349327713251114,1.8905943632125854
1761316103885617200,6.0476171875,-0.48199230432510376,-0.13166989386081696,1.6854078769683838
1761316103895599000,6.05759912109375,-0.498975545167923,-0.08344457298517227,1.4129198789596558
1761316103905582000,6.06758203125,-0.5184766054153442,0.019700929522514343,1.0746790170669556
1761316103915564300,6.077564208984375,-0.5311061143875122,0.13430286943912506,0.6910591721534729
1761316103925547000,6.087547119140625,-0.5434844493865967,0.2301148772239685,0.295585960149765
1761316103935529200,6.097529296875,-0.5639894604682922,0.30206069350242615,-0.059571605175733566
1761316103945512200,6.10751220703125,-0.5960195064544678,0.33937403559684753,-0.3523823320865631
1761316103955494100,6.117494140625,-0.6369384527206421,0.2984979748725891,-0.5801473259925842
1761316103965477000,6.12747705078125,-0.6732911467552185,0.19458994269371033,-0.7261561751365662
1761316103975459300,6.137459228515625,-0.6774011850357056,0.060408446937799454,-0.8049282431602478
1761316103985442000,6.147442138671875,-0.631615936756134,-0.09567948430776596,-0.8290854096412659
1761316103995424300,6.15742431640625,-0.5271965861320496,-0.23205357789993286,-0.8089109063148499
1761316104005407200,6.1674072265625,-0.3707364797592163,-0.3203490376472473,-0.7637253403663635
1761316104015389200,6.17738916015625,-0.19595803320407867,-0.3676012456417084,-0.7352638840675354
1761316104025372200,6.1873720703125,-0.002717670053243637,-0.3686926066875458,-0.7217666506767273
1761316104035354000,6.19735400390625,0.1733580231666565,-0.366993248462677,-0.7288029789924622
1761316104045337000,6.207337158203125,0.32416579127311707,-0.3532278835773468,-0.7299772500991821
1761316104055319300,6.2173193359375,0.4454472064971924,-0.2828567922115326,-0.7307423949241638
1761316104065302000,6.227302001953125,0.5209975838661194,-0.13659785687923431,-0.7705556750297546
1761316104075284200,6.2372841796875,0.5407028198242188,-0.06290632486343384,-0.869592547416687
1761316104085267200,6.24726708984375,0.5209234356880188,-0.21253728866577148,-0.9962441921234131
1761316104095249200,6.257249267578125,0.5433384776115417,-0.5633906722068787,-1.0753778219223022
1761316104105232100,6.267232177734375,0.7187515497207642,-1.1879607439041138,-1.3303323984146118
1761316104115214000,6.277214111328125,1.0531731843948364,-2.3904101848602295,-2.1081173419952393
1761316104125197000,6.287197021484375,1.3854103088378906,-3.6254897117614746,-3.122682571411133
1761316104135180300,6.29718017578125,1.4496632814407349,-3.9735145568847656,-3.7558131217956543
1761316104145162000,6.307161865234375,1.1025402545928955,-2.923428535461426,-3.666114330291748
1761316104155145200,6.317145263671875,0.5012040138244629,-0.7105527520179749,-2.790030002593994
1761316104165127200,6.327127197265625,0.044279176741838455,1.6722307205200195,-1.620234727859497
1761316104175110100,6.337110107421875,0.015402787365019321,2.978221893310547,-0.7467214465141296
1761316104185092000,6.347092041015625,0.23085759580135345,3.201988697052002,-0.26428109407424927
1761316104195075300,6.357075439453125,0.40787550806999207,2.6686649322509766,0.1127825528383255
1761316104205057000,6.36705712890625,0.45049789547920227,1.6999409198760986,0.3850984275341034
1761316104215040300,6.377040283203125,0.3985667824745178,0.644432783126831,0.5113070011138916
1761316104225022200,6.387022216796875,0.30331942439079285,-0.2530333995819092,0.46833285689353943
1761316104235005200,6.397005126953125,0.16713495552539825,-0.8329433798789978,0.34918540716171265
1761316104244987100,6.406987060546875,-0.027240384370088577,-0.9968054890632629,0.22823432087898254
1761316104254970400,6.416970458984375,-0.26197779178619385,-0.8317270278930664,0.08955367654561996
1761316104264952000,6.4269521484375,-0.4986766576766968,-0.5083641409873962,-0.054584674537181854
1761316104274935300,6.436935302734375,-0.6969239711761475,-0.16464675962924957,-0.1494869440793991
1761316104284917000,6.4469169921875,-0.744157612323761,0.19719190895557404,-0.13212046027183533
1761316104294900200,6.456900146484375,-0.6526175737380981,0.5459696054458618,-0.03864964470267296
1761316104304882200,6.466882080078125,-0.5454300045967102,0.7628395557403564,0.12247714400291443
1761316104314865200,6.476865234375,-0.46842503547668457,0.840739369392395,0.3695814609527588
1761316104324847000,6.48684716796875,-0.42458653450012207,0.824192225933075,0.6596083641052246
1761316104334830300,6.496830322265625,-0.42041364312171936,0.6802840232849121,0.9214152097702026
1761316104344812000,6.50681201171875,-0.46209320425987244,0.39120930433273315,1.1153373718261719
1761316104354795300,6.516795166015625,-0.5007966756820679,0.13290239870548248,1.2335013151168823
1761316104364777200,6.526777099609375,-0.4908791482448578,0.04925590008497238,1.2607403993606567
1761316104374760200,6.53676025390625,-0.42864346504211426,0.13327623903751373,1.2364404201507568
1761316104384742100,6.5467421875,-0.30436670780181885,0.30822840332984924,1.202298641204834
1761316104394725400,6.556725341796875,-0.1707330048084259,0.48397305607795715,1.2047733068466187
1761316104404708000,6.5667080078125,-0.06558973342180252,0.6098193526268005,1.2361726760864258
1761316104414690300,6.576690185546875,-0.01834632083773613,0.7228529453277588,1.2644248008728027
1761316104424673300,6.58667333984375,-0.017670271918177605,0.781454861164093,1.2836613655090332
1761316104434655200,6.5966552734375,-0.04266936704516411,0.7212733030319214,1.2628746032714844
1761316104444638200,6.60663818359375,-0.08380933105945587,0.5663860440254211,1.1802489757537842
1761316104454620200,6.6166201171875,-0.13622567057609558,0.3434602916240692,1.0367681980133057
1761316104464603100,6.62660302734375,-0.17959219217300415,0.07250384241342545,0.8479841947555542
1761316104474585300,6.63658544921875,-0.18096105754375458,-0.14864423871040344,0.6621102094650269
1761316104484568000,6.646568115234375,-0.19732588529586792,-0.24614372849464417,0.5166096091270447
1761316104494550300,6.65655029296875,-0.21195809543132782,-0.26992282271385193,0.42788776755332947
1761316104504533200,6.666533203125,-0.22642476856708527,-0.21854400634765625,0.39102956652641296
1761316104514515200,6.67651513671875,-0.2876780033111572,-0.1320490688085556,0.3483036458492279
1761316104524498200,6.686498291015625,-0.389629065990448,-0.07368353009223938,0.26700159907341003
1761316104534480100,6.696480224609375,-0.4826010763645172,-0.0027395805809646845,0.1593364179134369
1761316104544462800,6.706462890625,-0.5449467301368713,0.11472578346729279,0.04850340262055397
1761316104554445000,6.716445068359375,-0.5863181352615356,0.28113821148872375,-0.034979503601789474
1761316104564428000,6.726427978515625,-0.6022869944572449,0.41902071237564087,-0.06618642061948776
1761316104574410000,6.736409912109375,-0.5806645154953003,0.4918770492076874,-0.044194839894771576
1761316104584393000,6.74639306640625,-0.5639913082122803,0.5025395750999451,-0.05164564400911331
1761316104594375000,6.756375,-0.5090723633766174,0.4947945177555084,-0.1127108633518219
1761316104604358000,6.76635791015625,-0.4685722291469574,0.4477802813053131,-0.16017815470695496
1761316104614340000,6.776340087890625,-0.42283162474632263,0.4149238169193268,-0.1388172060251236
1761316104624323000,6.786322998046875,-0.34791991114616394,0.3530202805995941,-0.08610091358423233
1761316104634305000,6.796304931640625,-0.2960628271102905,0.35520434379577637,-0.06485208123922348
1761316104644288000,6.8062880859375,-0.2587575316429138,0.46997255086898804,-0.0698019340634346
1761316104654270000,6.81627001953125,-0.26480212807655334,0.5557218194007874,-0.17487989366054535
1761316104664253000,6.8262529296875,-0.33674153685569763,0.6215479969978333,-0.3523978590965271
1761316104674235100,6.836235107421875,-0.4521064758300781,0.7453665733337402,-0.4167443811893463
1761316104684217900,6.8462177734375,-0.5146805047988892,0.8263748288154602,-0.41712915897369385
1761316104694200000,6.856199951171875,-0.4481579661369324,0.7836819291114807,-0.5137446522712708
1761316104704183000,6.86618310546875,-0.29142922163009644,0.652338445186615,-0.6317495703697205
1761316104714166000,6.876166015625,-0.10367503762245178,0.6706578135490417,-0.542485237121582
1761316104724148000,6.88614794921875,0.03581768646836281,0.7859512567520142,-0.26756301522254944
1761316104734131200,6.896131103515625,0.0840589851140976,0.7270106673240662,-0.0016892398707568645
1761316104744113000,6.90611279296875,0.11167905479669571,0.5410836935043335,0.11591853946447372
1761316104754096000,6.91609619140625,0.1405615657567978,0.3746292293071747,0.049619145691394806
1761316104764077800,6.926077880859375,0.11041165888309479,0.29126110672950745,-0.17700520157814026
1761316104774061000,6.93606103515625,0.012612922117114067,0.26961439847946167,-0.47483688592910767
1761316104784043000,6.94604296875,-0.12978863716125488,0.3144398629665375,-0.7760156989097595
1761316104794026000,6.95602587890625,-0.26844316720962524,0.3994128108024597,-1.0379948616027832
1761316104804008000,6.966008056640625,-0.3669518232345581,0.4957144558429718,-1.2258312702178955
1761316104813991200,6.9759912109375,-0.4397916793823242,0.5699056386947632,-1.3156017065048218
1761316104823972900,6.985972900390625,-0.46888548135757446,0.5923874378204346,-1.2821985483169556
1761316104833956000,6.9959560546875,-0.45211848616600037,0.5734829902648926,-1.1231571435928345
1761316104843938000,7.00593798828125,-0.42868804931640625,0.535125195980072,-0.8717420697212219
1761316104853921000,7.015921142578125,-0.43201062083244324,0.49032309651374817,-0.5666317343711853
1761316104863903000,7.025903076171875,-0.4459652602672577,0.44838547706604004,-0.22793461382389069
1761316104873886200,7.03588623046875,-0.42005670070648193,0.44432923197746277,0.11271058022975922
1761316104883868000,7.045867919921875,-0.386631041765213,0.40859830379486084,0.3913886547088623
1761316104893851100,7.05585107421875,-0.3775632381439209,0.30915799736976624,0.5788527727127075
1761316104903832800,7.065832763671875,-0.37643149495124817,0.1830558180809021,0.6775355935096741
1761316104913816000,7.075816162109375,-0.3430818021297455,0.09399519115686417,0.6683897972106934
1761316104923798000,7.085798095703125,-0.2958957254886627,0.011732339859008789,0.5578025579452515
1761316104933781000,7.095781005859375,-0.2586623430252075,-0.055984921753406525,0.358421266078949
1761316104943763000,7.105762939453125,-0.19813388586044312,-0.06310250610113144,0.12641368806362152
1761316104953746200,7.11574609375,-0.10222920775413513,-0.035581666976213455,-0.09610193967819214
1761316104963728000,7.125727783203125,-0.0013303924351930618,0.0035012816078960896,-0.25168338418006897
1761316104973711000,7.135711181640625,0.07126391679048538,0.037466440349817276,-0.30329224467277527
1761316104983693000,7.145693115234375,0.11300214380025864,0.04278187453746796,-0.290052205324173
1761316104993676000,7.155676025390625,0.09786926209926605,-0.0008343118242919445,-0.23492023348808289
1761316105003658000,7.165657958984375,0.03271801769733429,-0.07273384183645248,-0.14123129844665527
1761316105013641200,7.17564111328125,-0.04814061522483826,-0.16314363479614258,-0.025628002360463142
1761316105023623000,7.185622802734375,-0.1219913437962532,-0.2523198425769806,0.08696355670690536
1761316105033606100,7.195606201171875,-0.1815904974937439,-0.35937681794166565,0.19708900153636932
1761316105043587800,7.205587890625,-0.2278362512588501,-0.4789941906929016,0.3004041016101837
1761316105053571000,7.215571044921875,-0.25115329027175903,-0.5350878238677979,0.4146457314491272
1761316105063553000,7.225552978515625,-0.19717451930046082,-0.5460681319236755,0.5145313739776611
1761316105073536000,7.235535888671875,-0.08760354667901993,-0.37571343779563904,0.5239917635917664
1761316105083519000,7.24551904296875,0.051032938063144684,-0.3569239675998688,0.3256353735923767
1761316105093501200,7.255501220703125,0.20543156564235687,-0.5324262976646423,0.09439629316329956
1761316105103484000,7.26548388671875,0.35279154777526855,-0.5810037851333618,0.012946845963597298
1761316105113466000,7.275466064453125,0.44530177116394043,-0.5526571273803711,-0.0289824940264225
1761316105123449000,7.285448974609375,0.4513322412967682,-0.4099293351173401,-0.08768782019615173
1761316105133431000,7.29543115234375,0.38824620842933655,-0.23040354251861572,-0.10067286342382431
1761316105143414000,7.3054140625,0.25126901268959045,-0.028881387785077095,0.008927697315812111
1761316105153396200,7.315396240234375,0.029354218393564224,0.2638777792453766,0.25371214747428894
1761316105163379000,7.32537890625,-0.21998153626918793,0.4320203363895416,0.578357994556427
1761316105173361200,7.335361083984375,-0.33464208245277405,0.39876410365104675,0.8966754674911499
1761316105183344000,7.34534423828125,-0.2356766313314438,0.29116395115852356,1.0850505828857422
1761316105193326000,7.355326171875,-0.038134533911943436,-0.009126352146267891,1.0532622337341309
1761316105203309000,7.36530908203125,0.23649996519088745,-0.41884416341781616,0.8617002367973328
1761316105213291000,7.375291015625,0.6257616877555847,-0.7432206273078918,0.6129618287086487
1761316105223274000,7.38527392578125,1.0410324335098267,-0.99061518907547,0.3791302740573883
1761316105233256200,7.395256103515625,1.3101052045822144,-1.1890387535095215,0.19981540739536285
1761316105243239000,7.405239013671875,1.4067106246948242,-1.1814701557159424,0.08302662521600723
1761316105253221000,7.41522119140625,1.279109239578247,-0.9652948379516602,0.056428033858537674
1761316105263204000,7.4252041015625,0.9664579033851624,-0.6240732073783875,0.08261507749557495
1761316105273186000,7.43518603515625,0.6450313925743103,-0.2973373830318451,-0.004227675497531891
1761316105283169000,7.4451689453125,0.40219515562057495,-0.06901466101408005,-0.22694151103496552
1761316105293151000,7.45515087890625,0.2488522231578827,0.19674111902713776,-0.5157003402709961
1761316105303134000,7.465134033203125,0.1575407087802887,0.45224279165267944,-0.831272542476654
1761316105313116200,7.4751162109375,0.12102077901363373,0.6454067230224609,-1.0741099119186401
1761316105323099000,7.485098876953125,0.0867217630147934,0.670210063457489,-1.1992627382278442
1761316105333081000,7.4950810546875,0.049535781145095825,0.48583537340164185,-1.2375041246414185
1761316105343064000,7.50506396484375,0.026982447132468224,0.2192072868347168,-1.210973858833313
1761316105353046000,7.5150458984375,0.0020541935227811337,-0.02266312763094902,-1.1562328338623047
1761316105363029000,7.525029052734375,-0.03615209460258484,-0.1723325252532959,-1.1060537099838257
1761316105373011200,7.53501123046875,-0.09231443703174591,-0.14600186049938202,-1.0801293849945068
1761316105382994000,7.544993896484375,-0.2063336968421936,0.033573638647794724,-1.1192442178726196
1761316105392976100,7.55497607421875,-0.36486369371414185,0.3043263256549835,-1.186452031135559
1761316105402959000,7.564958984375,-0.5458241105079651,0.6299217939376831,-1.259924292564392
1761316105412941000,7.574941162109375,-0.7155851721763611,0.9176449179649353,-1.2943719625473022
1761316105422924000,7.584924072265625,-0.8337438702583313,1.114242434501648,-1.23793625831604
1761316105432906000,7.594906005859375,-0.8677024245262146,1.2206370830535889,-1.0791399478912354
1761316105442889000,7.604888916015625,-0.8149648904800415,1.2179522514343262,-0.8400219082832336
1761316105452871200,7.61487109375,-0.7359347939491272,1.1424671411514282,-0.6211665272712708
1761316105462854000,7.62485400390625,-0.6439989805221558,0.9623367190361023,-0.4060356020927429
1761316105472836000,7.634836181640625,-0.5518733263015747,0.7461000084877014,-0.144049271941185
1761316105482819000,7.644819091796875,-0.46004998683929443,0.48976168036460876,0.1431371569633484
1761316105492801000,7.654801025390625,-0.4027208983898163,0.21821114420890808,0.40134525299072266
1761316105502784000,7.664783935546875,-0.3882451057434082,-0.05793832242488861,0.6338214874267578
1761316105512766200,7.67476611328125,-0.42997071146965027,-0.3270914852619171,0.8088569045066833
1761316105522749000,7.6847490234375,-0.4837462306022644,-0.510125994682312,0.8777245879173279
1761316105532732000,7.69473193359375,-0.5206501483917236,-0.6135250926017761,0.871360182762146
1761316105542713900,7.7047138671875,-0.5825464129447937,-0.536180317401886,0.8160442113876343
1761316105552696800,7.71469677734375,-0.6034998893737793,-0.25862646102905273,0.7316499352455139
1761316105562679000,7.724678955078125,-0.5941445231437683,0.031332843005657196,0.5765096545219421
1761316105572661800,7.734661865234375,-0.6062605381011963,0.18068265914916992,0.3632615804672241
1761316105582644000,7.74464404296875,-0.6535978317260742,0.12042772024869919,0.1402001976966858
1761316105592627000,7.754626953125,-0.7230395078659058,-0.04705261439085007,-0.03458572179079056
1761316105602609000,7.76460888671875,-0.8108465671539307,-0.1427200585603714,-0.16371336579322815
1761316105612591900,7.774591796875,-0.889211118221283,-0.11440825462341309,-0.3116077482700348
1761316105622573800,7.78457373046875,-0.9380836486816406,0.15138153731822968,-0.41906458139419556
1761316105632556800,7.794556884765625,-0.9764560461044312,0.7210327386856079,-0.4577041268348694
1761316105642539000,7.8045390625,-0.9795904159545898,1.3757219314575195,-0.45525795221328735
1761316105652522000,7.81452197265625,-0.9761038422584534,1.7572951316833496,-0.4544198513031006
1761316105662504000,7.82450390625,-0.943191409111023,1.7827366590499878,-0.4229567348957062
1761316105672487000,7.83448681640625,-0.8306393027305603,1.6340279579162598,-0.2309819757938385
1761316105682468900,7.84446875,-0.6203599572181702,1.233483076095581,0.07854744046926498
1761316105692451800,7.854451904296875,-0.3729754388332367,0.6751689314842224,0.37077397108078003
1761316105702434000,7.86443408203125,-0.23068822920322418,-0.03965252637863159,0.48678651452064514
1761316105712416800,7.874416748046875,-0.285603404045105,-0.8685912489891052,0.30073273181915283
1761316105722399000,7.88439892578125,-0.4866371154785156,-1.5035465955734253,-0.09197212755680084
1761316105732382000,7.8943818359375,-0.6329291462898254,-1.5961633920669556,-0.3768526017665863
1761316105742364000,7.904364013671875,-0.5889208912849426,-1.160211443901062,-0.39927855134010315
1761316105752347000,7.914346923828125,-0.38120338320732117,-0.37071487307548523,-0.17466089129447937
1761316105762328800,7.924328857421875,-0.16225497424602509,0.11001051962375641,0.0873493179678917
1761316105772311800,7.934311767578125,0.014632455073297024,0.1149219200015068,0.32249072194099426
1761316105782294000,7.9442939453125,0.18078048527240753,-0.012941274791955948,0.5681380033493042
1761316105792276700,7.95427685546875,0.23409909009933472,-0.16523787379264832,0.7742466926574707
1761316105802259000,7.964259033203125,0.12796229124069214,-0.2961746156215668,0.8819806575775146
1761316105812242000,7.974241943359375,-0.08925711363554001,-0.48810917139053345,0.7560237646102905
1761316105822224000,7.984223876953125,-0.29970818758010864,-0.7037985920906067,0.3408850133419037
1761316105832206800,7.994206787109375,-0.4436355531215668,-0.7144901156425476,-0.33536747097969055
1761316105842189000,8.00418896484375,-0.49540388584136963,-0.40784940123558044,-1.1587616205215454
1761316105852171800,8.014171875,-0.46207842230796814,0.15940549969673157,-1.94207763671875
1761316105862154000,8.024154052734374,-0.3857857286930084,0.745218813419342,-2.552992820739746
1761316105872137000,8.034136962890624,-0.29526036977767944,1.1420884132385254,-2.8629283905029297
1761316105882119000,8.044118896484376,-0.17318138480186462,1.3082633018493652,-2.8269803524017334
1761316105892102000,8.054101806640626,-0.03493881598114967,1.292984962463379,-2.4856574535369873
1761316105902083800,8.064083740234375,0.020309630781412125,1.0952003002166748,-1.953526496887207
1761316105912066800,8.07406689453125,-0.05168839544057846,0.6764265298843384,-1.308707356452942
1761316105922049000,8.084049072265625,-0.19404266774654388,0.1063273549079895,-0.6304295063018799
1761316105932031700,8.09403173828125,-0.3260166645050049,-0.4313803017139435,0.0023670820519328117
1761316105942014000,8.104013916015624,-0.395310640335083,-0.8273451924324036,0.5388895273208618
1761316105951997000,8.113996826171874,-0.4077795743942261,-0.9680099487304688,0.9142112135887146
1761316105961979000,8.123978759765626,-0.3618660271167755,-0.8562644124031067,1.1063251495361328
1761316105971961900,8.1339619140625,-0.2651402950286865,-0.5592801570892334,1.1176648139953613
1761316105981944000,8.143944091796875,-0.1305255889892578,-0.22147822380065918,1.0168925523757935
1761316105991926800,8.1539267578125,0.009192634373903275,0.044419772922992706,0.8728051781654358
1761316106001909000,8.163908935546875,0.10619954019784927,0.22712384164333344,0.7172152996063232
1761316106011892000,8.17389208984375,0.10985898971557617,0.3079582452774048,0.5658838748931885
1761316106021874000,8.1838740234375,0.027929561212658882,0.27569830417633057,0.4377187490463257
1761316106031857000,8.19385693359375,-0.11132953315973282,0.20914003252983093,0.3330234885215759
1761316106041838800,8.2038388671875,-0.231475368142128,0.19920268654823303,0.22650472819805145
1761316106051821800,8.21382177734375,-0.30968523025512695,0.2807218134403229,0.12101665139198303
1761316106061804000,8.223803955078125,-0.32640624046325684,0.3935655653476715,0.06032823771238327
1761316106071787000,8.233787109375,-0.2930442988872528,0.4899269938468933,0.03669214993715286
1761316106081769000,8.24376904296875,-0.21923385560512543,0.5458588600158691,0.04299953579902649
1761316106091752000,8.253751953125,-0.11303791403770447,0.5597922801971436,0.07413854449987411
1761316106101734000,8.26373388671875,0.021663295105099678,0.4745219349861145,0.1503758430480957
1761316106111716900,8.273716796875,0.12578116357326508,0.293374240398407,0.25100845098495483
1761316106121698800,8.28369873046875,0.1721220165491104,0.05965889245271683,0.36208659410476685
1761316106131681800,8.293681884765626,0.18262632191181183,-0.1574489176273346,0.4392218589782715
1761316106141664000,8.3036640625,0.1815570592880249,-0.26627448201179504,0.4642028510570526
1761316106151647000,8.31364697265625,0.20772714912891388,-0.24974210560321808,0.48298585414886475
1761316106161629000,8.32362890625,0.2561376690864563,-0.19345904886722565,0.4676830768585205
1761316106171612000,8.33361181640625,0.3422371447086334,-0.10960462689399719,0.4112549424171448
1761316106181593900,8.34359375,0.4973873496055603,0.06695760786533356,0.3051561713218689
1761316106191576800,8.353576904296874,0.6655025482177734,0.3229411840438843,0.16430158913135529
1761316106201559000,8.36355908203125,0.7148953676223755,0.5516723394393921,0.11630544811487198
1761316106211542000,8.3735419921875,0.5910242795944214,0.6834871172904968,0.26069244742393494
1761316106221524000,8.38352392578125,0.34086373448371887,0.5816123485565186,0.4855968654155731
1761316106231507000,8.3935068359375,0.1102563664317131,0.0950583815574646,0.5222741961479187
1761316106241489000,8.403489013671875,0.020489659160375595,-0.4975263476371765,0.3799692690372467
1761316106251472000,8.413471923828125,0.1292845755815506,-0.783300518989563,0.1729002445936203
1761316106261453800,8.423453857421874,0.3723730742931366,-0.8685694336891174,0.058161064982414246
1761316106271437000,8.43343701171875,0.6900568008422852,-0.9749413728713989,0.0500035360455513
1761316106281419000,8.4434189453125,0.9538305997848511,-1.1719704866409302,0.01630816049873829
1761316106291402000,8.453402099609375,1.059058666229248,-1.1901925802230835,-0.05101841315627098
1761316106301384000,8.463384033203125,1.003239393234253,-0.9700695276260376,-0.0813995972275734
1761316106311367000,8.473366943359375,0.8371686935424805,-0.7029944658279419,-0.03155134618282318
1761316106321348900,8.483348876953125,0.6291477084159851,-0.5950698852539062,0.022817039862275124
1761316106331332000,8.49333203125,0.3961503505706787,-0.7000466585159302,-0.04430713504552841
1761316106341314000,8.50331396484375,0.1942935585975647,-0.9018402099609375,-0.35840314626693726
1761316106351297000,8.513297119140624,0.02745744027197361,-0.926911473274231,-0.887955904006958
1761316106361280000,8.523280029296876,-0.09253423660993576,-0.7511110901832581,-1.4954380989074707
1761316106371262000,8.533261962890625,-0.08097824454307556,-0.455898642539978,-1.9816133975982666
1761316106381245000,8.543244873046875,0.09290716797113419,-0.1350916177034378,-2.223334789276123
1761316106391227000,8.553226806640625,0.3357888162136078,0.15748858451843262,-2.198516368865967
1761316106401208800,8.563208740234375,0.5142524242401123,0.35500141978263855,-1.9084827899932861
1761316106411192000,8.573192138671875,0.5980900526046753,0.3775983452796936,-1.4423365592956543
1761316106421174000,8.583174072265624,0.5649997591972351,0.27614566683769226,-0.8653068542480469
1761316106431157000,8.593156982421876,0.4304347336292267,0.14448830485343933,-0.27115774154663086
1761316106441139000,8.603138916015626,0.2259015291929245,0.03382419794797897,0.24706928431987762
1761316106451122000,8.613121826171875,0.03533238545060158,-0.02883545681834221,0.6302635669708252
1761316106461105000,8.62310498046875,-0.08039197325706482,0.011877063661813736,0.8478316068649292
1761316106471087000,8.633087158203125,-0.109154112637043,0.17917151749134064,0.9241365194320679
1761316106481070000,8.643070068359375,-0.03983839601278305,0.47314730286598206,0.8759920597076416
1761316106491052000,8.653052001953125,0.09974240511655807,0.7858434319496155,0.7780644297599792
1761316106501034000,8.663033935546874,0.25917693972587585,0.978278636932373,0.6789494156837463
1761316106511017000,8.673016845703126,0.4048992693424225,1.013395071029663,0.599393904209137
1761316106520999000,8.6829990234375,0.4909643828868866,0.9140778183937073,0.5622149109840393
1761316106530982100,8.692982177734375,0.5001051425933838,0.7507660984992981,0.5390501618385315
1761316106540965000,8.702965087890625,0.45892101526260376,0.6445510983467102,0.5220965147018433
1761316106550947000,8.712947021484375,0.39763370156288147,0.6132205724716187,0.5135152339935303
1761316106560930000,8.722929931640625,0.34604376554489136,0.6278076767921448,0.5234900712966919
1761316106570912000,8.732912109375,0.3025958836078644,0.6458410620689392,0.5591817498207092
1761316106580895200,8.742895263671874,0.2851901948451996,0.645656168460846,0.5866953730583191
1761316106590877200,8.752877197265626,0.29875314235687256,0.644540011882782,0.5851896405220032
1761316106600860200,8.762860107421876,0.30772075057029724,0.6586881875991821,0.5536754727363586
1761316106610842000,8.772842041015625,0.2961812913417816,0.6980321407318115,0.4880876839160919
1761316106620825000,8.7828251953125,0.28004297614097595,0.6989231109619141,0.40640392899513245
1761316106630807000,8.79280712890625,0.2261917144060135,0.6050648093223572,0.3599778413772583
1761316106640790000,8.8027900390625,0.15391162037849426,0.5288764834403992,0.34000006318092346
1761316106650772000,8.81277197265625,0.09559504687786102,0.5387341976165771,0.324682354927063
1761316106660755200,8.822755126953124,0.03628731891512871,0.5749955177307129,0.2676025331020355
1761316106670737200,8.832737060546876,0.032960232347249985,0.5552611947059631,0.1380368322134018
1761316106680720100,8.84272021484375,0.13296213746070862,0.44987526535987854,-0.046305108815431595
1761316106690702000,8.8527021484375,0.29474785923957825,0.4599430561065674,-0.2076692283153534
1761316106700685000,8.86268505859375,0.4174131751060486,0.5816934108734131,-0.3005749583244324
1761316106710667000,8.8726669921875,0.29713818430900574,0.623010516166687,-0.2444581389427185
1761316106720650200,8.882650146484375,0.04174557328224182,0.4622044861316681,-0.18921557068824768
1761316106730632200,8.892632080078124,-0.1843717098236084,0.18683920800685883,-0.2741672396659851
1761316106740615200,8.902615234375,-0.34044337272644043,-0.06467494368553162,-0.5234902501106262
1761316106750597000,8.91259716796875,-0.34071820974349976,-0.27144357562065125,-0.7618109583854675
1761316106760580000,8.922580078125,-0.14173276722431183,-0.30139511823654175,-0.7644620537757874
1761316106770562000,8.93256201171875,0.10443013161420822,-0.318746954202652,-0.4962121844291687
1761316106780545000,8.942544921875,0.2939089834690094,-0.5277954339981079,-0.18086843192577362
1761316106790527200,8.95252734375,0.39769449830055237,-0.8294152021408081,-0.05944906175136566
1761316106800510200,8.96251025390625,0.37848979234695435,-0.9117160439491272,-0.020545460283756256
1761316106810492200,8.9724921875,0.2632180452346802,-0.7209551334381104,0.13561351597309113
1761316106820475100,8.98247509765625,0.10742513835430145,-0.4719572961330414,0.3314089775085449
1761316106830457000,8.99245703125,-0.04152119904756546,-0.35031047463417053,0.38291478157043457
1761316106840440000,9.002440185546876,-0.18425051867961884,-0.35743170976638794,0.26226186752319336
1761316106850422000,9.012422119140625,-0.31711748242378235,-0.4019278287887573,-0.015004636719822884
1761316106860405200,9.0224052734375,-0.4574359655380249,-0.37667518854141235,-0.43423518538475037
1761316106870387200,9.03238720703125,-0.5484545826911926,-0.28766489028930664,-0.8903947472572327
1761316106880370200,9.0423701171875,-0.5136202573776245,-0.1506524384021759,-1.264390468597412
1761316106890352000,9.05235205078125,-0.38993874192237854,-0.05599170923233032,-1.493232011795044
1761316106900335000,9.062335205078124,-0.22656889259815216,-0.04136938229203224,-1.4877995252609253
1761316106910317000,9.072317138671876,-0.11820726096630096,-0.12071772664785385,-1.2765133380889893
1761316106920300000,9.082300048828126,-0.10029999166727066,-0.24121621251106262,-0.9187500476837158
1761316106930282200,9.0922822265625,-0.17858120799064636,-0.36947885155677795,-0.5317392349243164
1761316106940265200,9.10226513671875,-0.32331758737564087,-0.48847925662994385,-0.20737917721271515
1761316106950247200,9.1122470703125,-0.4512214958667755,-0.5420716404914856,0.013664252124726772
1761316106960230100,9.122230224609375,-0.5343409180641174,-0.4755360782146454,0.10088292509317398
1761316106970212000,9.132212158203124,-0.5674570202827454,-0.3074781000614166,0.0797981470823288
1761316106980195000,9.142195068359374,-0.5486472249031067,-0.16592299938201904,0.0036936094984412193
1761316106990177300,9.15217724609375,-0.4663289189338684,-0.08333171159029007,-0.11675290763378143
1761316107000160000,9.162159912109376,-0.343962162733078,0.016618862748146057,-0.2347814440727234
1761316107010142200,9.17214208984375,-0.20567938685417175,0.1417994201183319,-0.322713166475296
1761316107020125200,9.182125244140625,-0.07851345837116241,0.2819932997226715,-0.36464327573776245
1761316107030107100,9.192107177734375,0.006450701970607042,0.37684524059295654,-0.3306400179862976
1761316107040090000,9.202090087890625,0.024761013686656952,0.33183300495147705,-0.21462450921535492
1761316107050072300,9.212072265625,-0.008425436913967133,0.13854371011257172,-0.041212230920791626
1761316107060055000,9.222054931640624,-0.08465158939361572,-0.08691875636577606,0.1415235996246338
1761316107070037200,9.232037353515626,-0.15621605515480042,-0.21129050850868225,0.31670206785202026
1761316107080020200,9.242020263671876,-0.1677962690591812,-0.16031309962272644,0.46439242362976074
1761316107090002200,9.252002197265625,-0.13915663957595825,0.014472556300461292,0.5401856899261475
1761316107099985200,9.261985107421875,-0.09638969600200653,0.18829898536205292,0.541593074798584
1761316107109967000,9.271967041015625,-0.042196761816740036,0.27547889947891235,0.4907301664352417
1761316107119950000,9.2819501953125,0.005727146286517382,0.2586548924446106,0.39780691266059875
1761316107129932300,9.291932373046874,0.026965856552124023,0.20766469836235046,0.3311932384967804
1761316107139915000,9.3019150390625,0.04621563479304314,0.20300261676311493,0.3188604712486267
1761316107149897200,9.311897216796876,0.05765284597873688,0.21136069297790527,0.3511393070220947
1761316107159880200,9.321880126953126,0.05186691880226135,0.1552022099494934,0.42117464542388916
1761316107169862100,9.331862060546875,0.03818972036242485,0.10168039053678513,0.4516822099685669
1761316107179845000,9.34184521484375,0.03432294353842735,0.12832753360271454,0.41979408264160156
1761316107189827300,9.351827392578125,0.05469772219657898,0.236130952835083,0.31448256969451904
1761316107199810000,9.36181005859375,0.09444215893745422,0.43697720766067505,0.20851397514343262
1761316107209792300,9.371792236328124,0.17827154695987701,0.6599559783935547,0.14956358075141907
1761316107219775200,9.381775146484374,0.3111078143119812,0.872954249382019,0.10251517593860626
1761316107229757200,9.391757080078126,0.36571457982063293,0.9614489674568176,0.04370485618710518
1761316107239740200,9.401740234375,0.28114888072013855,0.8802376985549927,0.06613971292972565
1761316107249722000,9.41172216796875,0.12173711508512497,0.6532500982284546,0.2624431848526001
1761316107259705000,9.421705078125,-0.09088292717933655,0.27038589119911194,0.5579624176025391
1761316107269687300,9.431687255859375,-0.28184273838996887,-0.26654067635536194,0.7878629565238953
1761316107279670000,9.441669921875,-0.36209672689437866,-0.7276701927185059,0.7953348755836487
1761316107289652200,9.45165234375,-0.37971699237823486,-0.8656453490257263,0.584521472454071
1761316107299635200,9.46163525390625,-0.3994872272014618,-0.8031278848648071,0.20911535620689392
1761316107309617200,9.4716171875,-0.46223369240760803,-0.7515901327133179,-0.37346896529197693
1761316107319600000,9.48160009765625,-0.5283836722373962,-0.611264705657959,-1.1217777729034424
1761316107329582300,9.491582275390625,-0.5507667660713196,-0.2598816454410553,-1.8603929281234741
1761316107339565000,9.50156494140625,-0.5455377101898193,0.13285499811172485,-2.382031202316284
1761316107349547300,9.51154736328125,-0.45317235589027405,0.39131397008895874,-2.4995551109313965
1761316107359530200,9.5215302734375,-0.32160037755966187,0.3522486686706543,-2.2398147583007812
1761316107369512200,9.53151220703125,-0.2481038123369217,-0.0003767884336411953,-1.7345861196517944
1761316107379495200,9.5414951171875,-0.2269119918346405,-0.41107115149497986,-1.1834533214569092
1761316107389477000,9.55147705078125,-0.20634199678897858,-0.7203326225280762,-0.7386072278022766
1761316107399460000,9.561460205078125,-0.18430037796497345,-1.009910225868225,-0.34921061992645264
1761316107409442300,9.5714423828125,-0.16835656762123108,-1.3378180265426636,0.035926152020692825
1761316107419425000,9.581425048828125,-0.17952986061573029,-1.6387592554092407,0.3819107413291931
1761316107429407200,9.5914072265625,-0.2501491606235504,-1.7444320917129517,0.5934099555015564
1761316107439389000,9.601388916015624,-0.3311752676963806,-1.5698574781417847,0.5704153180122375
1761316107449372200,9.6113720703125,-0.4045863747596741,-1.2009713649749756,0.3294740319252014
1761316107459354000,9.62135400390625,-0.43641072511672974,-0.6966803073883057,-0.002042000647634268
1761316107469337000,9.631337158203126,-0.44604071974754333,-0.19515462219715118,-0.31900450587272644
1761316107479319000,9.641319091796875,-0.41955500841140747,0.1513601541519165,-0.5483679175376892
1761316107489302300,9.65130224609375,-0.3675898015499115,0.3336157202720642,-0.652386486530304
1761316107499284000,9.661283935546875,-0.3255194425582886,0.3584522008895874,-0.6244184374809265
1761316107509267200,9.67126708984375,-0.3003195524215698,0.2841755747795105,-0.47316500544548035
1761316107519249200,9.681249267578124,-0.2488740235567093,0.188223734498024,-0.23826073110103607
1761316107529232600,9.691232666015624,-0.17743952572345734,0.12110994756221771,0.010349081829190254
1761316107539214800,9.70121484375,-0.10910260677337646,0.10722515732049942,0.24383772909641266
1761316107549197600,9.711197509765626,-0.04943528026342392,0.12297935783863068,0.4410647749900818
1761316107559179800,9.7211796875,-0.00040585955139249563,0.14689645171165466,0.5847123861312866
1761316107569162800,9.731162841796875,0.03456304222345352,0.1817798614501953,0.6657129526138306
1761316107579144700,9.741144775390625,0.06468525528907776,0.24835887551307678,0.7139694690704346
1761316107589127700,9.751127685546875,0.0989375039935112,0.2870327830314636,0.752787172794342
1761316107599109600,9.761109619140624,0.1269167810678482,0.33158373832702637,0.7899825572967529
1761316107609092600,9.771092529296874,0.1459708958864212,0.433898389339447,0.8359442353248596
1761316107619074800,9.78107470703125,0.13435152173042297,0.5568621158599854,0.9168907403945923
1761316107629057500,9.7910576171875,0.07554599642753601,0.5686417818069458,0.9738267064094543
1761316107639039700,9.801039794921875,0.0017166798934340477,0.5134003758430481,1.0100606679916382
1761316107649022700,9.811022705078125,-0.08739562332630157,0.38873252272605896,1.0397038459777832
1761316107659004700,9.821004638671875,-0.12285856157541275,0.2633349597454071,1.07052743434906
1761316107668987600,9.830987548828125,-0.12739019095897675,0.1607462763786316,1.083247423171997
1761316107678969900,9.840969970703124,-0.10326515138149261,0.10976564139127731,1.0776944160461426
1761316107688952600,9.85095263671875,-0.07492566108703613,0.1640286147594452,1.0825049877166748
1761316107698934800,9.860934814453126,-0.05498213693499565,0.2843954861164093,1.0495222806930542
1761316107708917800,9.870917724609376,-0.0405464731156826,0.39442798495292664,1.03965425491333
1761316107718899700,9.880899658203125,-0.041983675211668015,0.32830673456192017,1.0206189155578613
1761316107728882700,9.890882568359375,-0.02360333688557148,0.1796048879623413,1.0376412868499756
1761316107738864600,9.90086474609375,-0.004421778488904238,-0.027979020029306412,1.1004199981689453
1761316107748847600,9.91084765625,0.00003502133768051863,-0.24516326189041138,1.166247010231018
1761316107758829800,9.920829833984374,0.03329261392354965,-0.4915715754032135,1.217226266860962
