time,seconds_elapsed,z,y,x
1761315236096033000,0.071032958984375,-0.07086392677426338,0.03259047461720183,0.14741832027509807
1761315236106015200,0.08101513671875,-0.19166765023767948,0.03526210497925058,0.08892660301364957
1761315236115996200,0.09099609375,-0.31057226208150385,0.03510070387246087,0.009039996350184083
1761315236125978000,0.10097802734375,-0.3574742985099554,0.030192583162616936,-0.06993197968639434
1761315236135960000,0.1109599609375,-0.30047289287149903,0.003392765977140516,-0.12459559002704917
1761315236145941200,0.120941162109375,-0.17903262507021425,-0.022542506800871342,-0.14401589142046867
1761315236155923200,0.130923095703125,-0.03866612300276756,-0.06674122082106769,-0.15282646292895077
1761315236165905200,0.1409052734375,0.030977906587719914,-0.10464209507238119,-0.15711831490397452
1761315236175886000,0.150885986328125,0.02780979794561863,-0.13238758647697976,-0.16627726145870983
1761315236185868300,0.160868408203125,-0.08367080137729645,-0.17685882469508796,-0.20610870191380382
1761315236195850200,0.170850341796875,-0.2224620169520378,-0.20074816126134246,-0.2471284023053944
1761315236205831200,0.1808310546875,-0.25741701047718524,-0.20108382295649496,-0.2509600894227624
1761315236215813000,0.190813232421875,-0.20468729080855846,-0.17796695033377036,-0.22630985148660837
1761315236225795300,0.20079541015625,-0.07759177372455596,-0.17244617761829867,-0.16915522804781793
1761315236235776300,0.2107763671875,0.05207914680540562,-0.18142836110033095,-0.10801979134455322
1761315236245758000,0.220758056640625,0.13616028254926205,-0.20637403831910342,-0.06263838861212134
1761315236255739100,0.2307392578125,0.12435118681192397,-0.2201316377757117,-0.03621953356824815
1761315236265721000,0.24072119140625,0.011041033974289894,-0.21147030201219022,-0.030494141658768056
1761315236275703300,0.250703369140625,-0.07304419342279433,-0.1750682149512693,-0.024642858347296712
1761315236285684200,0.260684326171875,-0.12858487885892392,-0.15405684497412292,-0.0076876318931579585
1761315236295666200,0.270666259765625,-0.1688882476747036,-0.15581479455735534,0.015527750934287906
1761315236305648000,0.280648193359375,-0.1397960087031126,-0.13923440189813263,0.06094086397923529
1761315236315629300,0.29062939453125,-0.08025017927885054,-0.12186144322226755,0.06233334125094115
1761315236325611000,0.300611083984375,-0.08811316773891449,-0.12107459456035867,0.046123453271389
1761315236335593200,0.31059326171875,-0.16745149286985397,-0.1128282876048237,0.05099712372235953
1761315236345574100,0.32057421875,-0.19708441458940504,-0.0787461496577598,0.06789813577122986
1761315236355556400,0.330556396484375,-0.23339491437673568,-0.032271837122086436,0.0719867202591151
1761315236365538000,0.3405380859375,-0.25375790344774724,0.007438506837142631,0.08914119561240076
1761315236375519200,0.350519287109375,-0.25389117443859577,0.03232803342188708,0.14260741286203266
1761315236385501200,0.360501220703125,-0.25163433542251584,0.036551560267899186,0.2024806476097554
1761315236395483100,0.370483154296875,-0.20476094056665897,0.05561994295110926,0.21743271754793822
1761315236405464000,0.380464111328125,-0.12967092052996157,0.05649365704571828,0.19180983518734573
1761315236415446300,0.3904462890625,-0.033957799181342126,0.020323588642384857,0.16489873964712023
1761315236425428200,0.40042822265625,0.022390110984444617,-0.010602039768826215,0.12309819107614457
1761315236435409200,0.4104091796875,0.05782791959047317,-0.028751992432866243,0.12727408852130173
1761315236445391000,0.42039111328125,0.06144786365330219,-0.014264306869730353,0.10981098561026155
1761315236455372000,0.4303720703125,-0.023444003951549528,0.0007426350608468055,0.06700644762851297
1761315236465354200,0.440354248046875,-0.09565350011587143,-0.016591379844117907,0.06771313459314406
1761315236475336200,0.450336181640625,-0.11485445967018604,-0.013369933579582721,0.052502925175428386
1761315236485317000,0.460317138671875,-0.06518880374729633,0.003323116540722549,0.04340659552812576
1761315236495299000,0.470299072265625,0.005833528459072113,-0.008447236355114728,0.04876147362478077
1761315236505281300,0.48028125,0.10808628070950507,-0.041208135635778305,0.05895239357575774
1761315236515262200,0.49026220703125,0.17831132505834102,-0.08327104320367798,0.044305736324936146
1761315236525244200,0.500244140625,0.21369360408484933,-0.09443362119840458,0.026400004212930796
1761315236535226000,0.51022607421875,0.14739303970336914,-0.12577351123262195,0.01099368770122528
1761315236545207300,0.520207275390625,0.09196575151383876,-0.14447346246223897,-0.024011136315017938
1761315236555189200,0.530189208984375,0.06679273181259632,-0.1168996012974996,-0.04255991557091474
1761315236565171200,0.540171142578125,-0.012016601008176803,-0.1121600968865212,-0.04278539488986134
1761315236575152000,0.550152099609375,-0.11352116523981094,-0.13399241872457787,-0.020784940810129045
1761315236585134300,0.56013427734375,-0.20238953526020048,-0.1361400982777588,0.0009343582406640053
1761315236595116000,0.570115966796875,-0.2616653155714273,-0.09749230551612563,-0.00022664836272597312
1761315236605097000,0.580096923828125,-0.27016543289124967,-0.06083278222857043,-0.021794337048381567
1761315236615079200,0.5900791015625,-0.23117899189293384,-0.05589601994613185,-0.01275945526473224
1761315236625060000,0.60006005859375,-0.18242226750850676,-0.07365916524967178,0.01032177978903055
1761315236635042300,0.610042236328125,-0.16848317400515078,-0.10820510304989292,0.0007908581167459487
1761315236645024000,0.62002392578125,-0.18416414273977277,-0.11825480616558343,-0.02451813598908484
1761315236655005200,0.630005126953125,-0.2027420019596815,-0.09790314220618455,-0.06791976308114826
1761315236664987100,0.639987060546875,-0.18947277054190634,-0.0712144207123667,-0.1055089045021683
1761315236674969000,0.649968994140625,-0.17253040356934068,-0.08986289748307318,-0.10784187749437987
1761315236684950300,0.6599501953125,-0.12001929508745669,-0.1329394756055437,-0.06326813788302242
1761315236694932500,0.669932373046875,-0.0325865108281374,-0.1509535999954678,-0.022447467194870112
1761315236704914400,0.67991455078125,-0.0032592940568923947,-0.14042610503388567,0.013515899655222891
1761315236714895400,0.689895263671875,0.013572598278522491,-0.12783126574633644,0.07594641767032444
1761315236724877300,0.699877197265625,-0.0005605564922094345,-0.10703602273790165,0.09298106603622436
1761315236734859500,0.709859619140625,-0.02805120548605919,-0.06062903981739655,0.0957491425100714
1761315236744840400,0.71984033203125,-0.04206628683507442,-0.02726758082769811,0.08882628444433212
1761315236754822400,0.729822509765625,-0.012432196071743964,-0.010103278200142085,0.06870258402191103
1761315236764803300,0.73980322265625,0.03288110986053944,-0.0036349224362522362,0.06020655835531652
1761315236774785500,0.74978564453125,0.06292962664365769,-0.019325206988491116,0.05737937210537493
1761315236784767500,0.759767578125,0.08648819688558577,-0.05151723860632628,0.04622157988362014
1761315236794748400,0.76974853515625,0.08055880683660507,-0.0975044982774183,0.02129325565844774
1761315236804730400,0.77973046875,0.024740473502874373,-0.14118910702932624,-0.0011501929484307766
1761315236814712600,0.789712646484375,-0.03553425471782684,-0.15104787241648882,0.00410042105615139
1761315236824693500,0.799693603515625,-0.061922495427727695,-0.09618230976294725,0.029317791355773806
1761315236834675200,0.80967529296875,-0.0743441701054573,-0.05991731135146692,0.03564662905111909
1761315236844657400,0.819657470703125,-0.06402151353359221,-0.03829935378329828,0.057689680163562296
1761315236854638300,0.829638427734375,-0.02140928325355053,-0.017526176476199178,0.07575827468708157
1761315236864620500,0.83962060546875,-0.005753448960185051,-0.016539594857953487,0.07062661088705062
1761315236874602200,0.849602294921875,-0.00013677812218666077,-0.023802462000399826,0.0620339199129492
1761315236884583400,0.85958349609375,-0.005751695394515991,-0.03024898952497169,0.024421397616341708
1761315236894565400,0.8695654296875,-0.024861469534039497,-0.049047524024546145,-0.031076398526132105
1761315236904547300,0.87954736328125,-0.06228665256500244,-0.09972944431789219,-0.06753770496100187
1761315236914528300,0.8895283203125,-0.06305062267482281,-0.13338605032926423,-0.0630904432285577
1761315236924510500,0.899510498046875,-0.04109598049819469,-0.14068667393252252,-0.04092851497679949
1761315236934491400,0.909491455078125,-0.005746434697508812,-0.14139644790338352,-0.014925985648855566
1761315236944473600,0.9194736328125,-0.005089432093501091,-0.13470971841476856,-0.007384265032410621
1761315236954455300,0.929455322265625,-0.023437574210762976,-0.12933208049703387,-0.003959624345973134
1761315236964436500,0.9394365234375,-0.05559270788431167,-0.12414669548207893,0.007965352855995297
1761315236974418400,0.94941845703125,-0.06934300081729888,-0.13540268738130107,0.010573197266831993
1761315236984400400,0.959400390625,-0.08541326113045215,-0.16226241806047037,0.0236571352455765
1761315236994381300,0.96938134765625,-0.1379571028381586,-0.17340218143519012,0.030719547912478447
1761315237004363300,0.97936328125,-0.16472060660123825,-0.17317014451129362,0.03292429141514003
1761315237014345500,0.989345458984375,-0.1385322723776102,-0.1672774880098179,0.019375804664567113
1761315237024326400,0.999326416015625,-0.12319792512357235,-0.1945274235829711,0.035930925885215396
1761315237034308400,1.009308349609375,-0.12680559422671794,-0.22275530081018804,0.07473813785910606
1761315237044290300,1.019290283203125,-0.10189093320071696,-0.23413970486205068,0.09691139122247695
1761315237054271500,1.029271484375,-0.07999123608171939,-0.24615029625454915,0.0703206136777997
1761315237064253400,1.03925341796875,-0.08849719862043857,-0.256533852700796,0.04102269606627524
1761315237074235400,1.0492353515625,-0.08385726386010646,-0.2535279854157008,0.015574512685462831
1761315237084216300,1.05921630859375,-0.10770108078420161,-0.24621579923881218,0.007907339058443904
1761315237094198500,1.069198486328125,-0.15262860226929187,-0.2209113534439355,0.0043211511347442865
1761315237104179500,1.079179443359375,-0.16797347091734408,-0.13708262155856937,0.0609625643543899
1761315237114161400,1.089161376953125,-0.16476386122107506,-0.02260428345808759,0.10935257431827484
1761315237124143400,1.099143310546875,-0.1579074194550514,0.044104879990592594,0.1660981785647571
1761315237134124500,1.10912451171875,-0.15590484746098518,0.08165995474522933,0.25034685289524494
1761315237144106500,1.1191064453125,-0.1737105532646179,0.0956195978462696,0.2805874581843614
1761315237154088400,1.12908837890625,-0.21353695221841335,0.09987895405748859,0.25679398320801555
1761315237164069400,1.1390693359375,-0.23550386935472487,0.09253361452966928,0.19519706647284327
1761315237174051600,1.149051513671875,-0.182145788654685,0.08230899323849007,0.11029913445338606
1761315237184033300,1.159033203125,-0.08126958545446396,0.05996639292389154,0.024097207163274285
1761315237194014200,1.16901416015625,-0.00011982698738574981,0.010121142650395631,-0.03116035048253834
1761315237203996400,1.178996337890625,0.04366027802824974,-0.01895418171901256,-0.04955035898014903
1761315237213978600,1.188978515625,0.07903086661696433,-0.012215155787579715,-0.07651223485954105
1761315237223959600,1.19895947265625,0.0906003083795309,-0.0021833353884518143,-0.11441365710012615
1761315237233941200,1.208941162109375,0.02710428002476692,-0.018844821326714008,-0.11102993294596672
1761315237243923500,1.21892333984375,-0.04581248762607574,-0.007102415883727372,-0.10101955719366669
1761315237253904400,1.228904296875,-0.08873685259521007,0.009353829806018621,-0.0913118176497519
1761315237263886300,1.23888623046875,-0.12981120578348637,0.001202306728158146,-0.13146766775362193
1761315237273867300,1.2488671875,-0.1846381899923086,-0.022704474163241683,-0.12986015949174762
1761315237283849500,1.258849365234375,-0.1791091974377632,-0.036788510828930886,-0.1366083185777068
1761315237293831400,1.26883154296875,-0.09355214392244815,-0.02850691336430609,-0.15563077975995837
1761315237303812600,1.2788125,0.0474351203918457,-0.03845379542633891,-0.14811828523799775
1761315237313794300,1.288794189453125,0.13881635001599787,-0.08920805030353367,-0.14693616278134286
1761315237323776500,1.298776611328125,0.19183306993246077,-0.15450840640021488,-0.14005765531398356
1761315237333757400,1.30875732421875,0.18267478096485137,-0.1710327306238003,-0.15049034813158213
1761315237343739400,1.318739501953125,0.09429799385368823,-0.17845964748784898,-0.19558570046424864
1761315237353721300,1.328721435546875,0.021025836893916128,-0.1521798721211031,-0.23739735495112835
1761315237363702500,1.33870263671875,0.003362169909477234,-0.13130630317945033,-0.23692959130890667
1761315237373684500,1.3486845703125,-0.012925532546639442,-0.14506050510257482,-0.21678623633794486
1761315237383666400,1.35866650390625,-0.02736614583134651,-0.16258553080130367,-0.15716259243711828
1761315237393647400,1.3686474609375,-0.027358547046780583,-0.13397347656209022,-0.08436148705519736
1761315237403629300,1.37862939453125,-0.04430617471635341,-0.10855654683606698,-0.014359145546332
1761315237413610500,1.388610595703125,-0.05296645103394985,-0.08646985751129686,0.06475676900558174
1761315237423592400,1.398592529296875,-0.07263561262190342,-0.08262468985784799,0.1314626993175596
1761315237433574400,1.408574462890625,-0.11684241861701011,-0.07570354882515966,0.1469420080002397
1761315237443555300,1.418555419921875,-0.14460077863633633,-0.08998170155715197,0.12597330812104046
1761315237453537500,1.42853759765625,-0.127521633541584,-0.11585159921506419,0.10201390199325978
1761315237463519200,1.438519287109375,-0.11816519165337085,-0.12811881398344413,0.09340360229723155
1761315237473500400,1.44850048828125,-0.1563186889588833,-0.12784332151031122,0.10274024350643157
1761315237483482400,1.458482421875,-0.22980478093028067,-0.10875882794251665,0.10885821493007242
1761315237493464600,1.468464599609375,-0.23603227714300154,-0.07667504247212782,0.09571429039239883
1761315237503445500,1.478445556640625,-0.19548925435245035,-0.06108670219071209,0.09455379524566232
1761315237513427500,1.488427490234375,-0.10067278958261013,-0.06596112156035379,0.09598594694063067
1761315237523409400,1.498409423828125,-0.036516251492500304,-0.09762540297703817,0.11964344751238823
1761315237533390600,1.508390625,-0.015006430473923683,-0.10591458095991983,0.12676533528156578
1761315237543372300,1.518372314453125,0.004960837277770042,-0.0826814980790019,0.08240304646380245
1761315237553354500,1.5283544921875,-0.005103460618853569,-0.08280194612089543,0.03306874138712883
1761315237563335400,1.53833544921875,-0.04659983861148357,-0.09884064225200563,0.014829320341348647
1761315237573317600,1.548317626953125,-0.06285071618855,-0.11002828162275254,0.021397519750520587
1761315237583298600,1.558298583984375,-0.031495208460092544,-0.11289938007965683,0.03703260351680219
1761315237593280300,1.5682802734375,-0.03766425248384476,-0.1374269232179038,0.02880165852718055
1761315237603262500,1.578262451171875,-0.024223756152391432,-0.13373590494655072,0.03354936451092362
1761315237613243400,1.588243408203125,0.0009738134682178497,-0.10217130277836695,0.040979149185493585
1761315237623225300,1.598225341796875,-0.018774843096733093,-0.09262076309015974,0.028063699641451237
1761315237633207300,1.608207275390625,-0.10466215147972106,-0.11620085104415193,0.020319369124993682
1761315237643188500,1.6181884765625,-0.13531447937488555,-0.11164105058163404,0.016785568975657222
1761315237653170400,1.62817041015625,-0.12174129657447337,-0.06710437331134453,0.015305778746679424
1761315237663152400,1.63815234375,-0.15310089595615864,-0.06559625203702599,0.0190185887247324
1761315237673133300,1.64813330078125,-0.21011574559807777,-0.07440905203521252,0.07824746115431189
1761315237683115500,1.658115478515625,-0.24970599770843982,-0.04383238319214433,0.09363763024881482
1761315237693097500,1.668097412109375,-0.18942367070317268,-0.008454195818863808,0.072870444291085
1761315237703078100,1.678078125,-0.10819383273720741,-0.012995364646147936,0.04172952916137874
1761315237713060400,1.688060302734375,-0.032760698351263995,-0.057625200092606244,0.024894860346987843
1761315237723041300,1.698041259765625,0.01815232728421688,-0.09862294438071548,0.03040850920192897
1761315237733023500,1.7080234375,0.05706161139309406,-0.13273502080831676,-0.0021304361574351785
1761315237743005200,1.718005126953125,0.06608253771662712,-0.1338239668224938,-0.052678720133751626
1761315237752986000,1.727986083984375,0.009797755914926529,-0.12710998400077222,-0.09517514201439917
1761315237762968300,1.73796826171875,-0.04624386478066444,-0.12867527882242574,-0.1032818030372262
1761315237772950300,1.7479501953125,-0.07083528520166874,-0.1027106886183843,-0.12345555314645171
1761315237782931200,1.75793115234375,-0.04779577039778232,-0.0605149667173624,-0.105670305608958
1761315237792913200,1.7679130859375,0.002160977426171303,-0.034040235034096984,-0.061595966887101526
1761315237802895400,1.777895263671875,0.05380640898942947,-0.04181286006327718,-0.041473362443223596
1761315237812876300,1.787876220703125,0.047346857586503026,-0.04911163876932114,-0.010553688848763704
1761315237822858200,1.797858154296875,-0.01357435184419155,-0.031090244388394056,0.017305866522714496
1761315237832840200,1.807840087890625,-0.1047211881905794,-0.01262430284405127,0.003556961829215288
1761315237842821400,1.8178212890625,-0.131150929954648,0.010238156626187263,0.022533903369307516
1761315237852803300,1.82780322265625,-0.17128595646619796,-0.004848846536967903,0.048541766459494824
1761315237862785300,1.837785400390625,-0.18065701140165327,-0.024115345608163623,0.043291663911566136
1761315237872766200,1.84776611328125,-0.11710486894547939,-0.028734858634974807,0.04174735707901418
1761315237882748400,1.85774853515625,-0.017922025659680367,-0.030479053687490522,0.023382409957423803
1761315237892729300,1.867729248046875,0.055385202613472934,-0.04931368241375312,0.005402516630664467
1761315237902711300,1.877711181640625,0.08157002970576285,-0.06703848673459142,0.003553381632640958
1761315237912693200,1.887693359375,0.07481061857342719,-0.07487318068193272,-0.017126637498289347
1761315237922674200,1.897674072265625,0.019106267008185386,-0.08994262992208824,-0.03736651164628565
1761315237932656400,1.907656494140625,-0.08553016550838947,-0.11914554446022957,-0.06512253357805312
1761315237942638300,1.917638427734375,-0.16750643792748451,-0.10094311269028111,-0.07375994047671557
1761315237952619300,1.927619384765625,-0.1593669706135988,-0.05435255336379632,-0.05616473561860621
1761315237962601200,1.937601318359375,-0.07702128036022186,-0.02707658830024302,-0.011553367410600184
1761315237972583200,1.947583251953125,-0.0018476736932992934,-0.03818661412382498,0.049700288844853634
1761315237982564000,1.957564208984375,0.030794951236248015,-0.03750672383457422,0.10186287615001201
1761315237992546300,1.96754638671875,0.06671031422615051,-0.03318633988481015,0.10898783265911043
1761315238002528300,1.9775283203125,0.08842296434044837,-0.05311164992460981,0.09281060484014451
1761315238012509400,1.987509521484375,0.08653378959298133,-0.0833174213623628,0.07442797593139111
1761315238022491100,1.9974912109375,0.029191607692837712,-0.11637279181126504,0.02560929222665727
1761315238032472300,2.007472412109375,-0.036254385685920716,-0.11256852242378518,-0.011838175701349972
1761315238042454300,2.017454345703125,-0.06493804385662079,-0.07929960055574774,-0.03787226921133697
1761315238052436200,2.027436279296875,-0.13085866900980472,-0.09190278754653408,-0.0514653988212347
1761315238062417200,2.037417236328125,-0.230979085406661,-0.14098938320614396,-0.032049481341987845
1761315238072399400,2.0473994140625,-0.2829588634908199,-0.13568281949693337,-0.004358925861865282
1761315238082381300,2.05738134765625,-0.21641046182811258,-0.07983807308031246,0.02641447112970054
1761315238092362500,2.067362548828125,-0.17247662755548954,-0.06311040830435231,0.053154959343373775
1761315238102344200,2.07734423828125,-0.12839958541989327,-0.09328638739204034,0.10482209128178656
1761315238112326400,2.087326416015625,-0.09130582630038261,-0.10735551874954252,0.12302782925367355
1761315238122307300,2.097307373046875,-0.13257891693115234,-0.11188154480662196,0.09183116534873843
1761315238132289500,2.10728955078125,-0.19597674560844897,-0.09709551561772822,0.04427870218753814
1761315238142271200,2.117271240234375,-0.17848492805957794,-0.08748195716328919,0.00913826909288764
1761315238152252200,2.127252197265625,-0.12125848149359225,-0.09482881279475987,-0.01415222479738295
1761315238162234400,2.137234375,-0.03517535827755928,-0.12417619557119905,-0.03306216551586985
1761315238172216000,2.147216064453125,0.026841829696297646,-0.161891118796356,-0.07505546017996967
1761315238182197200,2.157197265625,0.06540916849970817,-0.1844062626662664,-0.10284633422940968
1761315238192179200,2.16717919921875,0.07646890717446804,-0.16469801117694005,-0.12522891949452458
1761315238202160400,2.177160400390625,0.06225567290484905,-0.1624418845469132,-0.10780220307111739
1761315238212142300,2.187142333984375,-0.00942950712442398,-0.16087954886732622,-0.048381022939831014
1761315238222124300,2.197124267578125,-0.10935527773201464,-0.15199038656414485,0.013389058405160904
1761315238232105200,2.207105224609375,-0.18861995310485363,-0.11219168846802785,0.047255306845530864
1761315238242087400,2.21708740234375,-0.24569968467652797,-0.05497382706729695,0.06385521705597638
1761315238252069000,2.227069091796875,-0.22493922072052955,-0.02692497793510556,0.08407382922023535
1761315238262050300,2.23705029296875,-0.14196926108896732,-0.010242741469759493,0.10335932525284587
1761315238272032300,2.2470322265625,-0.0611859978467226,-0.03284642213964835,0.1062447444960475
1761315238282014500,2.257014404296875,-0.001717325311899185,-0.03192777292476967,0.08027743261195719
1761315238291995400,2.266995361328125,0.04797288053035736,-0.01603949984870851,0.04001227691471577
1761315238301977300,2.276977294921875,0.01807692396044731,-0.049878586287517096,0.004467135476693511
1761315238311959300,2.286959228515625,-0.059980713710188864,-0.08519649484092369,-0.0016216829176992178
1761315238321940200,2.296940185546875,-0.1618161173313856,-0.09371538992645219,0.00034464871920645234
1761315238331922200,2.306922119140625,-0.19100655598044394,-0.061126157418265936,-0.0050067953113466495
1761315238341904400,2.316904296875,-0.15984160238802433,-0.01691699506929144,0.004333572224900126
1761315238351885300,2.32688525390625,-0.10085165328085421,0.0004900485392659902,0.051956908665224906
1761315238361867300,2.3368671875,-0.05940437512695789,-0.010823244771454483,0.0816567581411451
1761315238371848400,2.346848388671875,-0.052283729466795915,-0.022727489712648093,0.07597359793819487
1761315238381830100,2.356830078125,-0.04851707040965557,-0.03889359334940091,0.015889789179712534
1761315238391812400,2.366812255859375,-0.07904021896719932,-0.0824233038005419,-0.02306055759191513
1761315238401793300,2.376793212890625,-0.13494330797493456,-0.11807767776669933,-0.04130523933470249
1761315238411775200,2.386775146484375,-0.1646305902302265,-0.11641995542123913,-0.06496573558114468
1761315238421757200,2.396757080078125,-0.1924672761827707,-0.09684605263499542,-0.08659472599998116
1761315238431738400,2.40673828125,-0.19233634327948093,-0.07594309320207684,-0.1094237398583442
1761315238441720300,2.41672021484375,-0.1464747558146715,-0.05085429945187643,-0.10284005061909555
1761315238451702300,2.426702392578125,-0.05656827491819858,-0.05293108745962381,-0.08015650964602827
1761315238461683200,2.43668310546875,0.01026128177344799,-0.0642806393938139,-0.0483424444951117
1761315238471665400,2.44666552734375,0.015734744748473167,-0.06898123656651005,-0.02076492093540728
1761315238481647400,2.4566474609375,0.004876666125655174,-0.05228878923440352,-0.010623758410289882
1761315238491628300,2.466628173828125,-0.01702127742767334,-0.02059749194663018,-0.013976795165240764
1761315238501610200,2.4766103515625,-0.07460194425880909,-0.0349999651780352,-0.0037541649017482992
1761315238511592400,2.486592529296875,-0.1159849250048399,-0.035981998485326766,0.03554842937365174
1761315238521573400,2.496573486328125,-0.10010697239339351,-0.0172343356564641,0.04833382279723882
1761315238531555000,2.50655517578125,-0.0471387677937746,0.0050950763829983765,0.03891103767454624
1761315238541536300,2.516536376953125,0.009167056795954703,0.012616101271286605,0.030036826345324515
1761315238551518200,2.526518310546875,0.04825578912496566,0.005875723632983863,-0.0026324673954397438
1761315238561500400,2.53650048828125,0.05145721551477909,0.002788534739986062,-0.03379734792262316
1761315238571481300,2.5464814453125,0.060734746947884555,-0.000054853726085275405,-0.055905427095293996
1761315238581463300,2.55646337890625,0.046882747206091875,-0.02002798496298492,-0.05502710989080369
1761315238591445200,2.5664453125,-0.016841244685649872,-0.0631616635675542,-0.03261741742305457
1761315238601426400,2.576426513671875,-0.06199672970771789,-0.060141274566762146,-0.013127777120471
1761315238611408100,2.586408203125,-0.030127427238225934,-0.02211814390895888,0.03478044067583978
1761315238621390300,2.596390380859375,-0.01922200234234333,0.0010116429942660034,0.07637136508412659
1761315238631371300,2.606371337890625,-0.023860183537006377,-0.00233850768385455,0.07732150541581213
1761315238641353500,2.616353515625,-0.023336451923847198,0.0019560111722908913,0.09028634705953299
1761315238651335200,2.626335205078125,-0.021458967614173888,0.002178220821917057,0.10353387810215353
1761315238661316400,2.63631640625,-0.05378127454817295,0.0026050679318606854,0.09054068714678287
1761315238671298300,2.64629833984375,-0.0832546217918396,-0.00022334216078743338,0.09099697954691946
1761315238681279200,2.656279296875,-0.13978139565587042,0.010427304256428032,0.060049541162699456
1761315238691261000,2.666260986328125,-0.24588380907177923,0.026876444351952522,0.023785364735126494
1761315238701243000,2.676242919921875,-0.2813087581962347,0.0138717273555696,-0.009178381907567382
1761315238711224000,2.68622412109375,-0.24128595988750456,-0.006233761556725948,-0.04001110787093639
1761315238721206000,2.6962060546875,-0.16757950316369533,-0.057474466510303315,-0.03070690762661397
1761315238731188000,2.70618798828125,-0.143808751475811,-0.10901764327548444,-0.0033712299987673756
1761315238741169000,2.7161689453125,-0.10196867461204528,-0.08795560255702585,0.024275559404864904
1761315238751151000,2.726151123046875,-0.022853052321076393,-0.036792456351686265,0.043200989953428505
1761315238761133000,2.736133056640625,0.04369125768840313,-0.0018402393055148422,0.031115415362268684
1761315238771114000,2.746114013671875,0.04207037848830223,-0.020147592754662037,0.03274506239071488
1761315238781096000,2.756095947265625,-0.003777180451154709,-0.05613262344729155,0.01282587156444788
1761315238791078100,2.766078125,-0.003971826240420341,-0.07728742048311978,-0.021796967396885154
1761315238801059000,2.77605908203125,0.0153150580316782,-0.09271087079271674,-0.06048252575248479
1761315238811041000,2.786041015625,0.024023265144228933,-0.11977978724315762,-0.09306662542782723
1761315238821023000,2.79602294921875,0.03890928410887718,-0.1236425270859152,-0.12884944807924328
1761315238831004200,2.806004150390625,0.04608779743611812,-0.12610590325845406,-0.12909085561968386
1761315238840986000,2.815986083984375,0.05215513465106487,-0.10559826328605412,-0.08943177605681121
1761315238850967000,2.825967041015625,0.052825581258535384,-0.0821118084322661,-0.04041201682202518
1761315238860949000,2.835948974609375,0.0176852942943573,-0.08876176784075795,-0.01073978600539267
1761315238870931200,2.84593115234375,-0.02292494851350784,-0.08583397076055407,0.024947759578004478
1761315238880912100,2.855912109375,-0.07570493706464768,-0.08987237769747153,0.04062770539931953
1761315238890893800,2.865893798828125,-0.12065993107855319,-0.09155742644127458,0.009294701763615012
1761315238900876000,2.8758759765625,-0.14178981286883352,-0.09439011085024103,-0.0033739334125071764
1761315238910857000,2.88585693359375,-0.1511369024068117,-0.09745145291592926,0.018200769535824654
1761315238920839200,2.895839111328125,-0.16933891405165194,-0.09717084587626158,0.03514795881398022
1761315238930820900,2.90582080078125,-0.168831549051404,-0.07076154411202296,0.07374035899341105
1761315238940802000,2.915802001953125,-0.12359072383344173,-0.02641843491876498,0.09568952127732336
1761315238950784000,2.925783935546875,-0.05202595531344414,-0.012562763648852705,0.12150566118769347
1761315238960766000,2.935765869140625,-0.027101357415318487,-0.022665347729250787,0.16188874417617916
1761315238970747000,2.945746826171875,-0.020824761363863943,-0.014737824399303644,0.17144786902964115
1761315238980729000,2.95572900390625,-0.040080081453919406,-0.009461747159902006,0.14802023169100284
1761315238990711000,2.9657109375,-0.06774667153656483,-0.019600991722568867,0.10273951285406946
1761315239000692200,2.975692138671875,-0.07679974656403064,-0.06156085904110223,0.06709924047850072
1761315239010674000,2.985673828125,-0.07384791102111339,-0.08946282878220081,0.06453669651411473
1761315239020655000,2.995655029296875,-0.024774375772476195,-0.11573095024377107,0.04244118456207215
1761315239030637000,3.005636962890625,0.03209142078757286,-0.12754019211158155,0.04158500612415373
1761315239040619000,3.015618896484375,0.043021980124711985,-0.11920001459382473,0.06781820240281522
1761315239050600000,3.025599853515625,0.017086743879318238,-0.09353031568313017,0.07405030172541738
1761315239060582000,3.035581787109375,-0.020730068817734718,-0.054307106786873185,0.06617986061125994
1761315239070564000,3.045564208984375,-0.07903788087964057,-0.024114340961165725,0.055932022841274735
1761315239080545000,3.055544921875,-0.12077099023759365,0.006449778927583247,0.04510243966057896
1761315239090527000,3.06552685546875,-0.12066694534122943,-0.009068692721705884,0.02683708045594394
1761315239100509000,3.075509033203125,-0.08440729895830154,-0.0548482461925596,0.008865662696585059
1761315239110490000,3.085489990234375,-0.05499240390360355,-0.08218492846740409,0.006447057247534394
1761315239120472000,3.09547216796875,-0.050236149287223815,-0.08557840683059767,-0.015965046373009682
1761315239130454000,3.1054541015625,-0.09950491484701633,-0.08409991350956261,-0.035808614679798484
1761315239140435000,3.11543505859375,-0.12425707878768444,-0.07092970375316217,-0.030187048470973966
1761315239150417200,3.125417236328125,-0.12134966690838336,-0.05000429502641782,-0.005523366531357169
1761315239160398800,3.13539892578125,-0.11617898627221583,-0.032081812709011136,0.017865984623506664
1761315239170380000,3.145380126953125,-0.07347030988037585,0.008297872745990753,0.035804157700389624
1761315239180362000,3.155362060546875,-0.03468903606534004,0.016412972803600132,0.02252805815041065
1761315239190344200,3.16534423828125,-0.020216858598589897,-0.002965352611616254,-0.004035100734978914
1761315239200325000,3.1753251953125,-0.008269815695285797,-0.02428125849328935,-0.017937296294048426
1761315239210307000,3.18530712890625,-0.05857786117494106,-0.051526846684888,-0.05907470478117466
1761315239220288000,3.1952880859375,-0.10338438662886619,-0.06345997066069393,-0.06375687124803663
1761315239230270200,3.205270263671875,-0.07419862415492534,-0.004866071666404605,-0.04914302028827369
1761315239240252000,3.215251953125,-0.015201660785079002,0.03597312105912715,-0.043699879386276
1761315239250232800,3.22523291015625,0.017986907589435577,0.0183715412591584,-0.01851641135625541
1761315239260215000,3.235215087890625,0.047507601106166836,-0.0018507059006020426,-0.01696728221811354
1761315239270197200,3.245197265625,0.0813069948554039,-0.016527173767797648,-0.008110387349873781
1761315239280178200,3.25517822265625,0.10999240659177302,-0.03625248598977923,-0.011874781384691595
1761315239290159900,3.265159912109375,0.09536474630236626,-0.06027445422606542,-0.026279811899363993
1761315239300142000,3.27514208984375,0.05320961214005947,-0.06580947466259822,-0.024347601727768776
1761315239310123000,3.285123046875,-0.01563479150533676,-0.05332532920790836,-0.04290149555020034
1761315239320105000,3.29510498046875,-0.11083178002536297,-0.02741995837781578,-0.0559209899906069
1761315239330087000,3.3050869140625,-0.2111637933462858,-0.01103412930946797,-0.05339366347007453
1761315239340068000,3.315068115234375,-0.26837621138691903,0.0022652232519350946,-0.0563260636601597
1761315239350050000,3.325050048828125,-0.2708686127245426,0.004273037676699459,-0.051451370295882225
1761315239360032000,3.335031982421875,-0.22773908057212827,0.012217530407756567,-0.0130319155305624
1761315239370013000,3.345012939453125,-0.15406243446469306,0.014829795265384018,0.030363793277367948
1761315239379995100,3.3549951171875,-0.08547580497264862,0.0013132928219623864,0.043198359604924914
1761315239389976000,3.36497607421875,-0.03246200766563415,-0.025633348955679685,0.018896788975968956
1761315239399958000,3.3749580078125,-0.014882511833310127,-0.05775331998430192,-0.02464183543398976
1761315239409940000,3.38493994140625,-0.016192425388097762,-0.08072201630799099,-0.07988214968405663
1761315239419921200,3.394921142578125,-0.019729367342591283,-0.12220807383600622,-0.12095007313154638
1761315239429903000,3.404903076171875,-0.04075403519272804,-0.16847358419289812,-0.15042502781040964
1761315239439885000,3.414885009765625,-0.03826689455211162,-0.18552668153094126,-0.15657799748219547
1761315239449866000,3.424865966796875,-0.019945640441775322,-0.16143376695029438,-0.15641754622347653
1761315239459848000,3.434847900390625,-0.0034907647252082822,-0.13736912861606104,-0.13856624771244824
1761315239469830100,3.444830078125,0.010527823755145072,-0.1382485965980217,-0.12827807793207466
1761315239479811000,3.45481103515625,0.008041852158308029,-0.150040448939614,-0.07442673382237554
1761315239489793000,3.46479296875,0.006691022071242332,-0.15652946389904246,-0.05099471256956458
1761315239499775000,3.47477490234375,0.013793547552824019,-0.15872098259394987,-0.03305865838453174
1761315239509756200,3.484756103515625,-0.042807460591197014,-0.14888669406091792,-0.015866262173652647
1761315239519737900,3.49473779296875,-0.09780454066991806,-0.14077020576382054,0.0022437603387981653
1761315239529720000,3.504719970703125,-0.13664075954258442,-0.11515377141032367,0.016386340525001288
1761315239539701000,3.514700927734375,-0.1517296076029539,-0.10461591945150867,0.0028094313975423574
1761315239549683200,3.52468310546875,-0.13673895922005175,-0.10528678618408739,0.013321838387846946
1761315239559664000,3.5346640625,-0.07267652915418148,-0.10086809295900165,0.05061491947174072
1761315239569646000,3.54464599609375,-0.013599486285448074,-0.11266115087699144,0.08930654224194585
1761315239579628000,3.5546279296875,-0.02119651728570461,-0.08935038138367235,0.13396584124490618
1761315239589609200,3.564609130859375,-0.03552957854270935,-0.036840661141276355,0.1724555117022246
1761315239599591000,3.5745908203125,-0.10073357985913753,-0.02613402848681435,0.19316921390704808
1761315239609573000,3.584572998046875,-0.1888081691533327,-0.03792520497497171,0.1977294344946742
1761315239619554000,3.594553955078125,-0.21299568494856355,-0.006404259285423904,0.19813750383891163
1761315239629536300,3.604536376953125,-0.2166021850079298,0.022495964245405047,0.1739129439689219
1761315239639518000,3.61451806640625,-0.19277005852162837,0.01686257973462343,0.17799604856409132
1761315239649499000,3.624498779296875,-0.11790391036868095,0.015341160587314516,0.20467012047804892
1761315239659481000,3.634481201171875,-0.027868250134587286,0.028325401051249352,0.20611608150266109
1761315239669463000,3.644463134765625,-0.007255085694789886,0.02003076144196093,0.16924181035272776
1761315239679444000,3.65444384765625,-0.026302900514006612,0.003239182850625366,0.11984196575917302
1761315239689426400,3.664426513671875,-0.04956394911408424,0.0009919153804890811,0.09006525165475904
1761315239699408400,3.674408447265625,-0.057062195914983745,-0.00471738391071558,0.057720732888951895
1761315239709389600,3.6843896484375,-0.0454962612837553,-0.018339136826898902,0.024109482122957705
1761315239719371300,3.694371337890625,-0.03350888637006283,-0.033468207299802454,0.003615633213892579
1761315239729352200,3.704352294921875,-0.006890344035625457,-0.038224936840217556,-0.006931845089793205
1761315239739334400,3.71433447265625,0.02390752981007099,-0.017683522462379187,-0.013422814544290304
1761315239749316000,3.724316162109375,0.021983283749222753,-0.002331877013668418,0.0097739366479218
1761315239759297300,3.73429736328125,-0.0023123685956001282,-0.011184351435117423,0.018182210965827107
1761315239769279200,3.744279296875,-0.01279752225279808,-0.005652363205887377,0.006504267327487468
1761315239779261400,3.754261474609375,-0.02558803024291992,-0.00710517409639433,-0.0130967243950814
1761315239789242400,3.764242431640625,-0.061496378970146176,-0.01570999389970675,-0.041570904533565045
1761315239799224300,3.774224365234375,-0.06620820992290974,-0.032882954757753755,-0.08142031903676689
1761315239809206300,3.784206298828125,-0.056411623051762574,-0.027544443274009973,-0.12276925138272345
1761315239819187500,3.7941875,-0.02410918986201286,-0.04303604518268257,-0.2054268571294844
1761315239829169200,3.804169189453125,0.021567104163765907,-0.0971328336871229,-0.2600239050399512
1761315239839151400,3.8141513671875,0.0246826058357954,-0.15357037663143128,-0.2626319686464965
1761315239849132300,3.82413232421875,-0.002049333745241165,-0.17192725004442036,-0.2526505997929722
1761315239859114500,3.834114501953125,-0.029409634357690808,-0.15908795274281873,-0.21526596796810626
1761315239869096200,3.84409619140625,-0.05359305849969387,-0.14183829165305942,-0.16744389408528804
1761315239879077400,3.854077392578125,-0.06593231559097766,-0.12403530752947553,-0.07525675490573049
1761315239889059300,3.864059326171875,-0.06310089155733585,-0.10540054875686763,-0.021585151277109978
1761315239899041500,3.87404150390625,-0.039745150411129,-0.10805696328347549,-0.002885857634618878
1761315239909022200,3.884022216796875,-0.012647884649038314,-0.12994190122475846,0.017802783194184303
1761315239919004400,3.89400439453125,-0.0033089784175157544,-0.15293918432211503,0.021901742945611476
1761315239928985300,3.9039853515625,-0.03400105380117893,-0.14948803922124207,-0.0003149842333048582
1761315239938967300,3.91396728515625,-0.08540390878021717,-0.12177804838828742,-0.018771701291576025
1761315239948949200,3.92394921875,-0.14960194792449474,-0.0948429691842757,-0.021272212870419024
1761315239958930200,3.93393017578125,-0.23930384615957737,-0.09480513965822755,-0.024243337635695934
1761315239968912400,3.943912353515625,-0.3008803046286106,-0.09895953765762969,-0.006666399086639285
1761315239978894300,3.953894287109375,-0.2765530881017446,-0.07535771279586478,0.06433174852654337
1761315239988875300,3.963875244140625,-0.18164426887333393,-0.05181623981921002,0.12906937444023786
1761315239998857200,3.973857177734375,-0.11029168179929255,-0.06222337807044386,0.1932697516720742
1761315240008839400,3.98383935546875,-0.0652642070710659,-0.0713144104881212,0.2143622971266508
1761315240018820400,3.9938203125,-0.05230301868915557,-0.0530856204342097,0.19864128864258526
1761315240028802300,4.00380224609375,-0.03875321676433086,-0.05137669762447476,0.15294314811117946
1761315240038784300,4.0137841796875,-0.048666708013415334,-0.07625119103686884,0.10116356877423822
1761315240048765400,4.023765380859375,-0.07766250087320804,-0.10171022460525855,0.0457359152585268
1761315240058747400,4.033747314453125,-0.13959844030439852,-0.12203388631287962,0.006523264288902282
1761315240068729300,4.043729248046875,-0.13343056532442568,-0.10387903827801347,-0.017358619623258707
1761315240078710300,4.053710205078125,-0.08800620023310184,-0.05635211141686886,-0.011649302065744995
1761315240088692500,4.0636923828125,-0.04963175365328788,-0.03744116605138406,0.004415405289456248
1761315240098674200,4.073674072265625,-0.03300093684792518,-0.05874607561500743,0.024117300103232264
1761315240108655000,4.083655029296875,-0.04460018922686577,-0.08109435675172134,0.019652210453152654
1761315240118637300,4.09363720703125,-0.08385375672876834,-0.09317110871560871,0.024631314039975403
1761315240128618200,4.1036181640625,-0.12574585604071617,-0.07938402743618934,0.02351253914311528
1761315240138600400,4.113600341796875,-0.1283060619175434,-0.08305066018495708,0.003633753392472863
1761315240148582100,4.12358203125,-0.07925532302260399,-0.07451037525152787,0.0024500235006213187
1761315240158563300,4.133563232421875,-0.00575520252585411,-0.07924279233459383,0.0011447130557149649
1761315240168545300,4.143545166015625,0.0020779753178358077,-0.10024104710184037,-0.01308065004311502
1761315240178527200,4.15352734375,-0.04763853400945663,-0.12852001519547773,-0.04061141185164451
1761315240188508200,4.163508056640625,-0.07976736419796943,-0.09943279945887624,-0.06497348049618304
1761315240198490400,4.173490478515625,-0.09996668713986873,-0.06156834822781384,-0.07778656564429402
1761315240208472300,4.183472412109375,-0.09959493121802807,-0.06094102837601676,-0.06000190262869
1761315240218453500,4.19345361328125,-0.08215572063922881,-0.05265057175150141,-0.007642039185762405
1761315240228435200,4.203435302734375,-0.05144084890186786,-0.04348289390103891,0.04358903942294418
1761315240238417400,4.21341748046875,-0.022873510587215422,-0.020414719258248806,0.03412877183407545
1761315240248398300,4.2233984375,-0.014740473014116287,-0.000760609108954668,0.03263137288317084
1761315240258380300,4.23338037109375,-0.01221066227555275,-0.010147427869122474,0.06546089868694543
1761315240268362200,4.2433623046875,-0.020062544819712636,-0.01004214086374268,0.056684813969954846
1761315240278343400,4.253343505859375,-0.031443186011910436,-0.022056476849596947,0.03553432778306305
1761315240288325400,4.263325439453125,-0.035329672056436535,-0.042185237039625643,0.007238280690461397
1761315240298306300,4.273306396484375,-0.048991702184081075,-0.043913613468501714,-0.014242606494575738
1761315240308288300,4.283288330078125,-0.054932782670855516,-0.0350003122379072,-0.007104132916778326
1761315240318270500,4.2932705078125,-0.0610205781519413,-0.010190298896469175,0.0033045214381068944
1761315240328251400,4.30325146484375,-0.0835422065615654,0.01470147444428876,-0.005335661939531565
1761315240338233300,4.3132333984375,-0.08036182295978068,0.030097854083869606,-0.006708046271279454
1761315240348215300,4.32321533203125,-0.0720960989177227,0.04135581874446943,-0.022070596706494687
1761315240358196200,4.3331962890625,-0.0778688371002674,-0.006760160051006823,-0.043144218264892696
1761315240368178400,4.343178466796875,-0.11079027897119521,-0.07955355705050751,-0.05409202099777758
1761315240378160000,4.35316015625,-0.1414911221832037,-0.12172770644053817,-0.050778585600852966
1761315240388141300,4.363141357421875,-0.1460135680437088,-0.11630149840703233,-0.03907251184657216
1761315240398123300,4.373123291015625,-0.1087473749667406,-0.08827878836309537,0.00721643418483436
1761315240408105500,4.38310546875,-0.06680559129416942,-0.06566045811334624,0.023057854178175328
1761315240418086400,4.39308642578125,-0.022442133432626722,-0.0673785323439166,0.02123370749093592
1761315240428068400,4.403068359375,0.007467851662635803,-0.09310951472148299,0.006138356624543666
1761315240438050300,4.41305029296875,0.015694997259974478,-0.1025790615953505,-0.022155498510971663
1761315240448031500,4.423031494140625,0.00864566327035427,-0.09829780407957732,-0.05643398101404309
1761315240458013200,4.43301318359375,-0.0010626607954502105,-0.09785035257302224,-0.08195135717354714
1761315240467994400,4.442994384765625,-0.023234160593152045,-0.10397617850955575,-0.08862805845849216
1761315240477976300,4.452976318359375,-0.08301672138273715,-0.10895908148866146,-0.06627813335396349
1761315240487958500,4.46295849609375,-0.13853987116217611,-0.08862129992414265,-0.06424655446112155
1761315240497939500,4.472939453125,-0.1508750366002321,-0.05931171014113351,-0.06474485937207937
1761315240507921200,4.482921142578125,-0.09931669879853725,-0.024063925948180256,-0.04653269165940582
1761315240517903400,4.4929033203125,-0.030780922710895536,-0.059917201753612606,-0.017712328431755305
1761315240527884300,4.50288427734375,0.0972229413896799,-0.06517462909147143,-0.006313274800032377
1761315240537866200,4.5128662109375,0.1410246737152338,-0.0752869491145946,0.01586027082428336
1761315240547848200,4.52284814453125,0.12491057426035404,-0.10458081160550936,0.0519386423561722
1761315240557829400,4.532829345703125,0.009002806144952774,-0.10965696409232914,0.0824384831033647
1761315240567811300,4.542811279296875,-0.12149521285891532,-0.051009800540842115,0.08897343783006072
1761315240577793300,4.552793212890625,-0.20031682063937187,0.039725623726751653,0.056356020407006144
1761315240587774200,4.562774169921875,-0.20550737501978872,0.0831061532318592,0.04980900991633534
1761315240597756400,4.57275634765625,-0.1559036784172058,0.0663591992335394,0.08368227261938155
1761315240607738400,4.58273828125,-0.06670505352914333,0.0323840470585972,0.11772745782323181
1761315240617719300,4.59271923828125,0.0006055646777153015,-0.00529573178794235,0.11725604091919958
1761315240627701200,4.602701171875,0.010554711762070654,-0.02391016015857458,0.09315276934131979
1761315240637683500,4.612683349609375,-0.01586275504231453,-0.015574932810571044,0.08527107618078589
1761315240647664400,4.622664306640625,-0.09147475312650204,0.0017338745879009365,0.059580316215753555
1761315240657646300,4.632646240234375,-0.1698643992304802,-0.00746938603259623,0.017561010327562687
1761315240667628300,4.642628173828125,-0.1720902585864067,-0.017556169755663723,0.01861833736076951
1761315240677609500,4.652609375,-0.10839490826725959,-0.023801055494602767,0.017032383343577383
1761315240687591400,4.66259130859375,-0.009136661657691001,-0.05190008217776194,0.0018566607173532246
1761315240697572600,4.672572509765625,0.06932371159493923,-0.08669120864439755,-0.020626973769441247
1761315240707554800,4.682554931640625,0.10306757576465606,-0.10230877502029762,-0.05096913973689079
1761315240717536800,4.692536865234375,0.06676935093700885,-0.0955699317519553,-0.07312653794400394
1761315240727518000,4.70251806640625,0.021772855868935584,-0.07929907083278522,-0.07196750410199165
1761315240737499600,4.712499755859375,-0.04234101212322712,-0.07577988373069092,-0.060347720391675824
1761315240747481900,4.72248193359375,-0.11269640485346316,-0.07727691735541448,-0.04494249985851347
1761315240757462800,4.732462890625,-0.13631518085002897,-0.10353617965709418,-0.02453150692731142
1761315240767444700,4.74244482421875,-0.1269943947970867,-0.12619427566165103,0.003988704309985041
1761315240777426700,4.7524267578125,-0.07366729375720024,-0.12170500141838565,0.03072173986956477
1761315240787408000,4.762407958984375,-0.05177168829143047,-0.11471271311193704,0.02351414657831192
1761315240797389800,4.772389892578125,-0.06406652171909809,-0.11424116834374144,0.022336334970593452
1761315240807371800,4.782371826171875,-0.07915946143269538,-0.12483718023058027,0.014953677373379468
1761315240817352700,4.792352783203125,-0.1210603285729885,-0.12457999059911816,-0.02871105763427913
1761315240827335000,4.8023349609375,-0.19327099378108978,-0.12754400977017358,-0.05698701178692281
1761315240837316900,4.81231689453125,-0.18454583553373813,-0.10236541884467006,-0.05330678890421986
1761315240847297800,4.8222978515625,-0.13240589845180512,-0.09160796931842341,-0.03859649183265865
1761315240857279700,4.83227978515625,-0.10231120443940162,-0.10501354046696797,-0.03574855505563319
1761315240867262000,4.842261962890625,-0.07700432922542094,-0.126497167598363,0.002125321590900421
1761315240877243000,4.852242919921875,-0.05202712435722351,-0.10828627852732316,0.046129883012175556
1761315240887224600,4.862224609375,-0.048342298364639276,-0.0798400275753811,0.05906498710475862
1761315240897205800,4.872205810546875,-0.07951251265406609,-0.06681003000726923,0.08222162548229098
1761315240907187700,4.882187744140625,-0.10447861160635948,-0.04699188840268179,0.07435418004281819
1761315240917170000,4.892169921875,-0.15046762484312057,-0.030973139081057158,0.062490066182613366
1761315240927150800,4.90215087890625,-0.18347206882238387,-0.009293514453526585,0.04472308495417237
1761315240937132800,4.9121328125,-0.1487450388342142,0.012462737340480088,0.014068199775740503
1761315240947114800,4.92211474609375,-0.08107961584031581,0.03165942257847637,-0.03944287952892482
1761315240957096000,4.932095947265625,-0.0009966098219156266,0.013557364176772535,-0.07900828945897519
1761315240967077600,4.94207763671875,0.07948737821280956,-0.028074221035465596,-0.0786525348238647
1761315240977059800,4.952059814453125,0.12218845582008361,-0.04988075997829437,-0.0524665386877954
1761315240987040800,4.962040771484375,0.11196166083812713,-0.03709328419547528,-0.03348908569104969
1761315240997023000,4.97202294921875,0.06796060654819011,-0.0200167146502994,-0.0108561058614403
1761315241007004700,4.982004638671875,-0.025871523359417913,-0.03380332100568339,0.00610489274635911
1761315241016985900,4.99198583984375,-0.1396685829311609,-0.0528841247790493,-0.011542115364223718
1761315241026967800,5.0019677734375,-0.20074878231585025,-0.04321969465389847,-0.010479892960190772
1761315241036949800,5.01194970703125,-0.2086889276653528,-0.01990600255113095,0.006969692882150411
1761315241046930700,5.0219306640625,-0.12903145358264445,0.004151146596390754,0.03701331429444253
1761315241056913000,5.031912841796875,0.00499883120059967,0.019301497319340704,0.06827632143385708
1761315241066894800,5.041894775390625,0.13604980791211127,0.015234960266482083,0.07101086096428334
1761315241076875800,5.051875732421875,0.20018764130175112,-0.012482209225930272,0.04840089668408036
1761315241086857700,5.061857666015625,0.184825821518898,-0.07664440987184644,0.011923515897244214
1761315241096838700,5.071838623046875,0.06653963383436202,-0.11337547315880656,-0.03460289215184748
1761315241106820900,5.08182080078125,-0.09397767585813999,-0.14102472851416095,-0.09772015032209455
1761315241116802800,5.091802734375,-0.19664719221591948,-0.1410817193984054,-0.14848426900617778
1761315241126783700,5.10178369140625,-0.2506248661190271,-0.12320461059268563,-0.12226919290609657
1761315241136765700,5.111765625,-0.2105857011973858,-0.08648061636732891,-0.07444185832627118
1761315241146748000,5.121747802734375,-0.1085819552719593,-0.07431302604852244,-0.04249408379308879
1761315241156728800,5.131728759765625,-0.01726619209945202,-0.08545993155008182,0.022038155741617084
1761315241166710800,5.141710693359375,0.03301964154839516,-0.1027866581977345,0.06413162284456193
1761315241176692700,5.151692626953125,0.06456336532533169,-0.10327911788979545,0.07028152377642691
1761315241186674000,5.161673828125,0.09130874890983104,-0.13301456840205936,0.04574585213065147
1761315241196655900,5.17165576171875,0.08284253385961056,-0.17225169622581452,0.0379237802028656
1761315241206637800,5.181637939453125,0.058708794078230854,-0.17686938262172042,0.01503098039329052
1761315241216618800,5.19161865234375,0.011294131952524185,-0.16969554546959698,-0.024030352472141383
1761315241226601000,5.20160107421875,-0.0978022025823593,-0.1480122127813287,-0.033704043615981935
1761315241236582700,5.211582763671875,-0.2399766308546066,-0.10986383004235103,-0.032002135068923236
1761315241246563600,5.2215634765625,-0.34501053825616834,-0.05623573676189408,0.0255595348007977
1761315241256545800,5.2315458984375,-0.37259178814291954,-0.013824253218341617,0.07260368311367929
1761315241266528000,5.241528076171875,-0.33627953478991984,-0.025841201286390423,0.14344444820806385
1761315241276509000,5.251509033203125,-0.25385493408143517,-0.03965436685513705,0.1796250380054116
1761315241286490600,5.26149072265625,-0.16127426553964613,-0.054266025857813656,0.18036723467484114
1761315241296471800,5.271471923828125,-0.09539221883118153,-0.08144085036814212,0.1507332169767469
1761315241306453800,5.281453857421875,-0.061789808958768844,-0.10371701611671597,0.10092113832049071
1761315241316435700,5.291435791015625,-0.08388356734514237,-0.10269269630396738,0.027115824332088232
1761315241326416600,5.301416748046875,-0.08073240983784198,-0.11170016035772859,-0.03736256612353027
1761315241336398800,5.31139892578125,-0.03688625384867191,-0.12412610935177654,-0.07187310381680727
1761315241346380800,5.321380859375,0.019019173246622084,-0.11341204230953007,-0.07167253974340855
1761315241356362000,5.331362060546875,0.029500819772481916,-0.10753641000809147,-0.043940556274354454
1761315241366343700,5.34134375,0.021392332118749618,-0.09716874525072053,-0.02878660708852112
1761315241376326000,5.351325927734375,-0.010488660788536072,-0.07500517303114757,-0.028296923875436183
1761315241386306800,5.361306884765625,-0.0026268413722515104,-0.07833389732874929,-0.016271920365095137
1761315241396288800,5.371288818359375,0.00012099603116512298,-0.07710431900117545,0.007793722616136074
1761315241406270700,5.381270751953125,-0.015433715975284576,-0.11150485698133707,0.015452128414809703
1761315241416252000,5.391251953125,-0.06542319702506065,-0.13143734568059443,0.017529519210755823
1761315241426233900,5.40123388671875,-0.09071429014801978,-0.09159200456431135,-0.013935001850128173
1761315241436215800,5.4112158203125,-0.07145429388284683,-0.06232002511164173,-0.05585793469175696
1761315241446196700,5.42119677734375,-0.03768646431565285,-0.06539223563121631,-0.0594665536429733
1761315241456179000,5.431178955078125,-0.017761282140016554,-0.08931162027586251,-0.04539813467152416
1761315241466161000,5.441160888671875,-0.04350128807425499,-0.10913206343539059,-0.029325536270812153
1761315241476141600,5.4511416015625,-0.10582710360586643,-0.09946913114758207,-0.00808108819015324
1761315241486123800,5.461123779296875,-0.15410568908452987,-0.060808195776585486,0.025125161971524358
1761315241496106000,5.47110595703125,-0.1690104127496481,-0.008648823341820388,0.06110781804397702
1761315241506087000,5.4810869140625,-0.12340484587252139,0.015194299462530762,0.11202062448374926
1761315241516068600,5.491068603515625,-0.06533727230727672,0.0005212839277461171,0.13682349569834767
1761315241526049800,5.5010498046875,-0.004232523003220558,-0.003957176660560072,0.11787629170939326
1761315241536031700,5.51103173828125,0.03561901039183139,-0.0030616525929421184,0.08282426755055784
1761315241546014000,5.521013916015625,0.024724691411852837,-0.029867077535297718,0.04873831194490194
1761315241555994600,5.53099462890625,-0.017159224593639374,-0.047441056942287826,0.02915229859575629
1761315241565976800,5.540976806640625,-0.054095162802934645,-0.02869308358617127,0.0003115501672029495
1761315241575958800,5.550958740234375,-0.11895020455121993,-0.01839523266199976,-0.029133301634341476
1761315241585940000,5.56093994140625,-0.17787760981619358,-0.004970573220495134,-0.04217325434088707
1761315241595921700,5.570921630859375,-0.20666531288325785,-0.029697748850379138,-0.050501814486086365
1761315241605904000,5.58090380859375,-0.20264730941355227,-0.05495274774665013,-0.028270181998983023
1761315241615884800,5.590884765625,-0.16578852809369563,-0.05935564061440527,0.038253815874829886
1761315241625867000,5.600866943359375,-0.09147007695138454,-0.04385664085056633,0.08228621515110135
1761315241635848700,5.6108486328125,-0.03512333582937717,-0.024855660847760735,0.10685885780639946
1761315241645829600,5.62082958984375,-0.003168693163990974,-0.031076818651240318,0.09225852391533552
1761315241655811800,5.630811767578125,-0.011230419066548347,-0.05568752829460427,0.05983078384548425
1761315241665793800,5.640793701171875,-0.04222469226717949,-0.06884106091083958,0.01206423954218626
1761315241675774700,5.650774658203125,-0.06214987444281578,-0.07857705843485892,-0.05726056803129613
1761315241685756700,5.660756591796875,-0.04184592208266258,-0.10673042738744988,-0.10335121501162647
1761315241695738000,5.670738037109375,-0.01832183863222599,-0.127988812661916,-0.11286043630875646
1761315241705719000,5.680718994140625,-0.001928337714076042,-0.13862773210871965,-0.07288103875033557
1761315241715701000,5.690700927734375,0.007741992428898811,-0.13125453645959495,-0.03755436236858368
1761315241725682000,5.700681884765625,-0.034522447326779365,-0.09783939278759061,0.008224880575016141
1761315241735664000,5.7106640625,-0.1339490362405777,-0.07582123865438625,-0.0006213467687368392
1761315241745646000,5.72064599609375,-0.1827338176757097,-0.027695834443438795,-0.00003689794428646564
1761315241755627300,5.730627197265625,-0.22193653177320957,-0.015372341176867484,-0.0013499533042311668
1761315241765609000,5.74060888671875,-0.2106751330465078,-0.034306758749485015,-0.018338059114664792
1761315241775591200,5.750591064453125,-0.1562690045982599,-0.05062518513742834,-0.016968597392365337
1761315241785572000,5.760572021484375,-0.10383563752770424,-0.04201093991864473,-0.0031485271587967873
1761315241795554000,5.770553955078125,-0.06214578278958797,-0.03890857172282412,-0.005544409319385886
1761315241805536000,5.780535888671875,-0.035436055040359495,-0.02227536203097552,-0.025044790211692453
1761315241815517000,5.790516845703125,-0.019054244560003278,-0.0020639102598652244,-0.03330218481682241
1761315241825499100,5.8004990234375,0.00964344213604927,0.003048646980896592,-0.022792115914076566
1761315241835480800,5.810480712890625,0.03802314892411232,-0.0117762529136613,-0.004697437101230025
1761315241845462000,5.8204619140625,0.08631108675301075,-0.04018237278461456,0.024813684869557616
1761315241855444000,5.83044384765625,0.07211655718386173,-0.08124699003016576,0.03242795926555991
1761315241865426200,5.84042626953125,0.02206979298889637,-0.09291740794917568,0.0434277844466269
1761315241875407000,5.850406982421875,-0.06312719504237174,-0.04812967852726578,0.03851845816038549
1761315241885389000,5.86038916015625,-0.17381167555153368,-0.024105372203420846,0.023483897570520638
1761315241895371000,5.87037109375,-0.23856267240345477,0.005846570603735744,-0.009639350482821465
1761315241905352200,5.880352294921875,-0.23113339918553827,0.02225194462276995,-0.0167347886364907
1761315241915334000,5.890333984375,-0.14230360760986804,0.030299112277012315,0.015328063643723725
1761315241925316000,5.900316162109375,-0.07590484355092048,-0.0013875088356435298,0.05715067791603505
1761315241935297000,5.910297119140625,-0.01478606572151184,-0.040750272333063185,0.06030585401132702
1761315241945279200,5.920279296875,0.036347909188270563,-0.03607108327457681,0.05215878791287541
1761315241955260200,5.93026025390625,0.07596037313044071,-0.023544450385030356,0.024494024461135265
1761315241965242000,5.9402421875,0.052148704910278315,-0.043417080389522016,-0.01964906864799559
1761315241975224000,5.95022412109375,-0.02798573903441429,-0.07342687259744853,-0.0485679238140583
1761315241985205000,5.960205078125,-0.07180734510421752,-0.11108500586776063,-0.06284026785977184
1761315241995187000,5.97018701171875,-0.06465922691524029,-0.1195708024012856,-0.08073153305500745
1761315242005169200,5.980169189453125,-0.062064534246921536,-0.11116572468746452,-0.05741363970115781
1761315242015150000,5.990150146484375,-0.07268997315764426,-0.08545748386466875,-0.014224997772648929
1761315242025132000,6.000132080078125,-0.09538052839338779,-0.037944749925658106,-0.05386164630800485
1761315242035114000,6.010114013671875,-0.09914718745052814,0.01246518502589315,-0.11370200169943272
1761315242045095000,6.020094970703125,-0.044023266121745105,0.0011335706071928142,-0.04582958489134908
1761315242055077000,6.0300771484375,0.02842939114868641,-0.04767585207885131,-0.014392609424516558
1761315242065059000,6.04005908203125,0.08771686189770699,-0.09413051006598397,0.0003686141166836023
1761315242075040000,6.0500400390625,0.11596855839192867,-0.11698089550593867,0.015667890057340265
1761315242085022000,6.06002197265625,0.06862462341487408,-0.10970858468171209,0.052122620620951056
1761315242095004200,6.070004150390625,-0.00997720413506031,-0.09775264608589931,0.05330788488276302
1761315242104985000,6.079985107421875,-0.09902326880991458,-0.06565622032964602,0.04847739598639309
1761315242114967000,6.089967041015625,-0.14998071810901165,-0.00839216343332082,0.04834032560326159
1761315242124949000,6.099948974609375,-0.18279636151790618,0.013688260547444224,0.0887944280013442
1761315242134930200,6.10993017578125,-0.2367272736698389,0.01886493253298104,0.12477993361800908
1761315242144912100,6.119912109375,-0.24435996050536632,0.018293598918430506,0.16076142064668236
1761315242154894000,6.12989404296875,-0.21893559639155863,0.019573373063281177,0.20207060550414024
1761315242164875000,6.139875,-0.1641086121827364,0.04056744484575465,0.19420703252218663
1761315242174857200,6.149857177734375,-0.08935118510127067,0.04153961434615776,0.17657587956786155
1761315242184839000,6.1598388671875,-0.030340777727961538,0.021660919927060603,0.1564268985737115
1761315242194819800,6.16981982421875,0.007034720942378044,-0.05095016104178503,0.10644223982952535
1761315242204802000,6.179802001953125,-0.007924363258481025,-0.10360243156002834,0.07648110906891524
1761315242214783000,6.189782958984375,-0.04064297603368759,-0.11044712808933109,0.05172302684411406
1761315242224765200,6.19976513671875,-0.03181552645564079,-0.07108936956059188,0.05062719443142414
1761315242234747000,6.209746826171875,-0.013871288964152335,-0.030623083534371105,0.06344568640701473
1761315242244728000,6.21972802734375,0.019528876334428787,-0.0064782378370873625,0.043692134471237654
1761315242254710000,6.2297099609375,0.008552139768004417,-0.016788254123087973,0.012944383377581834
1761315242264692000,6.23969189453125,-0.07559738503694534,-0.05639753972748294,-0.008626227917522192
1761315242274673000,6.2496728515625,-0.1557645622074604,-0.07390170530127362,-0.060540612615272396
1761315242284655000,6.259655029296875,-0.15774842950105666,-0.07285959410350769,-0.109311730851233
1761315242294637000,6.269636962890625,-0.12220131530165672,-0.08160632486185058,-0.11499532944560051
1761315242304618200,6.2796181640625,-0.05908288808763027,-0.10164994578538462,-0.07670936486683785
1761315242314600000,6.289599853515625,-0.012569558715820313,-0.10191075214603915,-0.05806128995493054
1761315242324582100,6.29958203125,0.027182605957984923,-0.09814557265993207,-0.0821191880211234
1761315242334563000,6.30956298828125,0.010516717839241027,-0.09572470218855887,-0.11174356110803782
1761315242344545000,6.319544921875,-0.04019464774429798,-0.09530123434578999,-0.1326982324618846
1761315242354527000,6.32952685546875,-0.08269464982151985,-0.0869622076055035,-0.1336201696123928
1761315242364508200,6.339508056640625,-0.07995908737778663,-0.08688647548817098,-0.11341587823443114
1761315242374490000,6.349489990234375,-0.06765840873122216,-0.0942406924421899,-0.06728482617847621
1761315242384472000,6.35947216796875,-0.07428045721948147,-0.08608208203641697,-0.03530424535423517
1761315242394453000,6.369452880859375,-0.07676409072875977,-0.06475768232103436,-0.024982977021858095
1761315242404435200,6.379435302734375,-0.07276829909086227,-0.038825076424144206,-0.008267623738199472
1761315242414417200,6.389417236328125,-0.09062135116755962,-0.009786302939150482,0.009515943298861384
1761315242424397800,6.399397705078125,-0.08776479269266128,0.005783003848232328,0.025401056303456425
1761315242434380000,6.409380126953125,-0.07481061857342719,0.005751987655460834,0.020455270464345813
1761315242444361000,6.41936083984375,-0.02853518961071968,0.002445420390740037,0.012668342915177344
1761315242454343200,6.42934326171875,0.015126257461309432,-0.02061356629859656,0.011603270966932177
1761315242464324900,6.439324951171875,0.03208148391544818,-0.04231642567124218,0.022748495968058703
1761315242474306000,6.44930615234375,0.017352701339125632,-0.06974493268169463,0.01270158759765327
1761315242484288000,6.4592880859375,0.02606909175813198,-0.0703395375739783,0.019634674796462057
1761315242494270200,6.469270263671875,0.038943186378479,-0.06447411613930017,0.050333691377565264
1761315242504251000,6.4792509765625,0.024509002834558487,-0.05348422783035785,0.07760309883616864
1761315242514233000,6.489233154296875,-0.008619359785318375,-0.03682113445689902,0.1312413116518408
1761315242524215000,6.499215087890625,-0.09527999062836169,0.008550988990534096,0.12897395124174654
1761315242534196200,6.5091962890625,-0.20961071868538855,0.05301432702997699,0.10049399894960225
1761315242544178000,6.519177978515625,-0.31227088269293307,0.05206568453563377,0.06966974855363368
1761315242554160000,6.52916015625,-0.3330851226627827,0.05523156468803063,0.003955971084162593
1761315242564141000,6.53914111328125,-0.28927637607455253,0.018830263078399002,-0.016503537163883447
1761315242574123300,6.549123291015625,-0.20915011543631554,-0.0222198689840734,-0.020185513612255453
1761315242584105000,6.55910498046875,-0.11026654735803604,-0.04351392836011946,-0.015193988935276865
1761315242594086000,6.5690859375,-0.006972761622071266,-0.04488452259358018,0.023537819714844227
1761315242604068000,6.579068115234375,0.045455929273366925,-0.03531714136842638,0.022865473411232233
1761315242614050000,6.589050048828125,0.07035714629590512,-0.03908537132814526,-0.003500701597332954
1761315242624031000,6.599031005859375,0.07613572969734668,-0.028371450416371225,-0.021286387526243924
1761315242634013000,6.609012939453125,0.08589724525511264,-0.03436086355689913,-0.0703631376452744
1761315242643995100,6.6189951171875,0.1206289514183998,-0.06391856461577117,-0.12376176955141126
1761315242653976000,6.62897607421875,0.15279051483273506,-0.08483882224336266,-0.1541545697275549
1761315242663958000,6.6389580078125,0.1676589981406927,-0.10585512412395327,-0.1801642594486475
1761315242673940000,6.64893994140625,0.08851181166768074,-0.12643080609757454,-0.1890977266844362
1761315242683921200,6.658921142578125,0.010638298392295837,-0.11184612643336876,-0.18290968569926916
1761315242693903600,6.668903564453125,-0.061736032944917675,-0.061100566319283095,-0.11735723627135157
1761315242703884500,6.678884521484375,-0.07545300813019275,-0.015591061961464583,-0.05205196653753519
1761315242713866800,6.68886669921875,-0.06482230852246285,0.005204418508987873,-0.026761457936465737
1761315242723848700,6.6988486328125,-0.05262099859714508,-0.004972144123073667,0.0017656214330345392
1761315242733829600,6.70882958984375,-0.04281622841954231,-0.019538922804407773,0.020078107715025544
1761315242743811600,6.7188115234375,-0.04554068494737148,-0.051404809474106875,0.010185586188733577
1761315242753793800,6.728793701171875,-0.04120937774479389,-0.0829136993996799,-0.013263751525059342
1761315242763774700,6.738774658203125,-0.06627426089644432,-0.09625977717963978,0.011262421640008687
1761315242773756700,6.748756591796875,-0.1771925501614809,-0.09587907076636329,0.03172828656360507
1761315242783738600,6.758738525390625,-0.2304834108442068,-0.062420818604994564,0.06027136721983552
1761315242793719800,6.7687197265625,-0.19285306062996385,-0.019080200985167176,0.0905862067889422
1761315242803701800,6.77870166015625,-0.1044429557710886,0.0020186280797235665,0.14540128136426209
1761315242813683700,6.78868359375,-0.027360300612449644,-0.003001044979505241,0.1831427638027817
1761315242823664600,6.79866455078125,0.018617022186517715,-0.0285549172244966,0.22174816959425805
1761315242833646800,6.808646728515625,0.0007557868033647537,-0.020578896844014524,0.2120225290674716
1761315242843628500,6.818628662109375,-0.05103109905719757,-0.029445016198325902,0.18837386938929557
1761315242853609500,6.828609375,-0.08632803788781165,-0.032286431903019545,0.14876352433897555
1761315242863591700,6.838591796875,-0.10275953272879124,-0.008883417548984288,0.09950491484701633
1761315242873574000,6.848573974609375,-0.10995265910327434,-0.010543222253676503,0.050832069353759286
1761315242883554800,6.858554931640625,-0.13528583780229092,-0.06406370870750397,0.002960676436498761
1761315242893536500,6.86853662109375,-0.1430856978982687,-0.10911586121926084,-0.00537877042889595
1761315242903518700,6.878518798828125,-0.13307868314683435,-0.12244180952664464,-0.045492242695763706
1761315242913499600,6.888499755859375,-0.09605214404463767,-0.08834739661989734,-0.07836283116228877
1761315242923481600,6.898481689453125,-0.09166939891576767,-0.07468872749311849,-0.05635879688598215
1761315242933463600,6.908463623046875,-0.10269348175525665,-0.09147071627220138,-0.03793430159687996
1761315242943444700,6.91844482421875,-0.1088479127317667,-0.07018695909446104,-0.015001388972625136
1761315242953426700,6.9284267578125,-0.12266717924773693,-0.03422167428191751,-0.017159443789348004
1761315242963408000,6.938407958984375,-0.14512217216193676,-0.021567213761620223,-0.0497459546174854
1761315242973389600,6.9483896484375,-0.14157587785720824,-0.035689353947993364,-0.0832566676184535
1761315242983371800,6.958371826171875,-0.1150607958972454,-0.06371626524301245,-0.09334018167220055
1761315242993352700,6.968352783203125,-0.08329553832411765,-0.09546508313799276,-0.08756254811882973
1761315243003334700,6.978334716796875,-0.058597150397300714,-0.11648502001408487,-0.07096161499507725
1761315243013316600,6.988316650390625,-0.05649520968198776,-0.11029378242483362,-0.06096738665997982
1761315243023297500,6.998297607421875,-0.08448796297907829,-0.09241943183178082,-0.10579773138090967
1761315243033279700,7.00827978515625,-0.10646949316263198,-0.09737078889515251,-0.1543988998774439
1761315243043261700,7.01826171875,-0.11984686112999915,-0.14039954582052305,-0.172772760957852
1761315243053242600,7.02824267578125,-0.09262392316162586,-0.13526210986683143,-0.173385851354897
1761315243063224600,7.038224609375,-0.007498246800899505,-0.09386343836132437,-0.1405513571150601
1761315243073206800,7.048206787109375,0.042567806616425514,-0.05520548039870336,-0.08113996772542595
1761315243083187500,7.0581875,0.059876084291934965,-0.019410382787603885,-0.039054245537519454
1761315243093169700,7.068169677734375,0.04924363111853599,0.0006130538644269108,-0.032298852993175385
1761315243103151600,7.078151611328125,0.01820201164484024,0.00252672373233363,-0.01348024381995201
1761315243113132800,7.0881328125,-0.042048751178383824,-0.014338869943283497,0.013090806110948323
1761315243123114500,7.098114501953125,-0.06262099908590317,-0.02247870258335024,0.014037585441768169
1761315243133096700,7.1080966796875,-0.03774140937328339,-0.019286391081754117,0.012869345379993319
1761315243143077600,7.11807763671875,0.005123918884992599,-0.03451912285853177,0.04944777538850903
1761315243153059800,7.128059814453125,0.07665186252593993,-0.03318643121635541,0.10683766888789832
1761315243163041500,7.13804150390625,0.07995090407133101,-0.013780468875542282,0.1289776775687933
1761315243173022700,7.148022705078125,0.013887071055173873,0.004858619012311101,0.10592544941380619
1761315243183004700,7.158004638671875,-0.08176233740746974,-0.0038799832385033365,0.06675327658504247
1761315243192985900,7.16798583984375,-0.18025778295099734,-0.015880747356731444,0.04886690676063299
1761315243202967600,7.177967529296875,-0.21175299141108989,-0.0382677530686371,0.05994746902771294
1761315243212949800,7.18794970703125,-0.19933190125524997,-0.050974729227460915,0.07120726031921804
1761315243222930700,7.1979306640625,-0.15998305668532847,-0.025129198825825004,0.09467259931974112
1761315243232913000,7.207912841796875,-0.13414835820496082,0.0015986673682928084,0.09955006916299462
1761315243242894600,7.21789453125,-0.12840075446367263,-0.004955010325182229,0.09256861277781427
1761315243252875500,7.22787548828125,-0.10176058481931685,-0.020161018491815775,0.09532521800957619
1761315243262857700,7.237857666015625,-0.10241291124820709,-0.03504095477554947,0.08240954926982522
1761315243272839700,7.247839599609375,-0.13086626779437063,-0.06959237246848643,0.054931905888020986
1761315243282820600,7.257820556640625,-0.11543430538475513,-0.08602180321654304,0.030862609644979236
1761315243292802600,7.267802490234375,-0.02229191130697727,-0.056237636458035554,-0.013438085178658365
1761315243302784800,7.27778466796875,0.08300035476982592,-0.06948593468563631,-0.05609035520814359
1761315243312765700,7.287765625,0.13958967247605322,-0.1300147655315697,-0.05120718627646565
1761315243322747600,7.29774755859375,0.1255792673021555,-0.15686983830193058,-0.06121288585364818
1761315243332729600,7.3077294921875,0.01911912648975849,-0.17345064195310697,-0.07808123774193226
1761315243342710800,7.317710693359375,-0.14169512032270432,-0.17348810615297405,-0.11217734941542148
1761315243352692500,7.3276923828125,-0.2594488085657358,-0.12541921790223567,-0.122400345005095
1761315243362674700,7.3376748046875,-0.24706162067949772,-0.09108613740140571,-0.08089600290171801
1761315243372655600,7.347655517578125,-0.17015081495642662,-0.08706245310958474,-0.0005224895041435957
1761315243382637800,7.357637939453125,-0.10771218670010566,-0.08706579584414138,0.06507891363203525
1761315243392619500,7.36761962890625,-0.057931379964947696,-0.05288010619105771,0.08199921490326523
1761315243402600700,7.3776005859375,-0.06488894401788711,-0.03517457282627001,0.0779606070369482
1761315243412582700,7.387582763671875,-0.09913783510029316,-0.04760620264243334,0.050861076252534984
1761315243422564900,7.39756494140625,-0.11550853966474532,-0.07012209543101489,0.018844255071133374
1761315243432545500,7.407545654296875,-0.1276356153100729,-0.092957721693255,0.003615194822475314
1761315243442527700,7.41752783203125,-0.08708733182251453,-0.09628067383719607,0.008726108095422387
1761315243452508700,7.4275087890625,-0.04362403767108917,-0.06361189155308529,0.03740253280773759
1761315243462490600,7.43749072265625,-0.034112697482109065,-0.030364249935094265,0.044324075699225064
1761315243472472600,7.44747265625,-0.03352349941730499,-0.0028978768659755584,0.06334281055442989
1761315243482453500,7.45745361328125,-0.037922026637196536,0.005964187367726117,0.09303973742090164
1761315243492435700,7.467435791015625,-0.05788461821377277,-0.012259871712140739,0.09738463475741445
1761315243502417700,7.477417724609375,-0.05724047509133815,-0.041992984136845914,0.06471095710247754
1761315243512398600,7.487398681640625,-0.09405892440080642,-0.06461010881019756,0.035331133361160755
1761315243522380500,7.497380615234375,-0.1290297000169754,-0.05429826589329168,0.004063669242337346
1761315243532362800,7.50736279296875,-0.10611878002882003,-0.03124419284109026,-0.036565351331233974
1761315243542343700,7.51734375,-0.06963526176214217,-0.01784989200523123,-0.055976957961544394
1761315243552325600,7.52732568359375,-0.06271802971959113,-0.02990859685577452,-0.0106866675786674
1761315243562307600,7.5373076171875,-0.05227028546333313,-0.03039932124847546,0.005753595090657472
1761315243572288800,7.547288818359375,-0.051014147922396655,-0.019546485056355596,-0.017327055441215634
1761315243582270700,7.557270751953125,-0.06836334213018418,0.006235935247503221,-0.03164937610849738
1761315243592252700,7.567252685546875,-0.052688218614459034,0.018003018474020062,-0.05025558464005589
1761315243602233600,7.577233642578125,-0.018963059145212173,-0.016678455339372157,-0.05231660882309079
1761315243612215800,7.5872158203125,0.03520283080637455,-0.037797706137783826,-0.05464081398695707
1761315243622197500,7.597197509765625,0.04682195692956447,-0.040690468437224625,-0.06419460507817566
1761315243632178700,7.6071787109375,0.025682722789049147,-0.028119996405951676,-0.07000614090114832
1761315243642160600,7.61716064453125,-0.027182605957984923,-0.024039558691903946,-0.09508476031720638
1761315243652142800,7.627142822265625,-0.054985389640927314,-0.000497574258595705,-0.11972864157781005
1761315243662123800,7.637123779296875,-0.023591303467750548,0.0001493453428149223,-0.10757292435988783
1761315243672105500,7.64710546875,-0.018224807998538015,-0.017783311308734118,-0.08582885619401931
1761315243682087700,7.657087646484375,-0.011595745247602462,-0.03281379851168021,-0.07526493821218609
1761315243692068000,7.667068115234375,-0.004251812225580215,-0.03930655806446448,-0.06844619810804724
1761315243702050000,7.677050048828125,-0.013811667731404303,-0.04072800570232794,-0.08226984853819012
1761315243712032000,7.687031982421875,-0.04296235889196395,-0.043094314708560705,-0.0798184367980808
1761315243722013000,7.697012939453125,-0.07105857256352902,-0.03755940386988223,-0.059403133017942304
1761315243731995100,7.7069951171875,-0.10712065054774284,-0.004994958743080496,-0.07012224156148732
1761315243741976000,7.71697607421875,-0.12481003649532794,-0.017898991843964904,-0.06992357718423009
1761315243751958000,7.7269580078125,-0.13898703040778637,-0.026398323712497947,-0.05385623948052525
1761315243761940000,7.73693994140625,-0.12627777096033097,-0.02065777076650411,-0.04496946093067527
1761315243771921200,7.746921142578125,-0.04278934041261673,-0.014681326705403626,-0.01908281306736171
1761315243781903000,7.756903076171875,0.09382862277626991,-0.029515980808995663,0.01785933568701148
1761315243791885000,7.766885009765625,0.1787087999433279,-0.07601137266531587,0.04123977288305759
1761315243801866000,7.776865966796875,0.15820961727201938,-0.1095007140846923,0.05327339809127152
1761315243811848200,7.78684814453125,0.04172083439826965,-0.09597796456357463,0.03529080135077238
1761315243821830100,7.796830078125,-0.1763473315089941,-0.07155484991418197,0.009770356451347469
1761315243831811000,7.80681103515625,-0.3503033839672804,-0.015686686089355497,-0.03875657776519656
1761315243841793000,7.81679296875,-0.4097276328384876,0.03529054562244564,-0.02180989994369447
1761315243851775200,7.826775146484375,-0.3922247093737125,0.02421389234550297,0.03545519813224673
1761315243861756200,7.836756103515625,-0.2912783635467291,-0.01323996879067272,0.09175371619835496
1761315243871738000,7.846738037109375,-0.15838906549215315,-0.008804397496022284,0.1328635790914297
1761315243881720000,7.856719970703125,-0.04816577275395393,-0.008427782735973596,0.15550108896568415
1761315243891701000,7.866700927734375,0.024700726014375684,-0.02426328444518149,0.13865480277873574
1761315243901683200,7.87668310546875,0.0603407791942358,-0.05597345083020627,0.095186174865067
1761315243911665200,7.8866650390625,0.060281157961487766,-0.07411196878477931,0.04886515319496393
1761315243921646000,7.89664599609375,0.04543371744155884,-0.1008951088300906,0.00590958936996758
1761315243931628000,7.9066279296875,0.0461585245847702,-0.10503065599855035,-0.05196560342833399
1761315243941609200,7.916609130859375,0.05470072748064995,-0.09600127237392589,-0.09350611282363533
1761315243951591000,7.9265908203125,0.033870120897889135,-0.10208344183182343,-0.1029489908862859
1761315243961573000,7.936572998046875,0.02610825472474098,-0.11650569747593253,-0.05408062282092869
1761315243971554000,7.946553955078125,0.018745617002248763,-0.10303464160943403,-0.02298800381235778
1761315243981536300,7.956536376953125,0.004940379011631012,-0.08516904057841747,-0.00007394201904535293
1761315243991518000,7.96651806640625,-0.07189034721255302,-0.1079284963319078,0.04978804019354283
1761315244001499100,7.9764990234375,-0.11307459051609038,-0.10763062763018533,0.04567001041546464
1761315244011481000,7.986481201171875,-0.09198679430186749,-0.1015414256433025,0.035257556668296455
1761315244021463000,7.996463134765625,-0.028176293170452116,-0.12572349807843566,0.0284171892542392
1761315244031444000,8.00644384765625,-0.02428396190702915,-0.13905766622489318,0.03461282902397215
1761315244041426200,8.01642626953125,-0.05677987184226513,-0.1461920846820809,0.03807758252508938
1761315244051408100,8.026408203125,-0.0890408039778471,-0.15134621604224666,0.05102686127349734
1761315244061389000,8.03638916015625,-0.13516191916167736,-0.14344775441000238,0.06141936821117997
1761315244071371000,8.04637109375,-0.1952262195020914,-0.1240975043118,0.03698584176562726
1761315244081353200,8.056353271484374,-0.22739479717910288,-0.10309252754282205,0.04177409895546734
1761315244091334100,8.066334228515625,-0.22915128545761107,-0.0860957452355884,0.05584478294923901
1761315244101316000,8.076316162109375,-0.215747614005208,-0.09765053741829469,0.08308028813824057
1761315244111298000,8.086298095703125,-0.2183528280675411,-0.11795522043081,0.10007285092808306
1761315244121279000,8.096279052734374,-0.1794540653526783,-0.12082158791366963,0.0910769129153341
1761315244131261200,8.10626123046875,-0.11739303823709488,-0.09061892174845561,0.07465111716277897
1761315244141243000,8.116242919921875,-0.025905425629019735,-0.08636287173917516,0.06605689181871711
1761315244151224000,8.12622412109375,0.03688976098001003,-0.11941705487798898,0.054653015881404275
1761315244161206000,8.1362060546875,0.041187750434875485,-0.15278793928315862,0.0487731640625745
1761315244171188200,8.146188232421874,0.030317981374263763,-0.12704643551157788,0.041069896208867425
1761315244181169200,8.156169189453125,0.009749240598082541,-0.06955830580210313,0.013920754129067063
1761315244191151000,8.166151123046875,-0.047855391630530354,-0.05873529849266633,-0.002561886377260089
1761315244201133000,8.176133056640625,-0.11597031195759773,-0.06058176660956815,-0.01248158817142248
1761315244211114200,8.1861142578125,-0.15809797359108924,-0.05011528112022206,-0.004009089510887861
1761315244221096000,8.196095947265626,-0.13931085553467273,-0.04801366919847205,-0.007810966011881828
1761315244231077000,8.2060771484375,-0.11445406217575073,-0.047139681109227234,0.010126914804056286
1761315244241059000,8.21605908203125,-0.10951602125167846,-0.055226322257332504,0.03218706318177283
1761315244251041300,8.226041259765625,-0.09497545472383499,-0.038172567332163454,0.01508088394962251
1761315244261022200,8.236022216796876,-0.08820435315370559,-0.025581180377025156,-0.017754121746867895
1761315244271004200,8.246004150390625,-0.06580079816579819,-0.02848031761832535,-0.01888013010211289
1761315244280986000,8.255986083984375,-0.05777180548906326,-0.05412782296352088,0.00696954675167799
1761315244290967000,8.265967041015625,-0.05727379283905029,-0.0612595745395869,0.03712232762686908
1761315244300949000,8.275948974609374,-0.060572249862551684,-0.060775225088745354,0.03576660216897726
1761315244310931000,8.285930908203126,-0.07866144878268241,-0.025536263523064553,0.013561200101673603
1761315244320912100,8.295912109375,-0.07299100193083286,-0.004684248826093971,0.001455167244374752
1761315244330894000,8.30589404296875,-0.03073942165672779,-0.020575097451731562,-0.009539689500629901
1761315244340876000,8.3158759765625,0.014933365237712859,-0.051411549742147324,0.0161258629579097
1761315244350857000,8.32585693359375,0.02131634427309036,-0.06282123436573893,0.028174393474310635
1761315244360839200,8.335839111328125,-0.019850363373756407,-0.07442465146314352,0.007676452912017703
1761315244370821000,8.345821044921875,-0.08440963704586028,-0.06666899583507328,-0.008715586701408028
1761315244380802000,8.355802001953125,-0.11593290255665778,-0.021535978373140096,-0.038324177697300905
1761315244390784000,8.365783935546874,-0.11289455777406691,0.005793123383447528,-0.03898198401890695
1761315244400766200,8.37576611328125,-0.08163257354795932,0.0009462678741663694,-0.05111227453462779
1761315244410747100,8.3857470703125,-0.011532032361626624,-0.021012100629508493,-0.026215222230553625
1761315244420729000,8.39572900390625,0.04632277523577213,-0.05410056963041424,0.007736731731891632
1761315244430711000,8.4057109375,0.10370938079953193,-0.07324735131207853,0.00864639392271638
1761315244440692200,8.415692138671876,0.1192868891596794,-0.10891714204307645,0.002826382532343268
1761315244450674200,8.425674072265625,0.08439853112995624,-0.1391147484406829,-0.002023614782094955
1761315244460656000,8.43565625,-0.009786065477132797,-0.13304076228924094,-0.01007313879020512
1761315244470637000,8.445636962890624,-0.1280406889796257,-0.07938632899112999,-0.023260975534841417
1761315244480619300,8.455619384765624,-0.23757015423476693,-0.036972215099073946,-0.036399566310271615
1761315244490601000,8.46560107421875,-0.3301554989516735,-0.024757826496474445,-0.023204861433431506
1761315244500582000,8.475581787109375,-0.36718846779465675,-0.033174795577488835,-0.0004892448216676712
1761315244510564000,8.485564208984375,-0.36707273246049876,-0.04967920952420681,-0.0025867285575717686
1761315244520545000,8.495544921875,-0.31856793701052666,-0.0463779394891113,-0.01132649985216558
1761315244530527200,8.50552734375,-0.2124275296717882,-0.02242266154717654,-0.0022547201242297888
1761315244540509000,8.515509033203125,-0.09252513896226883,-0.001245396951213479,-0.0009654840312898159
1761315244550490000,8.525489990234375,-0.009045476242899895,-0.009333024480007588,-0.00719955611526966
1761315244560472000,8.53547216796875,0.04165419890284538,-0.005520078595727682,0.004593392204865813
1761315244570454000,8.5454541015625,0.08194587728083133,-0.005494067371636629,-0.014617504221573471
1761315244580435000,8.55543505859375,0.11676175459623336,-0.010610058678500353,-0.044888723844662304
1761315244590417200,8.565417236328125,0.14954057312607763,-0.06601535423193126,-0.07136471590325236
1761315244600399000,8.575399169921875,0.18268530235886574,-0.09397219596542418,-0.12170257199928164
1761315244610380300,8.58538037109375,0.1663420703232288,-0.09015095717683434,-0.17223456242792307
1761315244620362000,8.595362060546876,0.10821312195956706,-0.09539656621273607,-0.1719612984444946
1761315244630344200,8.60534423828125,0.022452070304751395,-0.07279372579306363,-0.14821210100129245
1761315244640325000,8.6153251953125,-0.09837912568747997,-0.0203154601348564,-0.086011738480255
1761315244650307000,8.62530712890625,-0.197992761605978,0.02895085773952305,-0.06985496892742812
1761315244660289000,8.6352890625,-0.20759061103463172,0.044882147973403334,-0.03991144688874483
1761315244670270000,8.64527001953125,-0.17437983082830905,0.007455942029133439,0.00668188891671598
1761315244680252200,8.655252197265625,-0.12205635387301444,-0.016341588067822158,0.029160554967448113
1761315244690234000,8.665234130859375,-0.06940671370327473,-0.017663484321348368,0.022906389943510293
1761315244700215000,8.675215087890624,-0.06880933233201503,-0.02283770862147212,0.01951923172324896
1761315244710197200,8.685197265625,-0.06682488051652907,-0.011934293019585311,-0.0042418753534555435
1761315244720179200,8.69517919921875,-0.06616027912795543,-0.011865757828019559,-0.018598390551283955
1761315244730160000,8.70516015625,-0.03514437861740589,-0.037759639149717986,-0.007689385458827018
1761315244740142000,8.71514208984375,-0.009824059399962424,-0.066596807381697,0.01638334485031664
1761315244750124300,8.725124267578124,0.010014029014110564,-0.06544226705171168,0.04909253221005201
1761315244760105200,8.735105224609375,0.03582417757511139,-0.06968940310217439,0.06373144454583525
1761315244770087200,8.745087158203125,0.06160919169485569,-0.0548658183818683,0.06822028039768338
1761315244780068000,8.755068115234375,0.04762509000599384,-0.05203337143491953,0.08071487418115139
1761315244790050300,8.76505029296875,0.0024070611417293547,-0.06696849023830145,0.08364698211029171
1761315244800032300,8.7750322265625,-0.040193478700518606,-0.07450743437577038,0.05763159330077469
1761315244810013200,8.78501318359375,-0.08107727775275707,-0.05934493655730039,0.04799962240681052
1761315244819995100,8.7949951171875,-0.10546996073126792,-0.057909825720265505,0.030323607397451994
1761315244829977300,8.804977294921875,-0.12875439020693302,-0.07954820502195507,0.05772263258509337
1761315244839958300,8.814958251953126,-0.11958324175775051,-0.0903316109733656,0.08011844265796243
1761315244849940200,8.824940185546875,-0.06466974830925465,-0.05984652940388768,0.06439407317303121
1761315244859922200,8.834922119140625,-0.016736030745506284,-0.023363084202446042,0.07450535201653838
1761315244869903400,8.8449033203125,0.0016863456517457961,-0.03162581256981939,0.08872033985182642
1761315244879885300,8.85488525390625,-0.03664484630823135,-0.07282068686522543,0.08401654607504606
1761315244889867300,8.8648671875,-0.08315291498303413,-0.07699994531124829,0.08186155999824404
1761315244899848200,8.87484814453125,-0.12008242345154285,-0.0589406666053459,0.07967610571794212
1761315244909830100,8.884830078125,-0.17810206622183322,-0.04944810418207198,0.08885200340747833
1761315244919812000,8.89481201171875,-0.23046470614373682,-0.02389565670918673,0.10373758398070931
1761315244929793000,8.90479296875,-0.22046236756742,0.027729353120550512,0.11598521726578473
1761315244939775200,8.914775146484375,-0.21449089194238186,0.05546016754582524,0.11174326884709299
1761315244949757200,8.924757080078125,-0.15955343309640885,0.03555000027623027,0.08071976955197752
1761315244959738400,8.93473828125,-0.08271101643443107,0.0006540434619411826,0.07117211594060063
1761315244969720000,8.944719970703124,-0.02990530892014503,-0.04816840310245752,0.04974705059602856
1761315244979702300,8.954702392578126,0.006378887382149696,-0.09119597271773963,0.01612367100082338
1761315244989683200,8.96468310546875,0.007111293309926986,-0.08773114615138619,-0.03331986660398543
1761315244999665200,8.9746650390625,-0.0041512744605541226,-0.08557203188873827,-0.0709220867022872
1761315245009647000,8.984647216796875,-0.011458967125415801,-0.09954356635697185,-0.08159143781997263
1761315245019628300,8.994628173828126,-0.004433014011383057,-0.09750358496196568,-0.10678455046117305
1761315245029610200,9.0046103515625,0.01658113244473934,-0.07747234859596937,-0.12059168814793228
1761315245039592200,9.01459228515625,0.05900047050118446,-0.06436269165407865,-0.14005743611827493
1761315245049573000,9.024572998046875,0.07913549603521823,-0.06828128986991941,-0.11974369301646948
1761315245059555300,9.034555419921874,0.06839139918088913,-0.08198704954143612,-0.1075983510620892
1761315245069536300,9.044536376953126,0.060493339407443995,-0.08546678141597658,-0.0943787309397012
1761315245079518200,9.054518310546875,0.03483165940642357,-0.09397935635857284,-0.0920746187157929
1761315245089500200,9.064500244140625,0.00580839401781559,-0.11309099366161972,-0.07243453709185123
1761315245099481000,9.074481201171874,-0.024594927552342414,-0.10813143502548336,-0.049597412992268795
1761315245109463300,9.08446337890625,-0.06052957976460457,-0.07867978815697133,-0.04200827303752303
1761315245119445200,9.0944453125,-0.12239070039391517,-0.03938165086098015,-0.04071465303041041
1761315245129426200,9.10442626953125,-0.1878711805641651,-0.02905157816763967,-0.053820948971435426
1761315245139408100,9.114408203125,-0.2200268987596035,-0.03157547062207013,-0.05210829983465373
1761315245149390300,9.124390380859374,-0.2105757643252611,-0.028458288449607787,-0.008294511745125055
1761315245159371300,9.134371337890625,-0.18558979162871836,-0.0343822716711089,0.025916677675396203
1761315245169353200,9.144353271484375,-0.16126491318941116,-0.0305079509884119,0.0013183160569518804
1761315245179335200,9.154335205078125,-0.1660901413887739,-0.03543455720301717,-0.006345204308256506
1761315245189316400,9.16431640625,-0.17447101624310016,-0.035487419901415705,0.011192205948010086
1761315245199298000,9.174298095703126,-0.14755904392004013,-0.003710398825258016,0.019164280805736778
1761315245209280300,9.1842802734375,-0.06553250261843205,0.026310243570245802,-0.0012076222240924835
1761315245219261200,9.19426123046875,0.024817630392313002,0.008305982987210154,-0.0017796499583870172
1761315245229243400,9.204243408203125,0.10488485431969165,-0.03302362360376865,0.013766001958772539
1761315245239225000,9.21422509765625,0.14019114550054074,-0.0517550294175744,0.0062977849699556825
1761315245249206300,9.224206298828125,0.09689327104389667,-0.07569105466976761,-0.011749474504590034
1761315245259188200,9.234188232421875,-0.01996668322980404,-0.07358173436559737,-0.029302812982350587
1761315245269170200,9.244170166015625,-0.1343582015633583,-0.052253845785185694,-0.08006788151450454
1761315245279151000,9.254151123046874,-0.16721709959208964,-0.02539557641074061,-0.05378587765805423
1761315245289133300,9.26413330078125,-0.13103168748915195,-0.019416173207573592,-0.0030579262658953664
1761315245299115300,9.274115234375,-0.049724692633748055,-0.06759330760575831,0.06972776235118508
1761315245309096200,9.28409619140625,0.03711597095131874,-0.0814980604480952,0.09612002164907753
1761315245319078100,9.294078125,0.06147182905077934,-0.07856080141980201,0.061122650286927815
1761315245329060400,9.304060302734374,0.0005085340440273285,-0.08755593571495264,0.03151573979146778
1761315245339041300,9.314041259765625,-0.061356093716621395,-0.08658946530297398,0.017141908132657407
1761315245349023000,9.32402294921875,-0.12014438277184962,-0.051295083755627274,-0.016455971695110202
1761315245359004200,9.334004150390625,-0.11220482194423675,-0.02258490290418267,0.0006795066967606545
1761315245368986000,9.343986083984374,-0.06115034201145172,-0.01641322853192687,0.06640146747268735
1761315245378968300,9.35396826171875,-0.012774141377210616,-0.021621245503798125,0.11757979298084974
1761315245388949200,9.36394921875,0.026608605462312696,-0.01235372400805354,0.15042378570139409
1761315245398931200,9.37393115234375,0.0030430209577083584,-0.001433868728019297,0.12750928551666438
1761315245408913200,9.3839130859375,-0.041436172237992286,0.003062054451741278,0.07897109925374388
1761315245418894300,9.393894287109376,-0.09829086288213729,-0.01566306775175035,0.042556554570049046
1761315245428876300,9.403876220703125,-0.1579389836370945,-0.04452624720782041,0.024850875074788926
1761315245438858200,9.413858154296875,-0.1725824260175228,-0.05172386709433049,0.012064531803131103
1761315245448839200,9.423839111328125,-0.12848258752822875,-0.02867689963635057,0.040329160844162104
1761315245458821400,9.4338212890625,-0.08303601060509681,-0.014006459651142358,0.050695875753462315
1761315245468803000,9.443802978515626,-0.025624855121970175,-0.0038612420054152607,0.07404518715888261
1761315245478784300,9.4537841796875,-0.03421381976902485,0.010109707940928638,0.0680253423474729
1761315245488766200,9.46376611328125,-0.08463233988583087,-0.010479746829718351,0.04617532958909869
1761315245498748400,9.47374853515625,-0.12061258480548857,-0.02946567539386451,-0.021096417912095784
1761315245508729300,9.483729248046876,-0.09407236840426922,-0.05616035170443356,-0.08414587154313921
1761315245518711000,9.4937109375,-0.027399463579058647,-0.06869929608628153,-0.09129040953554213
1761315245528693200,9.503693359375,0.045316813063621515,-0.11022292741201817,-0.07372808403372764
1761315245538674200,9.513674072265625,0.09386427861154079,-0.1293914825340733,-0.08102532836981118
1761315245548656000,9.52365625,0.09808160404562949,-0.1104505986880511,-0.05929886892586946
1761315245558638000,9.53363818359375,0.049104514908790586,-0.10007398343924433,-0.06138239720165729
1761315245568619300,9.543619384765625,-0.013787702333927154,-0.08158500807918607,-0.07538476519957184
1761315245578601200,9.553601318359375,-0.06896598419845104,-0.06985135219823568,-0.08322291147932409
1761315245588583200,9.563583251953125,-0.1062900449424982,-0.07621854914259166,-0.09307648923471569
1761315245598564000,9.573564208984376,-0.12379004579782485,-0.10474237710908055,-0.07831753071583807
1761315245608546300,9.58354638671875,-0.1281190149128437,-0.12731096819927915,-0.041506607125699514
1761315245618528000,9.593528076171875,-0.13734510841965675,-0.12163505972102284,-0.002406841946020722
1761315245628509200,9.60350927734375,-0.1589963837355375,-0.0903569098114036,0.013674158956855535
1761315245638491100,9.6134912109375,-0.15621581310629845,-0.08533113580495119,-0.0019780951399356126
1761315245648473300,9.623473388671876,-0.12222469617724419,-0.08529456665422767,-0.02146094037555158
1761315245658454300,9.633454345703125,-0.06856207957267761,-0.11020195768922567,-0.02464336980395019
1761315245668436200,9.643436279296875,-0.008854922106862067,-0.13149961552815512,-0.021476722466573117
1761315245678418200,9.653418212890625,0.00784837541282177,-0.14066579554127528,-0.02960515692979097
1761315245688399400,9.6633994140625,-0.0028740941315889357,-0.11951876168679446,-0.03924311917312443
1761315245698381000,9.673381103515625,0.007372574594616889,-0.121401872019656,-0.022995164205506444
1761315245708362000,9.683362060546875,0.036789223214983936,-0.1370725202896632,-0.012733370975404976
1761315245718344000,9.693343994140625,0.025831775870919227,-0.16298117905538528,-0.0031578064437955615
1761315245728326100,9.703326171875,-0.011761749464273451,-0.17420485785389317,-0.010806567631289362
1761315245738307000,9.71330712890625,-0.08321896595656872,-0.1285007259731181,-0.035464988873898984
1761315245748289000,9.7232890625,-0.17565116593837737,-0.0579715475785546,0.02407872165851295
1761315245758271000,9.73327099609375,-0.2748930459350347,-0.025074253768194464,0.03640745735578239
1761315245768252200,9.743252197265624,-0.2974585134863853,-0.013301033061835913,0.023828180963546036
1761315245778234000,9.753234130859376,-0.43134091423153875,0.0626266981743276,0.19012005546949803
1761315245788216000,9.763216064453125,-0.22258535107076166,0.06686068248227238,0.3909857421632856
1761315245798197000,9.773197021484375,-0.15374153194725512,0.07699293104857206,0.4791504208937287
1761315245808179200,9.78317919921875,-0.054012160694599146,0.1290618304545991,0.2387290419463068
1761315245818161000,9.793160888671874,0.042865328258275985,0.07443946543978527,0.11132190162986516
1761315245828141800,9.803141845703125,0.10895955641269683,-0.07286536625716834,0.005298983190953731
1761315245838124000,9.8131240234375,0.12880349004566669,-0.14550945444647223,-0.10189465952776372
1761315245848106200,9.823106201171875,0.10809972471296786,-0.13629603775814175,-0.20046331643797455
1761315245858087200,9.833087158203124,0.06764964090287685,-0.10205832565687596,-0.2339857198767364
1761315245868068900,9.84306884765625,-0.03242693635225296,-0.07115788648584857,-0.18058401923067866
