time,seconds_elapsed,z,y,x
1761316882446120000,0.069119873046875,-0.560512653067708,-0.07282967388927936,-0.17806429149471223
1761316882456103000,0.07910302734375,-0.29060090267658234,0.4044944083601236,-0.21884433791153132
1761316882466086000,0.0890859375,0.1000111108034849,0.0857592980891466,-0.11336378272101283
1761316882476068900,0.09906884765625,0.17054186010062694,-0.44019057564139363,-0.10150726764537393
1761316882486052000,0.109052001953125,0.11200316189229488,-0.22788111939132213,-0.0992320161897689
1761316882496034800,0.119034912109375,0.06386369262337684,-0.35084874289035795,0.07203180150985718
1761316882506017000,0.12901708984375,0.13251637308895586,-0.4249450757145881,0.22662644315510988
1761316882516000000,0.139,0.1284849256157875,-0.32064298971891403,0.2116079569172114
1761316882525983000,0.14898291015625,0.03787234227657318,-0.16938304545432328,0.13957783590778708
1761316882535966000,0.158966064453125,0.012270868030190467,-0.08255553361177444,0.1256551090173423
1761316882545949000,0.168948974609375,0.02732815190851688,-0.0707283176958561,0.09173881089016794
1761316882555932200,0.17893212890625,0.025590368330478667,-0.08406126199960708,0.006336436479911208
1761316882565915000,0.188914794921875,0.13084405596256254,-0.0653378568291664,-0.07309658119715749
1761316882575897000,0.19889697265625,0.261654794177413,-0.011041033974289894,-0.1639433386184275
1761316882585880000,0.208880126953125,0.27835867621898647,0.020100246481597424,-0.1959350253585726
1761316882595862800,0.21886279296875,0.20642507438659666,-0.017151625809073447,-0.17844664187580345
1761316882605846000,0.228845947265625,0.10684358717203139,-0.09738719204068183,-0.185224027056247
1761316882615829000,0.2388291015625,0.13804185851216316,-0.11151274802684784,-0.08317410390153526
1761316882625812000,0.24881201171875,0.2507616442412138,-0.07293079617619513,0.020296791967004537
1761316882635795000,0.258794921875,0.4244698594182729,-0.024917875896394253,0.04406060245744884
1761316882645778000,0.26877783203125,0.6707651719003915,0.02403290975540876,0.0955108767747879
1761316882655760100,0.278760009765625,0.9614537528604269,0.09117284757047892,0.09832008897662162
1761316882665742800,0.288742919921875,1.043099770411849,0.05048866274356842,0.07900982382893562
1761316882675725800,0.298725830078125,0.8936556433975696,0.03135726129412651,0.01228263153322041
1761316882685709000,0.308708984375,0.7880009737491607,0.06921528278440237,-0.02174516414441168
1761316882695692000,0.318692138671875,0.7098503970980644,0.09477788632512092,-0.07343063545711338
1761316882705675000,0.328675048828125,0.617123013561964,0.02859130371212959,-0.1482973681319505
1761316882715658000,0.338657958984375,0.4310685270309448,-0.05560410606116056,-0.18891400414798407
1761316882725641000,0.348640869140625,0.3058049015492201,-0.08652794437408447,-0.23223514988236127
1761316882735623000,0.358622802734375,0.2553518946409225,-0.03865443256497383,-0.25317422180827703
1761316882745606000,0.36860595703125,0.1759942802876234,-0.008809621660411358,-0.15330226374715566
1761316882755589000,0.378589111328125,0.10351356596648692,-0.026378303837776184,-0.012615187955833971
1761316882765571800,0.38857177734375,0.11657879924476146,-0.07133651272207499,0.09657141867838799
1761316882775554800,0.398554931640625,0.2530745973587036,-0.10465309139043093,0.18074403209798037
1761316882785538000,0.4085380859375,0.36543782473504544,-0.10405395645350217,0.21396164390388875
1761316882795521000,0.41852099609375,0.4092091619223356,-0.0835462982147932,0.218102908427082
1761316882805503000,0.4285029296875,0.3480523901700973,-0.06597820055931806,0.24778138632141053
1761316882815486000,0.43848583984375,0.16816227148771284,-0.12233370950967072,0.3028007147645578
1761316882825469000,0.448468994140625,0.050312137132883065,-0.18709698132127522,0.21336207057554274
1761316882835452000,0.458451904296875,0.07416238379776477,-0.1859714844226837,0.030565270666219294
1761316882845435000,0.468434814453125,0.1785030482381582,-0.13589023343622683,-0.07303182713156565
1761316882855417900,0.47841796875,0.19033669389486313,-0.04827946226149797,-0.10548002546755596
1761316882865401000,0.488401123046875,0.06272153685092925,0.0007014262676239013,-0.06680840430576354
1761316882875383800,0.4983837890625,-0.08457330317497253,-0.026464520816504952,-0.0302534282380715
1761316882885366000,0.508365966796875,-0.12940963924527168,-0.07727554738223552,-0.04903174650010187
1761316882895349000,0.518348876953125,-0.05633972685933113,-0.06841302649080754,-0.12389021823666989
1761316882905332000,0.52833203125,-0.012684125006198883,-0.04031272116601467,-0.15103966171056962
1761316882915315000,0.53831494140625,-0.0626496406584978,0.07374985747411847,-0.16461621464500203
1761316882925298000,0.5482978515625,-0.21995850969851016,-0.044614510013163085,-0.2301988034828566
1761316882935281200,0.55828125,-0.37042145836651325,-0.22094766686633227,-0.2217276382628828
1761316882945263900,0.568263916015625,-0.5330313564240932,-0.3401806338816881,-0.18357419575629755
1761316882955246800,0.578246826171875,-0.7654121253222227,-0.44872532588317987,-0.11932175954366102
1761316882965229000,0.58822900390625,-1.038244731596112,-0.5890820372089743,-0.004515486396756023
1761316882975211800,0.598211669921875,-1.2490443678051233,-0.6792845784425735,0.10876980599425733
1761316882985195000,0.608195068359375,-1.446651344963908,-0.6693735714115202,0.11930634277882053
1761316882995178000,0.618177978515625,-1.6203221507400274,-0.6563967470690608,0.10666958231199532
1761316883005161000,0.628160888671875,-1.5503186401873825,-0.6371225761480629,0.12568398805195466
1761316883015144000,0.63814404296875,-1.229585634097457,-0.5683323869079351,0.08455501859961077
1761316883025127000,0.648126953125,-0.7980886525213718,-0.4739281562007963,0.05308635108657181
1761316883035110000,0.65810986328125,-0.40494916639029976,-0.39291692942157386,0.07612029466619714
1761316883045091800,0.668091796875,-0.15276128873825073,-0.2936779720343649,0.027818574907118452
1761316883055074800,0.67807470703125,-0.012510522004961966,-0.189223471955955,-0.040717511707777154
1761316883065058000,0.68805810546875,0.04963584530651569,-0.10579802364185452,-0.09812942524272948
1761316883075041000,0.698041015625,0.08571078277230262,-0.07108136891722679,-0.14069841916924342
1761316883085024000,0.70802392578125,0.1228472119897604,-0.06088511520400643,-0.13966116680968552
1761316883095007000,0.718007080078125,0.09955752181708812,-0.08269085042923688,-0.10571173359788953
1761316883104990000,0.727989990234375,0.10164601852893829,-0.09838190216645598,-0.011127018057578243
1761316883114972000,0.737971923828125,0.11493103203773498,-0.09589388474300503,0.00953677488269168
1761316883124955000,0.747954833984375,0.12620061407089234,-0.16214505702480672,-0.033063905381807125
1761316883134938000,0.757938232421875,0.09773907421827316,-0.19496347691267726,-0.05655514600856695
1761316883144920800,0.7679208984375,0.035168344014883036,-0.21472806169912217,-0.020487028725922573
1761316883154903800,0.77790380859375,-0.02957914570569992,-0.2622314250215888,0.02398128231615992
1761316883164887000,0.787886962890625,-0.1021639049232006,-0.2646538298629224,-0.009383665538567584
1761316883174870000,0.7978701171875,-0.16125030014216898,-0.22090046672374009,-0.05842596768201328
1761316883184852700,0.807852783203125,-0.14103928676247596,-0.2074041485518217,-0.07289548740079627
1761316883194835000,0.8178349609375,-0.12236088977754116,-0.19760025515705346,-0.058353249505674464
1761316883204818000,0.82781787109375,-0.09283493556380272,-0.20803221732228994,-0.009894055896252392
1761316883214801000,0.83780078125,-0.031066753914952276,-0.1894331691838801,0.003794359914818778
1761316883224784000,0.847783935546875,0.014279869765043259,-0.18560455080643296,-0.01950192439542152
1761316883234766800,0.857766845703125,0.03871522284150123,-0.2145626420043409,-0.02578894137619063
1761316883244750000,0.86775,0.04295125297605991,-0.2229799033463001,-0.020727365403994915
1761316883254732800,0.87773291015625,-0.051153264132142065,-0.23842560202032326,-0.023974421033822
1761316883264716000,0.887716064453125,-0.16505670668780803,-0.24425576947852967,-0.04002430527922697
1761316883274698000,0.897697998046875,-0.2794593309372663,-0.24101503399163482,-0.06900431604799814
1761316883284681000,0.907680908203125,-0.3420499348849058,-0.22552403487116096,-0.08174934092857875
1761316883294664200,0.917664306640625,-0.3541857783585787,-0.21435528286397457,-0.05693950111707672
1761316883304647000,0.92764697265625,-0.30547406215965744,-0.21447350241616367,-0.03147120652999729
1761316883314630100,0.937630126953125,-0.20015724616348743,-0.18127850430086254,-0.028199135189922526
1761316883324613000,0.947613037109375,-0.09988894572854042,-0.16017507212609053,0.014525999146373942
1761316883334596000,0.95759619140625,-0.0696475367218256,-0.17111863707527517,0.059837514980370175
1761316883344579000,0.9675791015625,-0.10145897152423858,-0.1782026039868593,0.056891689053131266
1761316883354561000,0.97756103515625,-0.18218027544617652,-0.18812471693381666,0.01106237815641798
1761316883364544300,0.987544189453125,-0.2029465846210718,-0.17009645442068574,-0.024753597845928742
1761316883374527000,0.99752685546875,-0.17482932816147803,-0.18708119923025368,-0.031757795785879714
1761316883384510000,1.007510009765625,-0.11762450890541076,-0.210746590847522,-0.029585347117623312
1761316883394493200,1.0174931640625,-0.07270049455165863,-0.2026563695028424,-0.02019440930476412
1761316883404476200,1.02747607421875,-0.03837152397036552,-0.19749094956368207,0.009014167789183557
1761316883414459000,1.037458984375,-0.022556699723005294,-0.19881591455712913,0.007500566622149199
1761316883424441000,1.047441162109375,-0.006527940464019775,-0.21672902625799179,-0.011236328217526898
1761316883434424000,1.057424072265625,-0.00774549956023693,-0.19905615305379032,-0.006541841125208884
1761316883444407000,1.067406982421875,-0.033954292050004005,-0.18632775051444767,0.01028414205922745
1761316883454390000,1.07739013671875,-0.06871873143911361,-0.18712752259001134,-0.009772356612188742
1761316883464373000,1.087373046875,-0.11850304530560969,-0.19810455141738056,-0.02650235034255311
1761316883474356200,1.097356201171875,-0.1988029089450836,-0.22939503108561038,-0.038741489793919025
1761316883484339000,1.1073388671875,-0.21208207723498343,-0.23785043248087168,-0.04945228716684505
1761316883494322200,1.117322265625,-0.17090251010656357,-0.21750337163135408,-0.05342846992197446
1761316883504305200,1.12730517578125,-0.11237141068279742,-0.18163024034798145,-0.048763775179721414
1761316883514287000,1.137287109375,-0.049156537356972695,-0.1666106581315398,-0.0273395592185203
1761316883524270000,1.14727001953125,-0.026838322564959525,-0.1746096940614283,-0.007201264015166089
1761316883534253000,1.157253173828125,-0.037326983353495595,-0.15090587012991308,-0.014253246619598939
1761316883544236300,1.167236328125,-0.04622925173342227,-0.12178820445612072,-0.012411482077278196
1761316883554219000,1.177218994140625,-0.042539165043830866,-0.13605536087006329,-0.002059836872946471
1761316883564202000,1.187201904296875,-0.05661152953803539,-0.17399799190387127,-0.025929473224887624
1761316883574185200,1.197185302734375,-0.05251636917889118,-0.19880495477169752,-0.04311934868511744
1761316883584167000,1.2071669921875,-0.02821662518084049,-0.2107275938861072,-0.022745865619555116
1761316883594150100,1.217150146484375,-0.013818681994080543,-0.2104217428073287,0.006271234889747575
1761316883604133000,1.227133056640625,-0.019960838010907173,-0.21748890471458435,0.007821724867913871
1761316883614115800,1.23711572265625,-0.05160393050909042,-0.2022235310435295,-0.00669272997113876
1761316883624099000,1.24709912109375,-0.06352876158058643,-0.18606690762117503,-0.006336089420039206
1761316883634082000,1.25708203125,-0.06307400355041026,-0.19844138215631246,-0.004993579636747017
1761316883644065000,1.26706494140625,-0.08015022603571414,-0.18218509775176644,-0.0006146156338509172
1761316883654048000,1.277048095703125,-0.0999070659071207,-0.18276669703200457,-0.01848050892581232
1761316883664030000,1.287030029296875,-0.10447861160635948,-0.1885328593432903,-0.013416667931294068
1761316883674013200,1.29701318359375,-0.10670271739661694,-0.19661270542442796,-0.01916176918824203
1761316883683996000,1.306995849609375,-0.09103577718734741,-0.21054697662219404,-0.016815543988812715
1761316883693979100,1.316979248046875,-0.03847030816972256,-0.19504779419526458,-0.010547350439522415
1761316883703962000,1.326962158203125,-0.0028758476972579957,-0.1767600039631128,0.0065198119564913205
1761316883713945000,1.336945068359375,0.01635726056098938,-0.17275266801789402,0.001268796093109995
1761316883723928000,1.346927978515625,0.007491232538223266,-0.1728260255150497,-0.022779612625529987
1761316883733911000,1.3569111328125,-0.02823065370619297,-0.16223361209109424,-0.03291288410513662
1761316883743893200,1.366893310546875,-0.06120820967853069,-0.1532011414602399,-0.03939872985994443
1761316883753876000,1.3768759765625,-0.08041501445174216,-0.15558160685598849,-0.03492816031714901
1761316883763859000,1.38685888671875,-0.06865911020636559,-0.17884090189039706,-0.020651140096317976
1761316883773842200,1.39684228515625,-0.06609481267631054,-0.19481062443852423,-0.0022591953699477017
1761316883783825200,1.4068251953125,-0.07005962465405463,-0.18345862481892108,0.0063844768727198235
1761316883793808000,1.416807861328125,-0.06717734721601008,-0.16914602182805538,0.02167284782687202
1761316883803791000,1.426791015625,-0.07848550769388675,-0.16730477787554263,0.03789064511824399
1761316883813773000,1.43677294921875,-0.12544716535508632,-0.18544877572283147,0.021060871674679217
1761316883823756000,1.446756103515625,-0.1149298629939556,-0.18655586018189788,0.014353199862735345
1761316883833739000,1.456739013671875,-0.10403905114531517,-0.21065862030312418,0.015127508703479543
1761316883843722000,1.466721923828125,-0.10419804109930991,-0.20160612979754805,0.0001546608387492597
1761316883853705200,1.476705322265625,-0.09896306305527687,-0.19982143833786248,-0.02639373886892572
1761316883863688000,1.48668798828125,-0.05924421612918376,-0.2176458488419652,-0.03465032062330283
1761316883873671200,1.496671142578125,-0.009135492613911628,-0.2169013140849769,-0.0341024500827305
1761316883883654100,1.506654052734375,0.026035189488530158,-0.20058686975240705,-0.0541682737049181
1761316883893636000,1.516635986328125,0.03925941272079944,-0.17468714321181178,-0.0684674966244027
1761316883903619000,1.526619140625,0.04309621440470218,-0.1729753708578646,-0.036335122771933674
1761316883913602000,1.53660205078125,0.007943652480840682,-0.16153949234709142,-0.015912914326973258
1761316883923585300,1.546585205078125,-0.030692659905552862,-0.1387036834217608,-0.028438131577568127
1761316883933568000,1.556568115234375,-0.07065466793775559,-0.127078712079674,-0.03237637520879507
1761316883943551000,1.566551025390625,-0.09447101233303547,-0.13091317567601798,-0.015709381978353483
1761316883953534200,1.5765341796875,-0.0867225901633501,-0.1698394109196961,-0.00016720979306846857
1761316883963516000,1.586515869140625,-0.07771686140894889,-0.19583967522531748,0.008844492044392973
1761316883973499100,1.5964990234375,-0.054988312250375745,-0.1926055156096816,-0.0031526188120245932
1761316883983482000,1.606482177734375,-0.014638181683421134,-0.1707278841920197,-0.01299637842630036
1761316883993465000,1.616465087890625,-0.008360416588187217,-0.17270035330876707,-0.011569460028875619
1761316884003448000,1.626447998046875,-0.05596913998126983,-0.18178893804103136,-0.008909465305693446
1761316884013431000,1.63643115234375,-0.08995908786654472,-0.19165493688657878,0.022848704939521847
1761316884023414000,1.6464140625,-0.09349895243048667,-0.21042466541677712,0.025295869762776417
1761316884033397000,1.65639697265625,-0.11160919413864612,-0.21954744467958806,0.027368657448841257
1761316884043379000,1.66637890625,-0.0996452001005411,-0.19395137726068495,-0.004776749415136873
1761316884053362200,1.676362060546875,-0.05518237351775169,-0.15729995508119463,-0.041567771861562505
1761316884063345000,1.686344970703125,0.014784896677732466,-0.1354538878455758,-0.04511002931199036
1761316884073328000,1.696328125,0.07069090829491614,-0.14339651741310952,-0.05456315477401949
1761316884083311000,1.70631103515625,0.05513794985413551,-0.16691665534079073,-0.05857766024554148
1761316884093294000,1.716294189453125,-0.00640226825773716,-0.18079247434958814,-0.021963099477719513
1761316884103277000,1.726277099609375,-0.08872048598229884,-0.17999927814528344,0.007184303747210651
1761316884113260000,1.736260009765625,-0.13680968636870383,-0.1617068117380142,-0.006077201021835207
1761316884123242200,1.7462421875,-0.13885726654827593,-0.17735300142019986,-0.0253845161606092
1761316884133225000,1.756224853515625,-0.10852701021432876,-0.18936200364381073,-0.026401054525701326
1761316884143208000,1.7662080078125,-0.06093874508738517,-0.1930962217360735,-0.021509291295614092
1761316884153191200,1.776191162109375,-0.044108021795749665,-0.20304025425389408,-0.012215904706250875
1761316884163174100,1.786174072265625,-0.05728840588629246,-0.2057170722477138,-0.00554720406467095
1761316884173156900,1.796156982421875,-0.07917816613316535,-0.1851546150818467,0.000981896309973672
1761316884183140000,1.80614013671875,-0.08615268132090569,-0.1585755279749632,-0.010835839391546323
1761316884193122000,1.8161220703125,-0.06797697316110134,-0.15272840938195587,-0.02141961285131983
1761316884203105000,1.82610498046875,-0.040376434051990505,-0.1660211678057909,-0.02288000426008366
1761316884213088000,1.836087890625,0.005081833308935165,-0.17453925917372107,-0.010931317388964816
1761316884223071000,1.846071044921875,0.024602526336908338,-0.1915983843937516,-0.004393887577392161
1761316884233054200,1.85605419921875,0.014112111982703209,-0.18123481128960847,-0.004682056869007647
1761316884243037000,1.866036865234375,-0.015230886879563331,-0.17195201915949582,0.002514357441104948
1761316884253020200,1.876020263671875,-0.06806991214156151,-0.17660758988037703,-0.002984376972494647
1761316884263003100,1.886003173828125,-0.10226911886334418,-0.1823604543186724,-0.017523737923940644
1761316884272985000,1.895985107421875,-0.11627777047157287,-0.1910812286518514,-0.03484216253412887
1761316884282968300,1.90596826171875,-0.09715689041614532,-0.18423735410645603,-0.02984728598943911
1761316884292951300,1.915951416015625,-0.054469841334223744,-0.17461802349835634,-0.023701449311338364
1761316884302934300,1.925934326171875,-0.034162381842732424,-0.1759180001810193,-0.014124633537558839
1761316884312917200,1.935917236328125,-0.0345949280411005,-0.17581994663402437,-0.008104423399968072
1761316884322900200,1.945900146484375,-0.033597733697295185,-0.1746311752408743,-0.012611945685977115
1761316884332883200,1.95588330078125,-0.054312604945898055,-0.16090470157489178,0.005928933391254395
1761316884342866200,1.9658662109375,-0.05457680884003639,-0.141590344773978,-0.0024027868254110217
1761316884352848400,1.975848388671875,-0.07721884875893592,-0.15001739685758947,-0.01773617509822361
1761316884362831400,1.985831298828125,-0.08197101172208786,-0.14785305843055246,-0.028825989250838756
1761316884372814000,1.99581396484375,-0.0774772074341774,-0.15923954484164715,-0.021015306366747245
1761316884382797300,2.00579736328125,-0.045808395972847936,-0.16522680255770683,-0.04210722163366153
1761316884392780300,2.0157802734375,0.002590601015090942,-0.17003230314329265,-0.04225390922850929
1761316884402763000,2.025762939453125,0.02078969005048275,-0.18736527686864138,-0.045851787590002635
1761316884412746200,2.035746337890625,0.020042086553573608,-0.2066846021056175,-0.03685974030108191
1761316884422728200,2.045728271484375,-0.004557517173886299,-0.20821809528321025,-0.021653978729620573
1761316884432711200,2.055711181640625,-0.06744038206636906,-0.19643954081460832,-0.007903329603606835
1761316884442694100,2.065694091796875,-0.10019114354550838,-0.18041165833845735,0.005430016558943316
1761316884452677400,2.075677490234375,-0.10838906304836272,-0.15626242872700094,0.025315414713462814
1761316884462660400,2.085660400390625,-0.11370412059128283,-0.13946955322772264,0.006849527968047186
1761316884472643000,2.09564306640625,-0.0837771843612194,-0.13599164798408747,-0.005507648372417315
1761316884482626300,2.105626220703125,-0.055849897515773766,-0.1285882398597896,0.00680664780754596
1761316884492609300,2.115609375,-0.053696518874168396,-0.12231339737400412,0.017533766127610578
1761316884502591200,2.12559130859375,-0.05385843143761158,-0.12992241107299923,-0.0005802384402137249
1761316884512574200,2.13557421875,-0.0491693968385458,-0.15247823401316998,0.0019292601626832036
1761316884522557200,2.14555712890625,-0.044544075125455856,-0.17712313818708061,-0.025874546433566136
1761316884532540400,2.15554052734375,-0.050127428215742106,-0.19209683543518186,-0.02861949776015244
1761316884542523100,2.165523193359375,-0.04047288016378879,-0.20751666901558635,-0.03383058347194455
1761316884552506000,2.175506103515625,-0.04879588735103607,-0.23658304289355872,-0.045144050312601026
1761316884562489300,2.1854892578125,-0.0664233139783144,-0.24498335310071706,-0.06038356802319176
1761316884572471000,2.195470947265625,-0.07195113748908043,-0.2361751927450299,-0.04102510721907019
1761316884582454300,2.205454345703125,-0.06814356189966202,-0.2065029619283974,-0.030224348274059593
1761316884592437200,2.215437255859375,-0.06302373466789722,-0.18674758336171507,-0.009538264728523791
1761316884602420200,2.225420166015625,-0.06491174037158488,-0.14079481048211454,-0.019271303110476583
1761316884612403200,2.2354033203125,-0.0558007976770401,-0.1062562888033688,-0.013041194815561175
1761316884622386200,2.24538623046875,-0.027855975174903867,-0.09999489032104611,-0.004985131468810141
1761316884632369200,2.255369140625,-0.01987023711800575,-0.12388780708387494,0.00891749334852211
1761316884642352400,2.265352294921875,-0.04595569548904895,-0.14574644154012203,0.02085782338324934
1761316884652334300,2.275334228515625,-0.05961538752913475,-0.1493957578279078,0.012360318145621567
1761316884662317300,2.2853173828125,-0.06951894190609455,-0.15481018409207462,0.012386110174003987
1761316884672300300,2.29530029296875,-0.07256313190758228,-0.16545666579082607,-0.009911335824616252
1761316884682283300,2.305283203125,-0.06616437078118324,-0.17038915375694633,-0.02947290885224938
1761316884692266200,2.315266357421875,-0.06098784492611885,-0.1808205314002931,-0.01574838054818101
1761316884702249200,2.325249267578125,-0.050641222956776616,-0.193013219627738,-0.025289869280252605
1761316884712232400,2.335232421875,-0.03869184196591377,-0.18181363409087062,-0.0387414806607645
1761316884722214100,2.345214111328125,-0.032192543074488635,-0.18362170642614364,0.00048395672519691284
1761316884732197400,2.355197265625,-0.015502689558267592,-0.1847394584096968,0.014174847621144727
1761316884742180400,2.365180419921875,-0.020997195321321487,-0.16686287932693958,-0.01826959698833525
1761316884752163000,2.3751630859375,-0.038186230531334873,-0.13967837367281316,-0.020205761815840377
1761316884762146300,2.385146240234375,-0.048673722276091576,-0.1408747438505292,-0.021934540103515608
1761316884772129300,2.39512939453125,-0.05988192951083183,-0.1511678820669651,-0.04775196778867393
1761316884782112000,2.405112060546875,-0.0874152486026287,-0.1510958397440612,-0.04998991944119334
1761316884792095200,2.41509521484375,-0.09030337125957012,-0.15403993037194014,-0.03663749411883764
1761316884802077200,2.4250771484375,-0.09465513672828674,-0.15481033022254703,-0.01705095104672946
1761316884812060200,2.43506005859375,-0.07907061410546302,-0.14121142845898865,0.0028295882695820182
1761316884822043100,2.445043212890625,-0.046989130190014834,-0.1388010063163936,-0.006601663287356495
1761316884832026400,2.4550263671875,-0.006022329029440879,-0.1515384689450264,-0.0019974756938405335
1761316884842009300,2.46500927734375,-0.024118542212247848,-0.15682634622007607,0.003624592838482931
1761316884851992000,2.474991943359375,-0.038190906706452366,-0.1510856106109917,0.001148293252289295
1761316884861975300,2.484975341796875,-0.04095160359144211,-0.13807824499979615,-0.0020434702600352463
1761316884871958300,2.494958251953125,-0.06569441518187523,-0.15289704394713044,-0.0073620349342934785
1761316884881940200,2.504940185546875,-0.0994581530958414,-0.15743834063857792,-0.005456420508679003
1761316884891923200,2.514923095703125,-0.11433598875403403,-0.16940379598140715,0.007862869729055092
1761316884901906200,2.52490625,-0.09245324276983738,-0.1647453026510775,0.00005158405676484108
1761316884911889400,2.534889404296875,-0.08723696942627429,-0.15615195408985016,-0.019564395172381774
1761316884921872100,2.5448720703125,-0.06463000082075596,-0.14972908143550157,-0.02540119330077432
1761316884931855000,2.554855224609375,-0.04536591290235519,-0.14067410671189426,-0.0037746688336599615
1761316884941838300,2.56483837890625,-0.024829320830106735,-0.11545973208695649,-0.02205631245281547
1761316884951820000,2.574820068359375,0.00587853664457798,-0.10410831698924303,-0.029490955965593455
1761316884961803300,2.58480322265625,-0.0018400749087333678,-0.12141104170680045,-0.023681685164943338
1761316884971786200,2.5947861328125,-0.04296118984818458,-0.13405483470261095,-0.016067255505314095
1761316884981769200,2.604769287109375,-0.07670797662734985,-0.14795067358613012,-0.010171685527544468
1761316884991752200,2.614752197265625,-0.11870002918243408,-0.15842019128277898,0.01197804082976654
1761316885001735200,2.624735107421875,-0.11429974839687347,-0.1654433679178357,-0.0038821295298170294
1761316885011718400,2.634718505859375,-0.08028408154845237,-0.1624446244932711,-0.03470063517158851
1761316885021701400,2.644701416015625,-0.054476271075010296,-0.1554100496813655,-0.018696444098278878
1761316885031683300,2.654683349609375,-0.04570902725160122,-0.14873188709169624,0.007258428429346531
1761316885041666300,2.664666259765625,-0.06421557480096816,-0.13609890775084496,0.0033134719295427203
1761316885051649300,2.674649169921875,-0.028830957686901092,-0.12637304802834987,-0.023391871905513107
1761316885061632300,2.68463232421875,-0.0059761518001556395,-0.11851955804899335,-0.034363402573857456
1761316885071615200,2.694615234375,-0.013118424770236014,-0.1219973171621561,-0.007306815882027149
1761316885081598200,2.70459814453125,-0.04592413130700588,-0.15520546701997517,0.02084170336551033
1761316885091581400,2.71458154296875,-0.08852700923681259,-0.1668631715878844,-0.00017705533364787698
1761316885101563100,2.724563232421875,-0.1196878711760044,-0.1659288133472204,-0.029001939472788944
1761316885111546400,2.73454638671875,-0.14276070372760294,-0.13846505236029624,-0.04249696986991912
1761316885121529300,2.744529296875,-0.0955021089464426,-0.12461349100992083,-0.03746700374553911
1761316885131512000,2.754511962890625,-0.04212356998026371,-0.14095496947988867,-0.011941133752325549
1761316885141495300,2.764495361328125,-0.010436638340353965,-0.1363166421547532,-0.008899628898268565
1761316885151478300,2.774478271484375,0.004881926822662353,-0.1258427405439317,0.004003426955081523
1761316885161461200,2.784461181640625,0.0028133038550615308,-0.13937018450647592,0.029115930374432355
1761316885171444200,2.7944443359375,-0.028207857352495192,-0.15777210263758898,0.011171829880261793
1761316885181426200,2.80442626953125,-0.053341714087128636,-0.14767244116663933,-0.008318047884339467
1761316885191409400,2.814409423828125,-0.06771218474507332,-0.13036255605593322,-0.0033618593822233376
1761316885201392000,2.82439208984375,-0.0970095908999443,-0.13238514792472122,-0.0026031043036375194
1761316885211375400,2.834375244140625,-0.10637655418217182,-0.14335545475035905,-0.004520984555780887
1761316885221358300,2.8443583984375,-0.11763970647454261,-0.15457549855336547,-0.027640898518962783
1761316885231341000,2.854341064453125,-0.11714110930263995,-0.15358590299412608,-0.03695290761040523
1761316885241324300,2.86432421875,-0.08205576739609241,-0.16278306266739964,-0.031340090963616965
1761316885251307300,2.874307373046875,-0.04886953710913658,-0.1627051751255989,-0.03017046266235411
1761316885261289200,2.884289306640625,-0.02611877611875534,-0.15953005222082137,-0.03249019258050248
1761316885271272200,2.894272216796875,-0.00490296961069107,-0.14612199685424565,-0.03149366495697759
1761316885281255000,2.9042548828125,-0.022433365604281424,-0.13332812786325812,-0.022986716037569566
1761316885291238100,2.914238037109375,-0.021423311778903005,-0.1234184360064566,-0.012231476734718307
1761316885301221000,2.92422119140625,-0.04547404945194721,-0.12787249280586838,0.0029699283220339565
1761316885311203800,2.934203857421875,-0.07493629077970981,-0.13475596870929002,0.016942905828682703
1761316885321187000,2.94418701171875,-0.08585048350393772,-0.11766016474068164,0.0012638367902021855
1761316885331170000,2.954170166015625,-0.08333879294395447,-0.11271554794535041,0.008228652567835525
1761316885341152000,2.964152099609375,-0.08004559661746025,-0.12430135632082819,0.0007480510214809328
1761316885351135000,2.974135009765625,-0.038269817161560055,-0.12185527834296225,-0.02622272055041976
1761316885361118000,2.984117919921875,-0.014989479339122772,-0.11949775543138384,-0.03664924848871305
1761316885371101200,2.99410107421875,-0.005000000244379043,-0.1213067045494914,-0.02598998037362471
1761316885381084000,3.004083984375,-0.0008855506628751755,-0.13730579932257533,-0.022094900030689313
1761316885391067100,3.014067138671875,-0.012156886261701583,-0.1584022172346711,-0.003054647463420406
1761316885401050000,3.024050048828125,-0.055492754641175264,-0.15642799455225467,0.005240695398766547
1761316885411032000,3.034031982421875,-0.06437222666740416,-0.15340353216454386,0.010104072784585878
1761316885421015000,3.04401513671875,-0.06559446193873882,-0.14908976061865686,0.013916397614357992
1761316885430998000,3.053998046875,-0.08313245671689509,-0.1602013756111264,-0.0036925161086954175
1761316885440981200,3.063981201171875,-0.11729542308151722,-0.15347659740075467,-0.038018701077857986
1761316885450964000,3.0739638671875,-0.12679098117947576,-0.12673223672956227,-0.032250063681695605
1761316885460947000,3.083947021484375,-0.0864700767070055,-0.11875409745723009,-0.00891499086418189
1761316885470930200,3.09393017578125,-0.07856558719277382,-0.12000775078013538,-0.011756351769948378
1761316885480913200,3.1039130859375,-0.053795303073525425,-0.11868731583133339,-0.03175295521398075
1761316885490895000,3.11389501953125,-0.017574819657206534,-0.11874255314990878,-0.017559731685929
1761316885500878000,3.123878173828125,-0.017949498188495634,-0.1175431142322719,-0.023915201659873125
1761316885510861000,3.133861083984375,-0.01906301238834858,-0.12039411974921822,-0.017986807124735788
1761316885520844000,3.143843994140625,-0.015007599517703056,-0.12228504806235432,-0.010522937517473473
1761316885530827000,3.153826904296875,-0.03294716083407402,-0.13586889838725327,-0.000774454971216619
1761316885540810000,3.16381005859375,-0.051992637565732,-0.13128361642360686,-0.0046710696841124446
1761316885550793200,3.173793212890625,-0.088186817497015,-0.14154840532839297,0.0010001808853354304
1761316885560776000,3.18377587890625,-0.09231120395064353,-0.14711115402206779,0.005967338306037709
1761316885570758100,3.193758056640625,-0.08339081539213657,-0.15109350165650248,-0.0030666484284680336
1761316885580741000,3.2037412109375,-0.07340133629739284,-0.14372881810739635,-0.014738737714756278
1761316885590724000,3.21372412109375,-0.05953063185513019,-0.1322708738952875,-0.0008847926110494882
1761316885600707000,3.22370703125,-0.04959142164289951,-0.13772066373378036,0.0017749829164240508
1761316885610690000,3.23368994140625,-0.02909808419048786,-0.13124766832739115,-0.03781451114211231
1761316885620673300,3.24367333984375,-0.013410685715079307,-0.1247713119201362,-0.04637958345692605
1761316885630656000,3.253656005859375,-0.029831074640154838,-0.134427759668231,-0.02112604586537927
1761316885640638200,3.26363818359375,-0.061111179044842714,-0.14213760339319706,-0.00739779123426415
1761316885650621200,3.27362109375,-0.09580898293852806,-0.12636968702748416,-0.023266364096011963
1761316885660604000,3.28360400390625,-0.0950794996201992,-0.09715367554575205,-0.03616446064645424
1761316885670587100,3.293587158203125,-0.09664660280644893,-0.09259148219674825,-0.01213603526991792
1761316885680570000,3.303570068359375,-0.10416238526403904,-0.11211553622558712,0.0004343636961188167
1761316885690552800,3.313552734375,-0.08311258297264576,-0.14002104963064194,0.008193891781708226
1761316885700536000,3.3235361328125,-0.061245034557580944,-0.1477194951787591,0.00206762745375745
1761316885710519000,3.33351904296875,-0.06745382606983184,-0.13217793491482735,0.0036854013813193884
1761316885720501200,3.343501220703125,-0.042915012618899344,-0.13647358628213405,0.0018829459360800683
1761316885730484000,3.35348388671875,-0.04636193820238113,-0.13345540750473736,-0.010814595674118027
1761316885740467000,3.363467041015625,-0.049372225934267044,-0.12944719477668404,-0.014195050158957018
1761316885750450200,3.3734501953125,-0.05419043987095356,-0.12777546217218042,-0.016128237578086554
1761316885760433000,3.383432861328125,-0.06677227354645729,-0.1287447455957532,-0.022364163692435247
1761316885770416000,3.393416015625,-0.0619353549093008,-0.12668065267279743,-0.03468811361673288
1761316885780399000,3.403399169921875,-0.05907470478117466,-0.10613426985889672,-0.037858459881693125
1761316885790382000,3.413382080078125,-0.059763271567225454,-0.09710121470615267,-0.026910547550953925
1761316885800364000,3.423364013671875,-0.04707973108291626,-0.11028875918984413,-0.0030714342014398423
1761316885810347000,3.433346923828125,-0.08846154278516768,-0.1268796823762357,0.014263649282604455
1761316885820330200,3.443330322265625,-0.09332710299491882,-0.10098623944595456,0.014408272784529254
1761316885830313000,3.45331298828125,-0.07819032413959502,-0.10210355303809046,0.003931576428422704
1761316885840296000,3.4632958984375,-0.04748948092758655,-0.1170218668371439,0.00013855908731929956
1761316885850279200,3.473279052734375,-0.020626023921370504,-0.11663052943199873,0.012673494014330208
1761316885860262100,3.48326220703125,-0.036245617857575414,-0.11039046599864959,0.019493868953129274
1761316885870244000,3.493244140625,-0.061223991769552226,-0.09990326651483773,0.010707564236223698
1761316885880227000,3.50322705078125,-0.0908487301826477,-0.08957651828974485,-0.009825319775287061
1761316885890210000,3.5132099609375,-0.12553542816042898,-0.10282762952893972,-0.016084352770587427
1761316885900193000,3.523193115234375,-0.13166706278324125,-0.13132847847864032,-0.036837985127000136
1761316885910176000,3.533176025390625,-0.11925123332440853,-0.13702289072796703,-0.04578664079876616
1761316885920159000,3.543158935546875,-0.09527765254080295,-0.12098185650929807,-0.056878793038940056
1761316885930142200,3.55314208984375,-0.08782675201296807,-0.11798778925985097,-0.057271308621019125
1761316885940125000,3.563125,-0.047242812690138816,-0.1263799161605537,-0.035902046850603074
1761316885950107100,3.573107177734375,-0.0331529125392437,-0.1442996037326753,-0.008957998888846486
1761316885960090000,3.583090087890625,-0.06015490123331546,-0.11215981375873088,0.013275131435599177
1761316885970073000,3.593072998046875,-0.04798807809948921,-0.08569865394309163,0.017582902498962355
1761316885980056000,3.60305615234375,-0.0184913499802351,-0.08518880472481251,0.019795756242843344
1761316885990039000,3.6130390625,-0.01745908432304859,-0.08385390285924077,0.028911238115187733
1761316886000022300,3.623022216796875,-0.02960954084396362,-0.07960413646027445,0.0029995380090083925
1761316886010005000,3.6330048828125,-0.062220017069578165,-0.06834975199624896,-0.015937747374130413
1761316886019988000,3.642988037109375,-0.0722568424373865,-0.07045958375707269,-0.009241802532598375
1761316886029970200,3.65297021484375,-0.08956219750344753,-0.08538827281966804,-0.031630105152446776
1761316886039953000,3.662952880859375,-0.09270400266051292,-0.11796104738339781,-0.0230767324085813
1761316886049936100,3.67293603515625,-0.08996727117300032,-0.10605945105701685,0.0071297879478428505
1761316886059919000,3.682919189453125,-0.0838122556746006,-0.09657441435307264,-0.008872211168380453
1761316886069902000,3.692902099609375,-0.07006663891673087,-0.08985869623199105,-0.036047821129998193
1761316886079885000,3.702885009765625,-0.04606324751675129,-0.09280658625215292,-0.010657304486865178
1761316886089868000,3.712867919921875,-0.04977846864759922,-0.12134879012554883,-0.003365466978261247
1761316886099850200,3.722850341796875,-0.026016484788060186,-0.12731602796688676,-0.02139360162722878
1761316886109833000,3.7328330078125,-0.02923895396590233,-0.10537307622805236,-0.0032894882657565176
1761316886119816200,3.742816162109375,-0.05854162081778049,-0.10913476684913039,0.012225448852730914
1761316886129799200,3.752799072265625,-0.07041559848487376,-0.11484043114483355,-0.012011577773187308
1761316886139782000,3.762781982421875,-0.044296237844228745,-0.11637217075675725,-0.0297130194847472
1761316886149765000,3.77276513671875,-0.023876550149917602,-0.11287483016029,-0.024279523193929342
1761316886159748000,3.782748046875,-0.02014437788426876,-0.11245587409585714,-0.02318609280087985
1761316886169731000,3.79273095703125,-0.05080138195455074,-0.09906155499368906,-0.008209527742257342
1761316886179713000,3.802713134765625,-0.0714513712733984,-0.08937193562835455,-0.003107455362891778
1761316886189696000,3.812696044921875,-0.09003039953708648,-0.09055632310733198,0.0008491915747057646
1761316886199679200,3.82267919921875,-0.10673311253488063,-0.08144289619475603,-0.0004835822658613324
1761316886209662000,3.832661865234375,-0.1074012210547924,-0.10085282232463359,-0.0027086835699621586
1761316886219645000,3.84264501953125,-0.11695347777605056,-0.09734832133501768,-0.00323644290426746
1761316886229628200,3.852628173828125,-0.12098726333677769,-0.10246741791442036,0.019291459982516242
1761316886239611100,3.862611083984375,-0.10254209058582782,-0.10098273231461644,0.02187361282967031
1761316886249593900,3.87259375,-0.08573591721355915,-0.09017156157344579,0.020611420007282867
1761316886259576000,3.882576171875,-0.055177112820744514,-0.08226181136220694,0.015640198332816362
1761316886269559000,3.89255908203125,-0.014383330139517782,-0.08351955633834005,-0.009327380190510302
1761316886279542300,3.902542236328125,-0.004347089293599129,-0.0911821999207139,-0.030883469769917425
1761316886289525200,3.912525146484375,-0.016633739414811135,-0.10070245406851172,-0.043267369720526035
1761316886299508000,3.922508056640625,-0.04547112684249878,-0.10059183330088853,-0.03251678832648322
1761316886309491200,3.9324912109375,-0.05402385113239288,-0.11513313048109411,-0.015212565771583466
1761316886319474200,3.94247412109375,-0.06548807895481586,-0.12664499683752656,0.002743015097826719
1761316886329457400,3.95245751953125,-0.07216214989125729,-0.11481471218168735,0.0028616913077421486
1761316886339439000,3.962439208984375,-0.07637713723778725,-0.10027224595770239,0.0026255901300814
1761316886349422300,3.97242236328125,-0.07595745052099227,-0.09496654076501726,0.013132078836252913
1761316886359405300,3.9824052734375,-0.05894026474654674,-0.09131400960683822,0.027095448264339937
1761316886369388000,3.992387939453125,-0.049287470260262485,-0.08200053007751702,0.003965040306607261
1761316886379371300,4.002371337890625,-0.05707680896222591,-0.06614303573220968,-0.023720601536380125
1761316886389354200,4.012354248046875,-0.08197101172208786,-0.06051365154311061,-0.04463796395398676
1761316886399337200,4.022337158203125,-0.0895154357522726,-0.0787362675845623,-0.0324939097743947
1761316886409319200,4.032319091796875,-0.09215981278121471,-0.10529197381585836,-0.012109686119109392
1761316886419302100,4.04230224609375,-0.10748656125068663,-0.112826314843446,0.00005838825688697397
1761316886429285400,4.052285400390625,-0.08997370091378688,-0.10763327624499797,-0.01075298341368325
1761316886439268000,4.06226806640625,-0.0521843607455492,-0.10516381739154458,-0.011178506216220557
1761316886449251000,4.0722509765625,-0.01804769786596298,-0.10275397977083921,-0.009945658219326288
1761316886459234300,4.082234375,0.0018266309052705765,-0.1003425347149372,-0.015662044838443398
1761316886469217300,4.09221728515625,-0.012010755789279936,-0.09761822431758045,-0.014311972803203388
1761316886479200000,4.102199951171875,-0.04598141445219516,-0.08989157558828592,0.004139995014714077
1761316886489182200,4.11218212890625,-0.08505494921207428,-0.09197612677738069,0.016814347545569763
1761316886499165200,4.122165283203125,-0.10987842482328414,-0.09354863679111003,0.030678759244363755
1761316886509148200,4.132148193359375,-0.11257248621284961,-0.08785860845595597,0.01848846390340477
1761316886519131100,4.142131103515625,-0.08397884441316127,-0.06620820992290974,-0.002898890646127984
1761316886529114400,4.1521142578125,-0.0727326432555914,-0.05748831237256526,-0.0011845336094498634
1761316886539097300,4.162097412109375,-0.09093523942232132,-0.07056611287146806,-0.0020455434861127286
1761316886549080000,4.172080078125,-0.10719371578395366,-0.09011734716817736,-0.01182816576398909
1761316886559063300,4.182063232421875,-0.11732348013222217,-0.10678308915644884,-0.009890804493241012
1761316886569045200,4.192045166015625,-0.09502221647500991,-0.13602964190691708,-0.012831387989781796
1761316886579028200,4.2020283203125,-0.06441372772157192,-0.1340657944880426,-0.028056594047229735
1761316886589011200,4.21201123046875,-0.03759060272574424,-0.13213614159971473,-0.03895579013172537
1761316886598994200,4.221994140625,-0.0007242226213216781,-0.12883140096589923,-0.045502435296215116
1761316886608977200,4.23197705078125,-0.004615969362854957,-0.10259674338251351,-0.056886748016532505
1761316886618960100,4.241960205078125,-0.009864975932240486,-0.08687953429073095,-0.03519614533726126
1761316886628943000,4.251943115234375,-0.02392155833542347,-0.07401420749872922,-0.0065029704195447265
1761316886638926300,4.26192626953125,-0.06609831980764866,-0.06850508868843316,0.010581197910197078
1761316886648908000,4.271907958984375,-0.10644143611192702,-0.06453852314502001,0.016794555999711153
1761316886658891300,4.281891357421875,-0.09460077619254588,-0.05431947307810187,0.013459749021194874
1761316886668874200,4.291874267578125,-0.10132336244583129,-0.06634528030604124,-0.0029508126296103
1761316886678857200,4.301857177734375,-0.08933014231324195,-0.07547229735255241,0.0010491437267512083
1761316886688840200,4.311840087890625,-0.07186170563995838,-0.08563304136097431,0.010479783362336455
1761316886698823200,4.3218232421875,-0.050610827818512914,-0.08047112855315208,-0.0021680282214656473
1761316886708806400,4.331806396484375,-0.04244447249770164,-0.07925503076165914,-0.02523521648356691
1761316886718788000,4.3417880859375,-0.02794657606780529,-0.10084785388857126,-0.022013605822250246
1761316886728771300,4.351771240234375,-0.024157705178856848,-0.11176818409264087,0.001452189835999161
1761316886738754300,4.36175439453125,-0.0470563502073288,-0.12025164253860711,0.0034811201140284537
1761316886748737000,4.371737060546875,-0.05888415064513683,-0.11201353715583681,0.004693071453366429
1761316886758720300,4.38172021484375,-0.07316109780073166,-0.08997121669575571,0.003304229177162051
1761316886768703200,4.391703125,-0.0917857187718153,-0.08514043553844093,-0.008064557180460542
1761316886778686200,4.401686279296875,-0.09180500799417496,-0.08818930171504616,-0.0016013890483416616
1761316886788669200,4.411669189453125,-0.08975625877082348,-0.10211246699690818,-0.0026156258584931493
1761316886798651100,4.421651123046875,-0.08711246626377105,-0.09236936387866734,-0.010198062077816575
1761316886808634400,4.43163427734375,-0.0796551359951496,-0.07936360570266843,-0.01560852455291897
1761316886818617000,4.4416171875,-0.06382102252542972,-0.075034782718122,-0.0280624392661266
1761316886828600000,4.45160009765625,-0.07381868492662906,-0.07931026808023452,-0.027508805705048142
1761316886838583300,4.461583251953125,-0.0802525173664093,-0.09562398176044225,-0.03155382504584268
1761316886848566300,4.471566162109375,-0.056713820868730544,-0.0942633609317243,-0.023877079872880128
1761316886858549000,4.481549072265625,-0.0539794274687767,-0.10020487980991602,-0.0036631256174296137
1761316886868532200,4.4915322265625,-0.04545008405447006,-0.09135872553139925,0.008004004365950822
1761316886878514200,4.50151416015625,-0.06410685372948646,-0.09066358287408947,0.019640008558705447
1761316886888497200,4.5114970703125,-0.0759650493055582,-0.08040083979591726,0.02983164089573547
1761316886898480000,4.521480224609375,-0.08229834398031234,-0.05928469427004456,0.017719580156449227
1761316886908463400,4.53146337890625,-0.10365385122001171,-0.05455854253098368,-0.0053394430655054744
1761316886918446300,4.5414462890625,-0.08554244046807288,-0.06817614899501204,-0.0287257072141394
1761316886928429000,4.551428955078125,-0.06752396869659423,-0.09198620977997779,-0.024734080294705925
1761316886938412300,4.561412353515625,-0.05572714791893959,-0.09398162138089537,-0.01645158778093755
1761316886948395300,4.571395263671875,-0.047612230524420734,-0.09408990406095981,-0.007089976527262479
1761316886958377200,4.581377197265625,-0.06148878018558025,-0.09581935820206999,-0.007113887125812471
1761316886968360200,4.591360107421875,-0.04912263508737087,-0.09638619830459355,0.004923592273611575
1761316886978343200,4.60134326171875,-0.04898351887762546,-0.07819456192329526,-0.010493684023525565
1761316886988326400,4.611326416015625,-0.05399579408168793,-0.06149155666455626,-0.016390998433809728
1761316886998309000,4.62130908203125,-0.07563304087221621,-0.06743541363030672,-0.011652206408884376
1761316887008292000,4.6312919921875,-0.0994540614426136,-0.06682678021267056,-0.0076821154678240414
1761316887018275300,4.641275390625,-0.09843114813566207,-0.07242343117594718,0.01026756538376212
1761316887028258000,4.651258056640625,-0.07999240512549877,-0.07797624299749732,0.003281396290846169
1761316887038240300,4.661240234375,-0.04505903891026974,-0.07396671509519219,-0.004588368969876319
1761316887048223200,4.67122314453125,-0.03048281654715538,-0.05145853068903088,-0.005605546655785292
1761316887058206200,4.681206298828125,-0.030011107382178305,-0.04688610820695758,-0.005205770215857774
1761316887068189200,4.691189208984375,-0.05289280127584934,-0.06648892656043172,-0.019280125737749038
1761316887078172200,4.701172119140625,-0.08228373093307018,-0.08543488844037056,-0.005786839773133397
1761316887088155400,4.7111552734375,-0.10562719711959362,-0.10112053335011005,0.014376462007313967
1761316887098138000,4.72113818359375,-0.10082827240526676,-0.08677665843814611,0.008230049940478056
1761316887108121000,4.73112109375,-0.08675473886728287,-0.08509075117781757,-0.01251594709875062
1761316887118103300,4.741103271484375,-0.08099252207875252,-0.07940583740919828,-0.02243420585449785
1761316887128086000,4.7510859375,-0.07696341269314289,-0.059843351066112514,-0.010376998841296881
1761316887138069200,4.7610693359375,-0.06641513067185878,-0.06231354057192802,-0.01014901703801006
1761316887148052200,4.77105224609375,-0.06262918239235878,-0.06266147722676396,-0.0007226334524340927
1761316887158035200,4.78103515625,-0.0488642764121294,-0.06397723600044847,0.016938348384574056
1761316887168018200,4.79101806640625,-0.0415834717541933,-0.06990501861423254,0.022433182941190895
1761316887178001200,4.801001220703125,-0.026054478710889815,-0.05564005415737629,0.020374277650006115
1761316887187984100,4.810984130859375,-0.024870237362384796,-0.035870647065341474,0.02178368779020384
1761316887197966000,4.820966064453125,-0.06463058534264564,-0.03296513488218188,0.028454141997452824
1761316887207949000,4.830948974609375,-0.12027531567513942,-0.05407353549301624,0.01994509245250374
1761316887217932300,4.840932373046875,-0.17520692930221557,-0.08228855323866009,0.010924951580259948
1761316887227915300,4.850915283203125,-0.20008242736160753,-0.10690393905714153,0.007888944885227829
1761316887237898000,4.86089794921875,-0.17113807242810725,-0.12131240363791584,-0.019874931559432298
1761316887247881200,4.870881103515625,-0.09422492861747742,-0.11793547455072402,-0.05485244744364172
1761316887257864200,4.8808642578125,-0.028044191223382947,-0.10215089931115508,-0.0707075306361541
1761316887267846100,4.89084619140625,0.0026776947766542435,-0.07537380541414022,-0.061254679168760776
1761316887277829000,4.9008291015625,0.01806464900076389,-0.06967705507725477,-0.0510387343743816
1761316887287811600,4.9108115234375,0.018228315129876136,-0.04283142598867416,-0.03041618105173111
1761316887297794600,4.920794677734375,0.018594225832819937,-0.028467092810571193,0.00526420413851738
1761316887307777500,4.930777587890625,-0.00639525399506092,-0.04001899891644716,0.031168442457448688
1761316887317760800,4.9407607421875,-0.04614449605941772,-0.03848258312940597,0.03142219802280888
1761316887327743500,4.950743408203125,-0.09490589661896229,-0.04078238450437784,0.04778150441041216
1761316887337726700,4.960726806640625,-0.1332031863093376,-0.05623641261532902,0.0398727588461712
1761316887347708700,4.970708740234375,-0.15300094271302223,-0.061558484420925375,0.005247618329897522
1761316887357691600,4.980691650390625,-0.12862988704442976,-0.06872822991982103,0.00547105182223022
1761316887367674600,4.990674560546875,-0.08317746490240097,-0.08082286460027098,0.02287727344688028
1761316887377657600,5.00065771484375,-0.06388181280195712,-0.07687661119252442,0.008003657306078821
1761316887387640800,5.010640869140625,-0.03231412362754345,-0.07238178399130701,0.00016454291194677352
1761316887397623600,5.02062353515625,-0.016533786171674728,-0.07762333790659905,-0.015875906784832475
1761316887407606500,5.0306064453125,-0.02520809101462364,-0.07302738841846584,-0.02182177304457873
1761316887417589800,5.04058984375,-0.05855564934313297,-0.06686185152605176,0.0001695296143181622
1761316887427571500,5.050571533203125,-0.07839549132287502,-0.0779383952051401,0.005634553554560989
1761316887437554700,5.0605546875,-0.07858020024001598,-0.0804300658904016,0.002637472364120185
1761316887447537700,5.07053759765625,-0.08295300849676132,-0.07125672548413277,0.0003067826605401933
1761316887457520600,5.080520751953125,-0.04052957878708839,-0.0743124597929418,0.0006929324339143932
1761316887467503600,5.090503662109375,-0.04905892220139503,-0.06946165876090526,-0.015711181209795175
1761316887477486600,5.100486572265625,-0.06876490866839885,-0.055058308746665716,-0.024658147247973827
1761316887487469600,5.110469482421875,-0.09015724078714847,-0.05907558156400919,-0.026825554414931684
1761316887497452500,5.12045263671875,-0.12179214997887611,-0.07129179679751396,-0.012357760862354189
1761316887507434500,5.1304345703125,-0.11533727475106716,-0.07433817875608802,-0.009222038386203349
1761316887517417700,5.140417724609375,-0.10260931060314178,-0.06052957976460457,-0.0100861626685597
1761316887527400400,5.150400390625,-0.0755950469493866,-0.0532334314070642,-0.014846472405549137
1761316887537383700,5.1603837890625,-0.0519271711140871,-0.053998570560663935,0.008848821159638464
1761316887547366700,5.17036669921875,-0.062253334817290305,-0.05612009275928139,0.027149617003835735
1761316887557349600,5.180349609375,-0.058794134274125096,-0.06720262778773903,0.014401395519170909
1761316887567332600,5.19033251953125,-0.053639820250868796,-0.0723532885491848,0.013502638314850627
1761316887577315600,5.200315673828125,-0.05481821638047695,-0.08283961125016212,0.010328903649561107
1761316887587297800,5.2102978515625,-0.05365501782000064,-0.08710866687148809,0.021115414873510596
1761316887597280500,5.220280517578125,-0.080087097671628,-0.08071516644209623,0.0014575783971697092
1761316887607263500,5.230263427734375,-0.11018939046859741,-0.06006663842797279,-0.01804559724042192
1761316887617246700,5.240246826171875,-0.10911562375724315,-0.058209173993021245,-0.0332582360772416
1761316887627229700,5.250229736328125,-0.0875157863676548,-0.043184184949100014,-0.03717707175510004
1761316887637212400,5.26021240234375,-0.058986441975831985,-0.04784399345368147,-0.0211478193057701
1761316887647195600,5.270195556640625,-0.02321779398024082,-0.06583280073925853,-0.009301898689381779
1761316887657178600,5.2801787109375,-0.013171031740307808,-0.07234642041698097,0.004279430884867906
1761316887667160600,5.29016064453125,-0.052695232877135276,-0.07077113392427563,0.012763126792851834
1761316887677143600,5.3001435546875,-0.086788056614995,-0.06641834554225207,0.004997516026347876
1761316887687126500,5.31012646484375,-0.11396423283219337,-0.07152882042378186,-0.008828308094572275
1761316887697109800,5.32010986328125,-0.1254132630854845,-0.06144786365330219,-0.017669694866426288
1761316887707092500,5.330092529296875,-0.10849603055417537,-0.053801148292422295,-0.017220818587765096
1761316887717075700,5.34007568359375,-0.08199322355389595,-0.06045242287516594,-0.0022408925282768905
1761316887727058700,5.35005859375,-0.06569149257242679,-0.06254077345654369,0.016985420663002876
1761316887737040600,5.36004052734375,-0.03747136026024818,-0.05880173305869102,0.004965842246450483
1761316887747023600,5.370023681640625,-0.02699965060651302,-0.05116758491843938,-0.008935914921201766
1761316887757006600,5.380006591796875,-0.03955401175320148,-0.0540172752611339,-0.009243318636249751
1761316887766989800,5.38998974609375,-0.04160276097655296,-0.05359510432630777,-0.01462506647352129
1761316887776972500,5.39997265625,-0.06435469101071357,-0.06279109495580196,-0.0227164020630531
1761316887786955500,5.40995556640625,-0.07614157491624354,-0.07499445070773363,-0.013714600565098226
1761316887796938800,5.419938720703125,-0.07156827565133571,-0.08579144679307937,-0.001914382253959775
1761316887806921700,5.429921630859375,-0.08673778773248195,-0.0795578131005168,-0.025434374051168558
1761316887816903700,5.439903564453125,-0.10939385617673396,-0.07455401346385479,-0.013239804393891245
1761316887826886700,5.44988671875,-0.09576631284058093,-0.0574804213270545,0.014937639554031192
1761316887836869600,5.45986962890625,-0.08960954377651215,-0.04775996843203902,0.005970653641130775
1761316887846852600,5.4698525390625,-0.043335283857584,-0.03792904089987278,0.004865724606532603
1761316887856835600,5.479835693359375,-0.031551322561502455,-0.027127953161299227,0.022234262835606932
1761316887866818600,5.489818603515625,-0.031043373039364813,-0.03213482153788209,0.028709358867537227
1761316887876801800,5.4998017578125,-0.05686112038493156,-0.04472454625889659,0.04536468905964866
1761316887886784500,5.509784423828125,-0.08136018634736537,-0.06450432861447333,0.03617436098596081
1761316887896766700,5.5197666015625,-0.11224047777950763,-0.07276230774149298,0.0018056977150961756
1761316887906749700,5.529749755859375,-0.13806290130019186,-0.09046499156206846,-0.024862821240909397
1761316887916732700,5.539732666015625,-0.14460720837712288,-0.11429068830758332,-0.04447767709204927
1761316887926715600,5.549715576171875,-0.09598960020244121,-0.12072320557311177,-0.05073644522586837
1761316887936698600,5.55969873046875,-0.03231003197431564,-0.10856661157235503,-0.06504654573239385
1761316887946681600,5.569681640625,0.0008668459624052047,-0.09037439066916704,-0.06201766289789229
1761316887956664600,5.57966455078125,0.0200075997620821,-0.05921323646903038,-0.042665111244749275
1761316887966647600,5.5896474609375,-0.012074468675255775,-0.04238923517912626,-0.012333704133331775
1761316887976629500,5.59962939453125,-0.04505845438838005,-0.029848610296845435,0.004974336080159992
1761316887986612500,5.609612548828125,-0.08120821065604686,-0.028872751002013683,0.021284633960574863
1761316887996595700,5.619595703125,-0.09389292018413543,-0.04820420506820083,0.04431256792452186
1761316888006578700,5.62957861328125,-0.11592705733776092,-0.0562538021415472,0.04257662924369797
1761316888016561400,5.6395615234375,-0.10147650718092918,-0.0475114004984498,0.01780285625942051
1761316888026544600,5.649544677734375,-0.09528758941292763,-0.03734977970719337,-0.009342596025951206
1761316888036527600,5.659527587890625,-0.09221534236073493,-0.04962298582494259,-0.0070541197625920175
1761316888046510600,5.669510498046875,-0.10651099421679973,-0.07254764207750558,0.0027789266614243386
1761316888056492500,5.679492431640625,-0.1069306809335947,-0.07309753104522825,0.004843165714852511
1761316888066475500,5.6894755859375,-0.09298165055811404,-0.0813907276161015,-0.008284118215274066
1761316888076458800,5.699458740234375,-0.06782850460112094,-0.08660641643777489,-0.017290723752509802
1761316888086441500,5.70944140625,-0.044776130315661425,-0.07742445433363318,-0.012502868421468883
1761316888096424700,5.7194248046875,-0.04271452161073684,-0.06519698705375195,0.0007016454633325338
1761316888106407700,5.72940771484375,-0.053365094962716096,-0.052814913734048605,0.007317118080332875
1761316888116390700,5.739390625,-0.06643675798177719,-0.06765256351232528,0.014160298505984246
1761316888126372600,5.74937255859375,-0.07523615050911903,-0.08004486596509813,0.0009389978831633925
1761316888136355600,5.75935546875,-0.06817103442847729,-0.0628790655001998,0.00007220671968534588
1761316888146338800,5.7693388671875,-0.040839375388622284,-0.024080109898000954,-0.01996081974459812
1761316888156321500,5.779321533203125,-0.045050271081924435,-0.03897928060516715,-0.0382896543731913
1761316888166304500,5.789304443359375,-0.01992693574130535,-0.05432838703691959,-0.006906948110554367
1761316888176287700,5.799287841796875,-0.04694587557017803,-0.0657118047080934,-0.006664937781915068
1761316888186270700,5.809270751953125,-0.07496785496175289,-0.062084992513060565,-0.024626528267003595
1761316888196253400,5.81925341796875,-0.083912208917737,-0.05430865942314267,-0.012517371870856732
1761316888206235600,5.829235595703125,-0.07379413500726223,-0.059219373948872084,0.01045908763417974
1761316888216218600,5.839218505859375,-0.0705149672061205,-0.0631464842647314,0.006283464183658361
1761316888226201600,5.84920166015625,-0.06536182222664357,-0.05092354702949524,0.004984053756576031
1761316888236184600,5.8591845703125,-0.08726502647697926,-0.06037146659344434,0.0051742973653599615
1761316888246167600,5.86916748046875,-0.10628595328927039,-0.078130702906847,0.011133114438224583
1761316888256150800,5.87915087890625,-0.10843056410253048,-0.08388035247474908,0.010966854493226855
1761316888266133500,5.889133544921875,-0.09075345311462879,-0.07678484125584363,0.008918379264511167
1761316888276116700,5.89911669921875,-0.055795536980032916,-0.08651610780581831,0.0035383119276724754
1761316888286099200,5.90909912109375,-0.048830374142527576,-0.07384469615072012,-0.0013034472813829778
1761316888296082200,5.919082275390625,-0.0460585713416338,-0.06974032957181334,-0.0006499335424043238
1761316888306065200,5.929065185546875,-0.023116087171435356,-0.05233166026175022,-0.014105627442989498
1761316888316048100,5.939048095703125,-0.028456863677501675,-0.04235445612668991,-0.024473420064523816
1761316888326031000,5.949031005859375,-0.0536918426990509,-0.034436814869940276,-0.027427940754871812
1761316888336014300,5.959014404296875,-0.09050386226773262,-0.05196648021116852,-0.011521565766539423
1761316888345997000,5.9689970703125,-0.1222504151403904,-0.06208528477400541,-0.011292981175053864
1761316888355980000,5.97897998046875,-0.10920330204069614,-0.06478782173097133,-0.012556333908066153
1761316888365962200,5.988962158203125,-0.08054127117991447,-0.06674509327858687,-0.007704418631177395
1761316888375945200,5.9989453125,-0.049997079834342,-0.0530795560196042,-0.003862758109066635
1761316888385928200,6.00892822265625,-0.04061141185164451,-0.056472705589234826,0.0015585545536130666
1761316888395911200,6.0189111328125,-0.04098901299238205,-0.05507409083768725,0.011494988286867737
1761316888405894400,6.028894287109375,-0.0461976875513792,-0.05079539060518145,0.015427158370334653
1761316888415877000,6.038877197265625,-0.07471183437407017,-0.060224751599133014,0.008982274813577532
1761316888425860000,6.048860107421875,-0.08259528110027313,-0.05921513616517186,-0.003427033572923392
1761316888435843300,6.05884326171875,-0.08556582134366035,-0.0802072169199586,0.0031755795625038443
1761316888445825000,6.068824951171875,-0.09250584973990916,-0.07194879940152168,-0.028452479763329028
1761316888455808300,6.078808349609375,-0.09352584043741226,-0.05639481804743409,-0.04406968081304803
1761316888465791200,6.088791259765625,-0.0961164414525032,-0.049332332315295935,-0.006509875084366649
1761316888475774200,6.098774169921875,-0.10961188284158706,-0.04619081941917538,-0.0007831314680166542
1761316888485757200,6.108757080078125,-0.0752373195528984,-0.047136575836688274,0.005609565243776887
1761316888495740200,6.118740234375,-0.05308277088999748,-0.038071810371428726,-0.004591602106578648
1761316888505723100,6.12872314453125,-0.03331482510268688,-0.030883944693952798,-0.014213289068546145
1761316888515706400,6.138706298828125,-0.004539396995306015,-0.04381210758909583,0.006931571095157414
1761316888525688000,6.14868798828125,-0.0010977321088314056,-0.050952042471617456,0.0019156426292844116
1761316888535671300,6.15867138671875,-0.03231704623699188,-0.05517082921043038,0.003288794146012515
1761316888545654300,6.168654296875,-0.09518471356034278,-0.06722776222899556,0.02004463470368646
1761316888555637200,6.17863720703125,-0.14412439329624174,-0.07203793898969889,0.029207682044804093
1761316888565620200,6.1886201171875,-0.18199615105092523,-0.08163023546040057,0.0263892270905897
1761316888575603200,6.198603271484375,-0.1792442219942808,-0.07883709761053323,-0.0005509301473386586
1761316888585586400,6.20858642578125,-0.1396434484899044,-0.09698694067671894,-0.011388349574618041
1761316888595569200,6.218569091796875,-0.07539163333177566,-0.08491919400319456,-0.02075410728044808
1761316888605551400,6.22855126953125,-0.02163666226863861,-0.06558160245716571,-0.04906648445334285
1761316888615534300,6.238534423828125,0.00658697717487812,-0.0383214012183249,-0.06247223826497793
1761316888625517000,6.24851708984375,0.011451952862739562,-0.036194472192227836,-0.04123516977317631
1761316888635500300,6.258500244140625,-0.005896072301268577,-0.03935658948495984,-0.01688868229025975
1761316888645483300,6.268483154296875,-0.054773208194971085,-0.0433427365116775,-0.008056355607695877
1761316888655466000,6.278466064453125,-0.06327683264613151,-0.04331044167727232,-0.004570522785931825
1761316888665449200,6.28844921875,-0.06326163507699967,-0.03525251516699791,0.01605853334274143
1761316888675431200,6.29843115234375,-0.08049743203818797,-0.04565729706436395,0.029576259628869592
1761316888685414100,6.3084140625,-0.06793547210693358,-0.06571984188407659,0.01824946751575917
1761316888695397000,6.318397216796875,-0.10794774902164936,-0.060620034527033566,0.020530308461934328
1761316888705380000,6.328380126953125,-0.10738076278865337,-0.04618906585350632,0.0012794270849786698
1761316888715363300,6.33836328125,-0.09639584291577338,-0.06114084353074431,0.00745919343214482
1761316888725346000,6.348345947265625,-0.08249065168201923,-0.06029197161644697,0.025492205185629425
1761316888735329000,6.3583291015625,-0.04543897813856602,-0.0644756870418787,0.005172671663854271
1761316888745312300,6.368312255859375,-0.02862228337228298,-0.05810585974901914,-0.02066893148133531
1761316888755294200,6.378294189453125,-0.03612929800152778,-0.0502650831207633,-0.0013983407569117844
1761316888765277200,6.388277099609375,-0.06575286737084389,-0.05328428481146693,-0.008544029526785015
1761316888775260200,6.39826025390625,-0.0677694678902626,-0.06461334194689988,-0.008997728111036121
1761316888785243400,6.408243408203125,-0.06570610561966896,-0.06601604835167527,-0.0063201429322361944
1761316888795226000,6.41822607421875,-0.06338847632706165,-0.06765080994665622,0.016163546353485433
1761316888805209000,6.428208984375,-0.05580547385215759,-0.05984495850130915,0.00414902770454064
1761316888815192300,6.4381923828125,-0.03869008840024471,-0.04355988639369607,-0.006879292918648571
1761316888825175300,6.44817529296875,-0.056931847533583636,-0.04439999047964811,-0.018187398597598076
1761316888835157200,6.4581572265625,-0.09494155245423316,-0.05154314023256302,-0.011893303422071039
1761316888845140200,6.46814013671875,-0.13016308796107767,-0.07140066399946808,-0.0004049640716984868
1761316888855123200,6.478123291015625,-0.1474509073704481,-0.05883592758923769,-0.001018054468743503
1761316888865106200,6.488106201171875,-0.14493161802589893,-0.04695259757190943,0.002979801262076944
1761316888875089200,6.498089111328125,-0.09819324772655963,-0.050645753001421684,0.006871511470992118
1761316888885072100,6.508072021484375,-0.026942367461323738,-0.06047331953272223,0.01264839610569179
1761316888895055400,6.518055419921875,-0.002277297282218933,-0.04607771443352103,-0.0059628173945471645
1761316888905038000,6.5280380859375,-0.0018669629156589508,-0.022575550553947686,-0.017085200376203282
1761316888915020300,6.538020263671875,-0.01920797381699085,-0.021459844397008418,-0.0000685808573383838
1761316888925003300,6.548003173828125,-0.07958499336838722,-0.05429886868149042,0.019475264717359095
1761316888934986200,6.557986328125,-0.15002747986018658,-0.07943462511226534,0.03059419536660425
1761316888944969200,6.56796923828125,-0.17881167579591273,-0.0788679311402142,0.02078860320509411
1761316888954952200,6.5779521484375,-0.19721827010214327,-0.09377850002422929,0.028656724498001857
1761316888964935400,6.587935302734375,-0.15692659172415732,-0.11510682699605822,0.026566848679818213
1761316888974918100,6.597918212890625,-0.08073299435973166,-0.08355141278132795,-0.008859159890562296
1761316888984901000,6.607901123046875,-0.0283469735622406,-0.0560775687918067,-0.009844590731337666
1761316888994883300,6.61788330078125,-0.014540566527843475,-0.04421192056164145,0.02141774968779646
1761316889004866000,6.627865966796875,-0.005945756661891937,-0.05518251964822411,0.0521008015147876
1761316889014849300,6.637849365234375,-0.0005108721315860748,-0.07542012877389788,0.04391697446936741
1761316889024832300,6.647832275390625,0.015367080479860304,-0.0775792065039277,0.06772666992815211
1761316889034815200,6.657815185546875,0.004796586626768112,-0.11698182708770036,0.0139375408670865
1761316889044798200,6.667798095703125,-0.02853518961071968,-0.11675400968119501,0.024623569124937055
1761316889054781200,6.67778125,-0.07917816613316535,-0.12335150825008749,0.06750380269140005
1761316889064764200,6.68776416015625,-0.17996552200615404,-0.12578911066055298,0.12283285467084497
1761316889074746000,6.69774609375,-0.29605741451680656,-0.11734569196403026,0.06960201707966625
1761316889084729000,6.70772900390625,-0.24555998394489287,-0.045425534135103224,0.018801877234131098
1761316889094712300,6.71771240234375,-0.2714747619241476,-0.007096826393157243,-0.04223711335733533
1761316889104695000,6.727695068359375,-0.25100012917220593,-0.012790069598704575,-0.08194911041753367
1761316889114678300,6.73767822265625,-0.2057616420418024,-0.009517185407876967,-0.07745883152727037
1761316889124661200,6.7476611328125,-0.1487713423192501,-0.00310527253895998,-0.08671619695518165
1761316889134644200,6.757644287109375,-0.07302724228799343,0.01424450619071722,-0.08867100255107506
1761316889144627200,6.767627197265625,0.017554361391067502,0.05806991165280342,-0.06402818073639646
1761316889154609200,6.777609130859375,0.10537819079458713,0.07128346736058593,-0.04927851976882666
1761316889164592400,6.78759228515625,0.14431670099794863,0.05169350848868489,-0.03317949001891538
1761316889174575000,6.7975751953125,0.14698387438058852,0.010400836374610662,-0.044690315195731814
1761316889184558000,6.80755810546875,0.05459200640916824,-0.03936608796566725,-0.02214567123670131
1761316889194541300,6.817541259765625,-0.05950549741387367,-0.07126344748586416,-0.005915946045517921
1761316889204524300,6.827524169921875,-0.18339841906428336,-0.07974851336702704,0.007058704606164246
1761316889214507000,6.837507080078125,-0.2605032860547304,-0.08860212029963731,-0.004368442608881741
1761316889224490200,6.847490234375,-0.25033728134930133,-0.08359510579258203,-0.03405303971674293
1761316889234472200,6.85747216796875,-0.2023538794249296,-0.08429872401729226,-0.04131687497356906
1761316889244455200,6.867455078125,-0.11167758319973944,-0.09785042563825845,-0.025474066740740087
1761316889254438100,6.877438232421875,-0.029016835647821426,-0.09393208315074443,-0.029922972440999
1761316889264421000,6.887421142578125,0.019645196190476416,-0.08723127033784984,-0.0393741799405776
1761316889274404400,6.897404296875,0.005754618003964424,-0.052765667764842504,-0.025586368008796125
1761316889284386600,6.907386474609375,-0.05327390954792499,-0.04010916141793132,-0.0037689971446990965
1761316889294369500,6.91736962890625,-0.059822892799973486,-0.029476562114059923,-0.0023698892028070984
1761316889304352500,6.9273525390625,-0.028428222104907034,-0.024428777205199002,-0.0013370755563490092
1761316889314334700,6.937334716796875,-0.002828501424193382,-0.020617109962552786,-0.007254610770754516
1761316889324317400,6.9473173828125,-0.018214871126413346,0.0017753391094505785,-0.012522796964645385
1761316889334300400,6.957300537109375,-0.04404372438788414,0.024169834008067846,-0.000936915523931384
1761316889344283600,6.96728369140625,-0.04894961660802364,0.01746609858572483,0.01574192340793088
1761316889354266600,6.9772666015625,-0.08367547755241393,-0.01014057800322771,0.02540629873415455
1761316889364249300,6.987249267578125,-0.14360066168308258,-0.0712846364043653,0.02738340749340132
1761316889374232600,6.997232666015625,-0.16320844847261906,-0.022846184188872576,-0.015825016847811638
1761316889384214500,7.007214599609375,-0.12249649885594845,-0.017845307161659,-0.042986178158968685
1761316889394197500,7.017197509765625,-0.10636603278815746,-0.049935412774980065,-0.05277648141980171
1761316889404180500,7.027180419921875,-0.10477964037954807,-0.05421469752937555,0.007677603689488023
1761316889414163700,7.037163818359375,-0.31041970186829565,-0.13759908318072556,0.037893677325546736
1761316889424146700,7.047146728515625,-0.36832302478253837,-0.09632350833192467,0.03570464284867048
1761316889434129400,7.05712939453125,-0.2537497201412916,-0.005496697720140218,0.05577038427246734
1761316889444112600,7.067112548828125,-0.17253157261312008,-0.030933336793631312,-0.02151630555829033
1761316889454095600,7.077095703125,0.02709083602130413,-0.03613543548136949,-0.040435123702976854
1761316889464078600,7.08707861328125,0.20690964303314685,0.009789280347526073,0.01878353785984218
1761316889474060500,7.097060546875,0.32242636600434776,0.03751826814189553,0.0027554727206006643
1761316889484043500,7.10704345703125,0.3623883740365505,0.014187515306472777,-0.0767927323013544
1761316889494026800,7.11702685546875,0.3378694343298673,-0.036166415141522884,-0.10322852021371945
1761316889504009500,7.127009521484375,0.20810791290700434,-0.030706250039488077,-0.036628077836520966
1761316889513992400,7.136992431640625,-0.0358539881914854,0.1285740652039647,0.03311528394259512
1761316889523975700,7.1469755859375,-0.31533903809189795,-0.03018646394908428,-0.00013080503912642598
