time,seconds_elapsed,z,y,x
1761315729773268000,0.07626806640625,0.1968904435634613,0.5125902891159058,-0.009911985136568546
1761315729783250200,0.086250244140625,0.21329444646835327,0.45994216203689575,0.019593656063079834
1761315729793232000,0.09623193359375,0.22253188490867615,0.355724960565567,0.04068722575902939
1761315729803215000,0.106215087890625,0.21548686921596527,0.23211434483528137,0.05301681533455849
1761315729813197000,0.116197021484375,0.187880277633667,0.11006567627191544,0.051323845982551575
1761315729823179000,0.126178955078125,0.15319424867630005,0.004157436545938253,0.038941457867622375
1761315729833162000,0.136161865234375,0.10011637955904007,-0.07195757329463959,0.019809573888778687
1761315729843144200,0.146144287109375,0.048276979476213455,-0.12039244174957275,-0.011941949836909771
1761315729853126100,0.156126220703125,0.002479131333529949,-0.14751753211021423,-0.04176855459809303
1761315729863108000,0.166108154296875,-0.041845016181468964,-0.15861789882183075,-0.08231545984745026
1761315729873091000,0.176091064453125,-0.08694591373205185,-0.18205532431602478,-0.1258845180273056
1761315729883073000,0.186072998046875,-0.12973204255104065,-0.22739838063716888,-0.1658281832933426
1761315729893055000,0.196054931640625,-0.1649954915046692,-0.29300934076309204,-0.1944561004638672
1761315729903037200,0.206037109375,-0.20504024624824524,-0.34931841492652893,-0.19402045011520386
1761315729913020200,0.216020263671875,-0.238698348402977,-0.35817158222198486,-0.1552213877439499
1761315729923002000,0.226002197265625,-0.27543705701828003,-0.33796510100364685,-0.09295610338449478
1761315729932984000,0.235984130859375,-0.3047850728034973,-0.3174249231815338,-0.027928367257118225
1761315729942967300,0.24596728515625,-0.3344253897666931,-0.3201901316642761,0.025432106107473373
1761315729952949000,0.255948974609375,-0.3687375485897064,-0.3298310339450836,0.053962551057338715
1761315729962931200,0.26593115234375,-0.39778438210487366,-0.3410557210445404,0.05890883877873421
1761315729972914000,0.275913818359375,-0.4216305911540985,-0.3536530137062073,0.04634803906083107
1761315729982896000,0.285896240234375,-0.4398835301399231,-0.366492360830307,0.026504144072532654
1761315729992878000,0.295878173828125,-0.4642530381679535,-0.35301142930984497,-0.010934041813015938
1761315730002860000,0.305860107421875,-0.4831602871417999,-0.31025320291519165,-0.05673445388674736
1761315730012843000,0.315843017578125,-0.49667447805404663,-0.26582181453704834,-0.09254278242588043
1761315730022825000,0.325824951171875,-0.5127339363098145,-0.23206618428230286,-0.12723395228385925
1761315730032807200,0.33580712890625,-0.5276764035224915,-0.24140802025794983,-0.14913073182106018
1761315730042790100,0.3457900390625,-0.5407061576843262,-0.27616894245147705,-0.16104865074157715
1761315730052772000,0.355772216796875,-0.5479523539543152,-0.3049505054950714,-0.15099334716796875
1761315730062754000,0.365754150390625,-0.5510128140449524,-0.3356119692325592,-0.1185959056019783
1761315730072736000,0.375736083984375,-0.5518772602081299,-0.3709512948989868,-0.07937127351760864
1761315730082719000,0.385718994140625,-0.5582836866378784,-0.42331165075302124,-0.04123850539326668
1761315730092701000,0.395700927734375,-0.5628403425216675,-0.49431312084198,-0.0034807417541742325
1761315730102683100,0.40568310546875,-0.5719679594039917,-0.5613275766372681,0.02665179967880249
1761315730112666000,0.415666015625,-0.576126754283905,-0.6198281645774841,0.05380432307720184
1761315730122648000,0.42564794921875,-0.5851684212684631,-0.6678451895713806,0.08113855868577957
1761315730132630000,0.435630126953125,-0.5960133075714111,-0.7103241682052612,0.09351826459169388
1761315730142613200,0.44561328125,-0.6116902828216553,-0.7460772395133972,0.08453910052776337
1761315730152595000,0.455594970703125,-0.6364241242408752,-0.7928402423858643,0.048970457166433334
1761315730162577200,0.4655771484375,-0.6526344418525696,-0.8350055813789368,0.001875945832580328
1761315730172558600,0.47555859375,-0.6609922051429749,-0.8690879344940186,-0.03706745803356171
1761315730182541600,0.48554150390625,-0.6627981662750244,-0.8865194916725159,-0.05791713297367096
1761315730192523500,0.4955234375,-0.6663718819618225,-0.8782735466957092,-0.05016466975212097
1761315730202505500,0.50550537109375,-0.6725513339042664,-0.8326875567436218,-0.02269602194428444
1761315730212488700,0.51548876953125,-0.6682745814323425,-0.6967099905014038,0.025402531027793884
1761315730222470400,0.525470458984375,-0.6372883319854736,-0.5494372844696045,0.06377065926790237
1761315730232452600,0.53545263671875,-0.6055557131767273,-0.4918709099292755,0.06022438779473305
1761315730242434600,0.5454345703125,-0.6044925451278687,-0.5260686278343201,0.0033028163015842438
1761315730252417500,0.55541748046875,-0.6454309225082397,-0.6308081150054932,-0.10462551563978195
1761315730262399700,0.565399658203125,-0.7189016938209534,-0.8244835734367371,-0.26565438508987427
1761315730272381400,0.57538134765625,-0.8235911130905151,-1.0703336000442505,-0.4588400721549988
1761315730282364700,0.58536474609375,-0.9298419952392578,-1.2593457698822021,-0.6336659789085388
1761315730292346400,0.595346435546875,-1.0208475589752197,-1.3375357389450073,-0.742889940738678
1761315730302328600,0.60532861328125,-1.0660572052001953,-1.3237704038619995,-0.7833905816078186
1761315730312310500,0.615310546875,-1.081766128540039,-1.233490228652954,-0.7415355443954468
1761315730322293500,0.62529345703125,-1.0657150745391846,-1.0572810173034668,-0.6152418255805969
1761315730332275700,0.635275634765625,-1.008773684501648,-0.7995288968086243,-0.4083573818206787
1761315730342257400,0.64525732421875,-0.9100356698036194,-0.4753645360469818,-0.13185498118400574
1761315730352240600,0.65524072265625,-0.77264004945755,-0.10617876052856445,0.17482586205005646
1761315730362222600,0.66522265625,-0.6358319520950317,0.25637346506118774,0.4749521315097809
1761315730372204500,0.67520458984375,-0.5435484051704407,0.5654346346855164,0.7342982292175293
1761315730382187500,0.6851875,-0.484188973903656,0.7504621148109436,0.9258304834365845
1761315730392169500,0.69516943359375,-0.4401189982891083,0.7907053828239441,1.0576348304748535
1761315730402151700,0.705151611328125,-0.39769285917282104,0.6799710392951965,1.1320514678955078
1761315730412133400,0.71513330078125,-0.3840036690235138,0.459553986787796,1.1603864431381226
1761315730422116600,0.72511669921875,-0.4090719223022461,0.15313921868801117,1.1430517435073853
1761315730432098600,0.7350986328125,-0.46739888191223145,-0.1810600608587265,1.0962541103363037
1761315730442080500,0.74508056640625,-0.533969521522522,-0.4691371023654938,1.0271416902542114
1761315730452063500,0.7550634765625,-0.6077231168746948,-0.6897687911987305,0.9715865850448608
1761315730462045700,0.765045654296875,-0.699794590473175,-0.8218725323677063,0.9234496355056763
1761315730472027600,0.775027587890625,-0.8269860744476318,-0.8953912258148193,0.8572192192077637
1761315730482009600,0.785009521484375,-0.9848693609237671,-0.9205297827720642,0.761212944984436
1761315730491992600,0.79499267578125,-1.1530396938323975,-0.8878682851791382,0.6323156356811523
1761315730501974500,0.804974609375,-1.2911537885665894,-0.7890377640724182,0.46809712052345276
1761315730511956500,0.81495654296875,-1.3855884075164795,-0.6235454678535461,0.2898400127887726
1761315730521939500,0.824939453125,-1.4311517477035522,-0.4110628068447113,0.11881561577320099
1761315730531921700,0.834921630859375,-1.4266328811645508,-0.18853653967380524,-0.017730245366692543
1761315730541903600,0.844903564453125,-1.4014614820480347,0.00896151177585125,-0.11379881948232651
1761315730551885600,0.854885498046875,-1.3598670959472656,0.174811452627182,-0.16210722923278809
1761315730561868500,0.86486865234375,-1.3127223253250122,0.3108353912830353,-0.18025527894496918
1761315730571850500,0.8748505859375,-1.2602319717407227,0.41732773184776306,-0.18066459894180298
1761315730581832700,0.884832763671875,-1.2174134254455566,0.4707643389701843,-0.1779816895723343
1761315730591815400,0.8948154296875,-1.168961763381958,0.47888270020484924,-0.1862870156764984
1761315730601797600,0.904797607421875,-1.1247615814208984,0.44098567962646484,-0.20738458633422852
1761315730611779300,0.914779296875,-1.0870157480239868,0.36290284991264343,-0.24003440141677856
1761315730621762600,0.924762451171875,-1.0511375665664673,0.26389577984809875,-0.2852127254009247
1761315730631744500,0.93474462890625,-1.0384970903396606,0.1591067612171173,-0.3236043155193329
1761315730641726500,0.9447265625,-1.0324454307556152,0.029981276020407677,-0.353008508682251
1761315730651708700,0.954708740234375,-1.0198944807052612,-0.10752145946025848,-0.3826574683189392
1761315730661691600,0.964691650390625,-0.9956263899803162,-0.24313946068286896,-0.40910860896110535
1761315730671673600,0.974673583984375,-0.9765986800193787,-0.3319966197013855,-0.42715445160865784
1761315730681655600,0.984655517578125,-0.972169041633606,-0.37815719842910767,-0.4433331787586212
1761315730691638500,0.994638427734375,-0.9922505617141724,-0.4163988530635834,-0.45733287930488586
1761315730701620500,1.004620361328125,-1.0122170448303223,-0.44411516189575195,-0.47278106212615967
1761315730711602700,1.014602783203125,-1.0305747985839844,-0.4243030846118927,-0.4773576855659485
1761315730721584600,1.024584716796875,-1.0363750457763672,-0.35247325897216797,-0.4678559899330139
1761315730731567600,1.034567626953125,-1.0475544929504395,-0.2331378012895584,-0.45897144079208374
1761315730741549600,1.044549560546875,-1.0486081838607788,-0.08339804410934448,-0.45647671818733215
1761315730751531500,1.054531494140625,-1.0372047424316406,0.07088979333639145,-0.4527704119682312
1761315730761514800,1.0645146484375,-1.012535572052002,0.20712843537330627,-0.45071765780448914
1761315730771496400,1.074496337890625,-0.9710105061531067,0.3165894150733948,-0.44835808873176575
1761315730781478700,1.084478759765625,-0.9193715453147888,0.4020359516143799,-0.4460234045982361
1761315730791460600,1.094460693359375,-0.8563076257705688,0.4571537971496582,-0.443789541721344
1761315730801443600,1.104443603515625,-0.7883548140525818,0.4825608730316162,-0.43257227540016174
1761315730811425800,1.11442578125,-0.7268518209457397,0.4810519218444824,-0.4223100543022156
1761315730821407500,1.124407470703125,-0.6781533360481262,0.44754543900489807,-0.4042360782623291
1761315730831390700,1.134390625,-0.6395848989486694,0.3647347092628479,-0.3909684717655182
1761315730841372400,1.144372314453125,-0.6082788109779358,0.256967693567276,-0.3749827444553375
1761315730851354600,1.154354736328125,-0.572317898273468,0.16679731011390686,-0.34118857979774475
1761315730861336600,1.164336669921875,-0.5339295864105225,0.10333719104528427,-0.2994798719882965
1761315730871319600,1.174319580078125,-0.4916396141052246,0.06474585831165314,-0.24437826871871948
1761315730881301800,1.1843017578125,-0.4557134211063385,0.040723979473114014,-0.17450349032878876
1761315730891283500,1.194283447265625,-0.415439248085022,0.01437945757061243,-0.10056456178426743
1761315730901266700,1.2042666015625,-0.37929007411003113,-0.012407134287059307,-0.03349720314145088
1761315730911248600,1.21424853515625,-0.3399389386177063,0.017198694869875908,0.028930218890309334
1761315730921230600,1.224230712890625,-0.2821595370769501,0.14027926325798035,0.0799340307712555
1761315730931212500,1.234212646484375,-0.20103593170642853,0.29863429069519043,0.10573074221611023
1761315730941195500,1.244195556640625,-0.12222156673669815,0.37544238567352295,0.09697970747947693
1761315730951177500,1.254177490234375,-0.0800514817237854,0.2701777517795563,0.028543924912810326
1761315730961159400,1.264159423828125,-0.09854335337877274,-0.08161389082670212,-0.08717145025730133
1761315730971142700,1.274142578125,-0.1870492547750473,-0.5950974225997925,-0.2193601131439209
1761315730981124600,1.28412451171875,-0.3249341547489166,-1.0482537746429443,-0.30710604786872864
1761315730991106600,1.2941064453125,-0.4705773890018463,-1.323762059211731,-0.308054655790329
1761315731001088500,1.304088623046875,-0.5676365494728088,-1.3775179386138916,-0.19066880643367767
1761315731011071700,1.31407177734375,-0.5801441073417664,-1.1561768054962158,0.033839136362075806
1761315731021053400,1.324053466796875,-0.508009135723114,-0.7447332739830017,0.3014080822467804
1761315731031035600,1.33403564453125,-0.3925246298313141,-0.3011113703250885,0.5301874876022339
1761315731041018400,1.344018310546875,-0.26019322872161865,0.05575171858072281,0.6619102358818054
1761315731051000600,1.35400048828125,-0.14045670628547668,0.29328545928001404,0.6790996193885803
1761315731060982500,1.363982421875,-0.02609190158545971,0.44467678666114807,0.6249613761901855
1761315731070964500,1.373964599609375,0.07427917420864105,0.5189757943153381,0.5597025156021118
1761315731080947700,1.38394775390625,0.1395721584558487,0.5445911288261414,0.5299672484397888
1761315731090929400,1.393929443359375,0.17876110970973969,0.531394898891449,0.5452482104301453
1761315731100911600,1.40391162109375,0.21724547445774078,0.49612459540367126,0.5969053506851196
1761315731110894600,1.41389453125,0.252961665391922,0.4625226855278015,0.6862844824790955
1761315731120876500,1.42387646484375,0.28570112586021423,0.40160298347473145,0.7688417434692383
1761315731130858800,1.433858642578125,0.31198838353157043,0.29587069153785706,0.8388383984565735
1761315731140841500,1.443841552734375,0.31789419054985046,0.15038113296031952,0.8826333284378052
1761315731150823700,1.45382373046875,0.30501675605773926,-0.007047101855278015,0.8968175649642944
1761315731160805400,1.463805419921875,0.2816178798675537,-0.1566840261220932,0.8856199979782104
1761315731170788400,1.473788330078125,0.23892207443714142,-0.29968777298927307,0.8329586386680603
1761315731180771000,1.48377099609375,0.18474368751049042,-0.42415478825569153,0.7473747730255127
1761315731190753300,1.493753173828125,0.11807837337255478,-0.5264174938201904,0.6311879754066467
1761315731200735000,1.50373486328125,0.05542098358273506,-0.5763012766838074,0.4986932873725891
1761315731210718200,1.51371826171875,0.0063650235533714294,-0.5736064314842224,0.35983818769454956
1761315731220700200,1.5237001953125,-0.020916081964969635,-0.5499504208564758,0.23035399615764618
1761315731230682000,1.53368212890625,-0.03883809223771095,-0.5166206955909729,0.12839967012405396
1761315731240664300,1.543664306640625,-0.044478870928287506,-0.45826494693756104,0.05858658254146576
1761315731250647300,1.553647216796875,-0.03909182921051979,-0.38477155566215515,0.023856565356254578
1761315731260629200,1.563629150390625,-0.01522794459015131,-0.3111288249492645,0.010633503086864948
1761315731270611200,1.573611083984375,0.0184922032058239,-0.22675006091594696,0.019973741844296455
1761315731280594200,1.58359423828125,0.06926972419023514,-0.13251832127571106,0.051467496901750565
1761315731290576100,1.593576171875,0.12640731036663055,-0.03280797600746155,0.09915885329246521
1761315731300558000,1.60355810546875,0.1873406171798706,0.08145225048065186,0.1538284718990326
1761315731310540300,1.613540283203125,0.2463831603527069,0.19917967915534973,0.20840810239315033
1761315731320523300,1.623523193359375,0.2943684160709381,0.2972995638847351,0.24088256061077118
1761315731330505200,1.633505126953125,0.3250448405742645,0.36188095808029175,0.25008246302604675
1761315731340487200,1.643487060546875,0.34389370679855347,0.3976971507072449,0.2349424511194229
1761315731350470400,1.653470458984375,0.35909637808799744,0.43009451031684875,0.20267213881015778
1761315731360452000,1.6634521484375,0.35637953877449036,0.4547416865825653,0.15460942685604095
1761315731370434300,1.673434326171875,0.34409916400909424,0.4357783794403076,0.07844862341880798
1761315731380416300,1.683416259765625,0.3185524046421051,0.38520559668540955,-0.016908161342144012
1761315731390399200,1.693399169921875,0.28522855043411255,0.3210732340812683,-0.1139068752527237
1761315731400381200,1.703381103515625,0.25797706842422485,0.25905701518058777,-0.2065914273262024
1761315731410363100,1.713363037109375,0.23231670260429382,0.1903943419456482,-0.2948712408542633
1761315731420346400,1.723346435546875,0.21091744303703308,0.13006854057312012,-0.3745965361595154
1761315731430328000,1.733328125,0.19832201302051544,0.08536924421787262,-0.4257736802101135
1761315731440310300,1.743310302734375,0.1868745982646942,0.058743562549352646,-0.4516097605228424
1761315731450292200,1.753292236328125,0.173965722322464,0.026565920561552048,-0.460193932056427
1761315731460275200,1.763275146484375,0.16762803494930267,0.008081510663032532,-0.45426705479621887
1761315731470257400,1.77325732421875,0.16398750245571136,-0.022711556404829025,-0.43646061420440674
1761315731480239000,1.783239013671875,0.16346655786037445,-0.08263760805130005,-0.4133511185646057
1761315731490221300,1.79322119140625,0.1662740707397461,-0.15269365906715393,-0.3846195936203003
1761315731500204000,1.8032041015625,0.1638094186782837,-0.21658486127853394,-0.35914477705955505
1761315731510186200,1.813186279296875,0.1487732082605362,-0.26052913069725037,-0.3295898139476776
1761315731520168200,1.823168212890625,0.1226285845041275,-0.2777208089828491,-0.29920750856399536
1761315731530151200,1.833151123046875,0.08403538912534714,-0.2864093780517578,-0.2691345512866974
1761315731540133000,1.843133056640625,0.0350886806845665,-0.3021323084831238,-0.23760156333446503
1761315731550115000,1.853114990234375,-0.006676877848803997,-0.29578468203544617,-0.2151937335729599
1761315731560097300,1.86309716796875,-0.043971866369247437,-0.27766701579093933,-0.1971861571073532
1761315731570080300,1.873080322265625,-0.07661077380180359,-0.2371150553226471,-0.18398620188236237
1761315731580062200,1.883062255859375,-0.09897300601005554,-0.187663272023201,-0.1722908318042755
1761315731590044200,1.893044189453125,-0.10133150219917297,-0.12740792334079742,-0.16513705253601074
1761315731600027100,1.903027099609375,-0.10583342611789703,-0.07726182043552399,-0.15987110137939453
1761315731610009000,1.913009033203125,-0.1098039299249649,-0.04177545756101608,-0.1581600159406662
1761315731619991300,1.9229912109375,-0.11603692173957825,-0.025834696367383003,-0.16104048490524292
1761315731629973200,1.93297314453125,-0.13280391693115234,-0.02696201205253601,-0.16373665630817413
1761315731639956200,1.942956298828125,-0.15737736225128174,-0.05447402223944664,-0.16245657205581665
1761315731649938200,1.952938232421875,-0.18770411610603333,-0.11002755910158157,-0.16360145807266235
1761315731659920100,1.962920166015625,-0.22105912864208221,-0.16936811804771423,-0.1691892147064209
1761315731669903400,1.9729033203125,-0.24759060144424438,-0.2127307802438736,-0.17221376299858093
1761315731679885000,1.982885009765625,-0.2719654440879822,-0.23444242775440216,-0.17105430364608765
1761315731689867300,1.9928671875,-0.2816484272480011,-0.2266356348991394,-0.16752855479717255
1761315731699849200,2.00284912109375,-0.27873802185058594,-0.15370219945907593,-0.14296330511569977
1761315731709832200,2.012832275390625,-0.25445425510406494,-0.04878616705536842,-0.10192637890577316
1761315731719814400,2.022814453125,-0.22835445404052734,0.007477505132555962,-0.07221076637506485
1761315731729796000,2.032796142578125,-0.20820070803165436,-0.03743830323219299,-0.08432628959417343
1761315731739779300,2.042779296875,-0.21653534471988678,-0.1474825143814087,-0.15299589931964874
1761315731749761000,2.052760986328125,-0.24677686393260956,-0.2807447016239166,-0.2829160690307617
1761315731759743200,2.0627431640625,-0.29265445470809937,-0.44089096784591675,-0.45533376932144165
1761315731769725200,2.07272509765625,-0.372290700674057,-0.5689586400985718,-0.6366884112358093
1761315731779708200,2.082708251953125,-0.46217021346092224,-0.6277554035186768,-0.7486321330070496
1761315731789690400,2.0926904296875,-0.5482129454612732,-0.6015238165855408,-0.7660664916038513
1761315731799672000,2.102672119140625,-0.6094728112220764,-0.5265712738037109,-0.6950642466545105
1761315731809655300,2.1126552734375,-0.6181294322013855,-0.4009803235530853,-0.5483016967773438
1761315731819637200,2.12263720703125,-0.5633840560913086,-0.2630450129508972,-0.34756535291671753
1761315731829619200,2.132619140625,-0.4577593207359314,-0.1271740198135376,-0.1195194199681282
1761315731839601200,2.14260107421875,-0.32768380641937256,-0.017330413684248924,0.1192844957113266
1761315731849584000,2.152584228515625,-0.19828534126281738,0.025083621963858604,0.33266201615333557
1761315731859566300,2.16256640625,-0.09640628099441528,0.0198068767786026,0.5205609202384949
1761315731869548000,2.172548095703125,-0.023913171142339706,0.016759954392910004,0.6881358027458191
1761315731879531300,2.18253125,0.018463430926203728,0.020007936283946037,0.826524019241333
1761315731889513200,2.19251318359375,0.039495743811130524,0.01965959556400776,0.9342432618141174
1761315731899495200,2.2024951171875,0.036528579890728,0.01247125118970871,1.009022831916809
1761315731909477000,2.21247705078125,0.017915749922394753,-0.006097639445215464,1.050785779953003
1761315731919460400,2.22246044921875,-0.009655063040554523,-0.06448173522949219,1.0578032732009888
1761315731929442000,2.232442138671875,-0.04746795818209648,-0.16553005576133728,1.0305417776107788
1761315731939424300,2.24242431640625,-0.10820969939231873,-0.3036923408508301,0.9770565032958984
1761315731949407000,2.252406982421875,-0.19115279614925385,-0.46587327122688293,0.9210824370384216
1761315731959389200,2.26238916015625,-0.277372807264328,-0.5728940367698669,0.8935112357139587
1761315731969371100,2.27237109375,-0.3701288402080536,-0.6142092347145081,0.8910829424858093
1761315731979353000,2.28235302734375,-0.4859048128128052,-0.6178320050239563,0.8965789675712585
1761315731989336300,2.29233642578125,-0.6234400272369385,-0.597230851650238,0.8858603239059448
1761315731999318000,2.302318115234375,-0.760693371295929,-0.5734391212463379,0.8281792402267456
1761315732009300200,2.31230029296875,-0.8827418088912964,-0.5280277132987976,0.7337867021560669
1761315732019282200,2.3222822265625,-0.9717206358909607,-0.4379022717475891,0.6348032355308533
1761315732029265200,2.33226513671875,-1.0367083549499512,-0.3175683915615082,0.5384372472763062
1761315732039247400,2.342247314453125,-1.0845818519592285,-0.19432714581489563,0.4441295862197876
1761315732049229000,2.35222900390625,-1.0981910228729248,-0.08010896295309067,0.3604575991630554
1761315732059212300,2.36221240234375,-1.0850961208343506,0.024332188069820404,0.2795131802558899
1761315732069194000,2.372194091796875,-1.0594866275787354,0.0978974848985672,0.20946833491325378
1761315732079176200,2.38217626953125,-1.0253359079360962,0.13519367575645447,0.13757836818695068
1761315732089158400,2.392158447265625,-0.9953761100769043,0.14153705537319183,0.07008561491966248
1761315732099141000,2.40214111328125,-0.9727476835250854,0.1292819380760193,-0.0014744603540748358
1761315732109123300,2.412123291015625,-0.9545223116874695,0.09877382963895798,-0.06961356848478317
1761315732119105000,2.42210498046875,-0.9421550035476685,0.06098785996437073,-0.15419277548789978
1761315732129088300,2.432088134765625,-0.9371874332427979,0.002048643771559,-0.24412506818771362
1761315732139070200,2.4420703125,-0.9358587861061096,-0.06593720614910126,-0.33170413970947266
1761315732149052200,2.45205224609375,-0.9431960582733154,-0.1108679324388504,-0.41388288140296936
1761315732159034400,2.462034423828125,-0.9605759978294373,-0.1554562896490097,-0.4848652780056
1761315732169016600,2.4720166015625,-0.9770534634590149,-0.1861492246389389,-0.5547136068344116
1761315732178998500,2.48199853515625,-0.9810307025909424,-0.19619321823120117,-0.6138750314712524
1761315732188980500,2.49198046875,-0.9655433297157288,-0.17041781544685364,-0.6543468236923218
1761315732198963700,2.501963623046875,-0.9329990744590759,-0.12714241445064545,-0.6793649196624756
1761315732208945400,2.5119453125,-0.8909578919410706,-0.10656336694955826,-0.6874268054962158
1761315732218927600,2.521927734375,-0.8494400382041931,-0.10546627640724182,-0.6817461252212524
1761315732228909600,2.53190966796875,-0.8162258863449097,-0.10511234402656555,-0.6538997888565063
1761315732238892500,2.541892578125,-0.7833236455917358,-0.10257283598184586,-0.6107127666473389
1761315732248874800,2.551874755859375,-0.7504516839981079,-0.11108669638633728,-0.548761248588562
1761315732258856400,2.5618564453125,-0.7004799842834473,-0.11924345046281815,-0.4833487868309021
1761315732268839700,2.571839599609375,-0.6419807076454163,-0.1232544332742691,-0.40846285223960876
1761315732278821400,2.5818212890625,-0.5845757722854614,-0.11842603236436844,-0.3306199312210083
1761315732288803600,2.591803466796875,-0.5333647727966309,-0.09022262692451477,-0.2495623528957367
1761315732298785800,2.601785888671875,-0.48238009214401245,-0.01703675650060177,-0.16041046380996704
1761315732308768500,2.6117685546875,-0.43195927143096924,0.08019977807998657,-0.07493097335100174
1761315732318750700,2.621750732421875,-0.3879058063030243,0.1642741709947586,-0.005750041455030441
1761315732328732400,2.631732421875,-0.3485757112503052,0.201357901096344,0.042066216468811035
1761315732338714600,2.641714599609375,-0.32424771785736084,0.21953795850276947,0.07003713399171829
1761315732348697600,2.651697509765625,-0.3129420876502991,0.22290393710136414,0.08373430371284485
1761315732358679600,2.661679443359375,-0.30852511525154114,0.20351073145866394,0.08020095527172089
1761315732368661800,2.671661865234375,-0.3084430992603302,0.18530243635177612,0.07666321843862534
1761315732378644500,2.68164453125,-0.31779614090919495,0.1502750813961029,0.06790322065353394
1761315732388626700,2.691626708984375,-0.33057135343551636,0.12933383882045746,0.04439549893140793
1761315732398608600,2.701608642578125,-0.3356490731239319,0.1321943700313568,0.02249537967145443
1761315732408590600,2.711590576171875,-0.33718010783195496,0.15690718591213226,-0.02028191089630127
1761315732418573600,2.721573486328125,-0.3353729844093323,0.1881035566329956,-0.05907171219587326
1761315732428555500,2.731555419921875,-0.32671689987182617,0.2301817685365677,-0.09199424088001251
1761315732438537500,2.741537353515625,-0.3108377754688263,0.27585652470588684,-0.11433467268943787
1761315732448520700,2.751520751953125,-0.29831480979919434,0.30853429436683655,-0.12890934944152832
1761315732458502700,2.761502685546875,-0.27697116136550903,0.3046705722808838,-0.13243085145950317
1761315732468484600,2.771484619140625,-0.25850242376327515,0.28481459617614746,-0.11639409512281418
1761315732478466600,2.781466552734375,-0.21737882494926453,0.277142733335495,-0.0801132544875145
1761315732488449500,2.791449462890625,-0.16642136871814728,0.313602477312088,-0.03152920678257942
1761315732498431700,2.801431640625,-0.07577094435691833,0.42241814732551575,0.0355202816426754
1761315732508413400,2.811413330078125,0.03119305521249771,0.5085066556930542,0.11696667224168777
1761315732518396700,2.821396728515625,0.12100405991077423,0.5128441452980042,0.16663983464241028
1761315732528378400,2.83137841796875,0.1780388504266739,0.4406770169734955,0.16378384828567505
1761315732538360600,2.841360595703125,0.20284010469913483,0.3205866813659668,0.11370780318975449
1761315732548342500,2.851342529296875,0.20571951568126678,0.18893012404441833,0.03286275640130043
1761315732558325500,2.861325439453125,0.1942385882139206,0.07835154980421066,-0.05382436141371727
1761315732568307700,2.8713076171875,0.1657896339893341,0.016936922445893288,-0.1010291576385498
1761315732578289400,2.881289306640625,0.14603908360004425,0.05669965222477913,-0.10010163486003876
1761315732588272600,2.891272705078125,0.13989703357219696,0.1592601090669632,-0.06224106624722481
1761315732598254600,2.901254638671875,0.14820758998394012,0.31004589796066284,-0.013321665115654469
1761315732608236500,2.911236572265625,0.16754986345767975,0.4733749032020569,0.04014821723103523
1761315732618218800,2.92121875,0.1937568485736847,0.6161125898361206,0.10338369011878967
1761315732628201500,2.931201416015625,0.2207873910665512,0.7137467265129089,0.17034009099006653
1761315732638183700,2.94118359375,0.2555009126663208,0.7497637271881104,0.23750746250152588
1761315732648165400,2.951165283203125,0.29713118076324463,0.7329421043395996,0.30507639050483704
1761315732658148600,2.961148681640625,0.3487895727157593,0.7003875374794006,0.3825242519378662
1761315732668130600,2.971130615234375,0.40570905804634094,0.6657112836837769,0.48436060547828674
1761315732678112500,2.981112548828125,0.46938249468803406,0.6379460692405701,0.595967710018158
1761315732688094700,2.9910947265625,0.5239576101303101,0.6096299886703491,0.696918785572052
1761315732698077700,3.00107763671875,0.5700387954711914,0.5603941082954407,0.7665364742279053
1761315732708059600,3.0110595703125,0.5929878354072571,0.4803650379180908,0.7921550273895264
1761315732718041600,3.02104150390625,0.5893089175224304,0.3762032687664032,0.7646965980529785
1761315732728023600,3.0310234375,0.5523684620857239,0.25653547048568726,0.6842550039291382
1761315732738006500,3.041006591796875,0.4818429946899414,0.11639448255300522,0.5599011778831482
1761315732747988500,3.050988525390625,0.3991702198982239,-0.008475810289382935,0.4014182686805725
1761315732757970700,3.060970703125,0.2835535407066345,-0.09339704364538193,0.22671887278556824
1761315732767953700,3.07095361328125,0.16526606678962708,-0.13463635742664337,0.04858164116740227
1761315732777935600,3.080935546875,0.05509725213050842,-0.1408003717660904,-0.11857043951749802
1761315732787917600,3.09091748046875,-0.029930289834737778,-0.09863694757223129,-0.26395320892333984
1761315732797899500,3.1008994140625,-0.10116080939769745,-0.05194440856575966,-0.3810649514198303
1761315732807882500,3.110882568359375,-0.15694338083267212,-0.02741296775639057,-0.48644888401031494
1761315732817864700,3.12086474609375,-0.20124268531799316,-0.029587917029857635,-0.5597179532051086
1761315732827846400,3.130846435546875,-0.2246185839176178,-0.043433692306280136,-0.5998457074165344
1761315732837829600,3.14082958984375,-0.21330513060092926,-0.04983873665332794,-0.6031045913696289
1761315732847811600,3.1508115234375,-0.16679781675338745,-0.02775287628173828,-0.5696190595626831
1761315732857793500,3.16079345703125,-0.09641959518194199,0.025132665410637856,-0.5120283961296082
1761315732867775700,3.170775634765625,0.0008353187004104257,0.12066851556301117,-0.43551066517829895
1761315732877758500,3.180758544921875,0.10853681713342667,0.22804178297519684,-0.34602195024490356
1761315732887740700,3.19074072265625,0.20164573192596436,0.3045429587364197,-0.25665584206581116
1761315732897722400,3.200722412109375,0.26865699887275696,0.3313513398170471,-0.17651741206645966
1761315732907705600,3.21070556640625,0.3036157786846161,0.2926878333091736,-0.11997716128826141
1761315732917687600,3.2206875,0.3270166516304016,0.22153814136981964,-0.08332429826259613
1761315732927669500,3.23066943359375,0.3325115442276001,0.13629913330078125,-0.0678340271115303
1761315732937651700,3.240651611328125,0.331920325756073,0.06320597231388092,-0.061123572289943695
1761315732947634400,3.250634521484375,0.3276267945766449,0.015617147088050842,-0.06210441142320633
1761315732957616600,3.26061669921875,0.3243505358695984,-0.00410285172984004,-0.06759706139564514
1761315732967598600,3.2705986328125,0.31837040185928345,-0.02181127481162548,-0.0752057135105133
1761315732977580500,3.28058056640625,0.3110238313674927,-0.03352590650320053,-0.08049903064966202
1761315732987563500,3.2905634765625,0.3015957176685333,-0.046906158328056335,-0.07804732769727707
1761315732997545500,3.30054541015625,0.2777642011642456,-0.06525898724794388,-0.07552613317966461
1761315733007527700,3.310527587890625,0.24795624613761902,-0.08855738490819931,-0.06453633308410645
1761315733017510700,3.3205107421875,0.2076558619737625,-0.10258050262928009,-0.049801528453826904
1761315733027492600,3.33049267578125,0.1707252711057663,-0.11311836540699005,-0.03753926604986191
1761315733037474600,3.340474609375,0.13268841803073883,-0.1356065422296524,-0.02698182687163353
1761315733047456500,3.35045654296875,0.0998188778758049,-0.1766922026872635,-0.02511788159608841
1761315733057439500,3.360439453125,0.07609929889440536,-0.2220679074525833,-0.019432608038187027
1761315733067421700,3.370421630859375,0.062137946486473083,-0.25466448068618774,-0.010884126648306847
1761315733077403600,3.380403564453125,0.049383241683244705,-0.27169403433799744,-0.0046681491658091545
1761315733087386600,3.39038671875,0.026415344327688217,-0.28051257133483887,-0.0050870636478066444
1761315733097368600,3.40036865234375,0.006253266707062721,-0.27554500102996826,-0.0008507848251610994
1761315733107350500,3.4103505859375,-0.010865265503525734,-0.2682996094226837,0.003432110883295536
1761315733117332500,3.42033251953125,-0.0220462828874588,-0.2643948793411255,-0.0041499086655676365
1761315733127315500,3.4303154296875,-0.03111434541642666,-0.26647454500198364,-0.01691177673637867
1761315733137297700,3.440297607421875,-0.03489909693598747,-0.2837446331977844,-0.044458404183387756
1761315733147279600,3.450279541015625,-0.0483429990708828,-0.31706371903419495,-0.0823807567358017
1761315733157261600,3.460261474609375,-0.0734729915857315,-0.35500600934028625,-0.13230282068252563
1761315733167245300,3.470245361328125,-0.10487565398216248,-0.3783472776412964,-0.18780815601348877
1761315733177227300,3.480227294921875,-0.13634367287158966,-0.4013114869594574,-0.2426997572183609
1761315733187209500,3.49020947265625,-0.1675093173980713,-0.4334116280078888,-0.29976382851600647
1761315733197192400,3.5001923828125,-0.19209815561771393,-0.46664801239967346,-0.36579036712646484
1761315733207174400,3.51017431640625,-0.19914834201335907,-0.4780505895614624,-0.4198288321495056
1761315733217156400,3.52015625,-0.1813688576221466,-0.47464168071746826,-0.460251122713089
1761315733227138300,3.53013818359375,-0.14811688661575317,-0.4713132679462433,-0.4844461977481842
1761315733237121300,3.540121337890625,-0.10692595690488815,-0.4611451327800751,-0.48200854659080505
1761315733247103500,3.550103515625,-0.07132455706596375,-0.46693167090415955,-0.4749178886413574
1761315733257085400,3.56008544921875,-0.050620656460523605,-0.5030019879341125,-0.4604071378707886
1761315733267068400,3.570068359375,-0.04632497578859329,-0.5517839193344116,-0.43777453899383545
1761315733277050400,3.58005029296875,-0.048424988985061646,-0.6112414598464966,-0.4038957953453064
1761315733287032300,3.5900322265625,-0.05953489616513252,-0.667324423789978,-0.35195669531822205
1761315733297014500,3.6000146484375,-0.062551349401474,-0.6638451814651489,-0.2719075381755829
1761315733306997200,3.609997314453125,-0.05076713114976883,-0.5667471289634705,-0.17501720786094666
1761315733316979500,3.6199794921875,-0.008146977983415127,-0.3957585096359253,-0.07508347183465958
1761315733326961200,3.629961181640625,0.04066983237862587,-0.27682173252105713,-0.004645523149520159
1761315733336944400,3.6399443359375,0.05870627984404564,-0.2970356047153473,-0.007556229829788208
1761315733346926300,3.64992626953125,0.029459713026881218,-0.40738049149513245,-0.070902980864048
1761315733356908300,3.659908203125,-0.018026361241936684,-0.5080015659332275,-0.15182235836982727
1761315733366890500,3.669890380859375,-0.05358115956187248,-0.5715970396995544,-0.21562877297401428
1761315733376873200,3.679873291015625,-0.07578708231449127,-0.5610579252243042,-0.22770138084888458
1761315733386855400,3.68985546875,-0.07205040007829666,-0.48498284816741943,-0.18076397478580475
1761315733396837400,3.69983740234375,-0.05037987232208252,-0.3647141754627228,-0.08221206068992615
1761315733406819300,3.7098193359375,-0.01674388162791729,-0.25395169854164124,0.03527755290269852
1761315733416802300,3.71980224609375,0.018261397257447243,-0.17170923948287964,0.1472640335559845
1761315733426784300,3.7297841796875,0.04350843280553818,-0.12661020457744598,0.23239943385124207
1761315733436766500,3.739766357421875,0.07068118453025818,-0.12166225910186768,0.2866632640361786
1761315733446749400,3.74974951171875,0.09492313861846924,-0.1339237242937088,0.3046976625919342
1761315733456731400,3.7597314453125,0.1043190062046051,-0.13941310346126556,0.29713910818099976
1761315733466713300,3.76971337890625,0.08472932130098343,-0.15390735864639282,0.26391005516052246
1761315733476695300,3.7796953125,0.05631605535745621,-0.19818367063999176,0.20757287740707397
1761315733486678300,3.78967822265625,0.007335199974477291,-0.2408730834722519,0.12037379294633865
1761315733496660500,3.799660400390625,-0.04293061047792435,-0.2406851053237915,0.03381992131471634
1761315733506642400,3.809642333984375,-0.07253403961658478,-0.19528938829898834,-0.02670467644929886
1761315733516625400,3.81962548828125,-0.06901391595602036,-0.11231717467308044,-0.04115403816103935
1761315733526607400,3.829607421875,-0.0338498055934906,-0.0031099969055503607,-0.002637275028973818
1761315733536589300,3.83958935546875,0.02826562337577343,0.10116603970527649,0.08027149736881256
1761315733546571300,3.8495712890625,0.09997150301933289,0.183633491396904,0.1878938376903534
1761315733556554200,3.85955419921875,0.17613005638122559,0.21470630168914795,0.3148476183414459
1761315733566536400,3.869536376953125,0.2320210188627243,0.21161170303821564,0.439320832490921
1761315733576518400,3.879518310546875,0.25346577167510986,0.19410552084445953,0.5559959411621094
1761315733586500400,3.889500244140625,0.23669610917568207,0.14620403945446014,0.6402053833007812
1761315733596483600,3.899483642578125,0.19355008006095886,0.0716090276837349,0.6943313479423523
1761315733606465300,3.90946533203125,0.13619837164878845,-0.009393944405019283,0.719539225101471
1761315733616447500,3.919447509765625,0.07122083008289337,-0.08041054010391235,0.7172208428382874
1761315733626430200,3.92943017578125,0.015231862664222717,-0.11170108616352081,0.6858615875244141
1761315733636412400,3.939412353515625,-0.03437747061252594,-0.12523792684078217,0.6304554343223572
1761315733646394400,3.949394287109375,-0.07254163175821304,-0.12691332399845123,0.5435082912445068
1761315733656376300,3.959376220703125,-0.10444358736276627,-0.11774643510580063,0.43481260538101196
1761315733666359600,3.969359619140625,-0.1433667540550232,-0.10236694663763046,0.30977052450180054
1761315733676341200,3.97934130859375,-0.1844295859336853,-0.09040796011686325,0.17318885028362274
1761315733686323500,3.989323486328125,-0.23834846913814545,-0.07874997705221176,0.038048338145017624
1761315733696306400,3.999306396484375,-0.28272509574890137,-0.05423302203416824,-0.06776756793260574
1761315733706288400,4.009288330078125,-0.3207955062389374,-0.013403569348156452,-0.14068889617919922
1761315733716270300,4.019270263671875,-0.3367155194282532,0.047331128269433975,-0.16847123205661774
1761315733726252300,4.029252197265625,-0.3415060043334961,0.13531503081321716,-0.16145725548267365
1761315733736235300,4.0392353515625,-0.33515751361846924,0.2274254858493805,-0.13404877483844757
1761315733746217200,4.04921728515625,-0.31161677837371826,0.30947187542915344,-0.104018434882164
1761315733756199400,4.059199462890625,-0.2759053409099579,0.3683636784553528,-0.07367134094238281
1761315733766181400,4.069181396484375,-0.2341853380203247,0.3875941038131714,-0.05499166622757912
1761315733776164400,4.079164306640625,-0.20041407644748688,0.39591294527053833,-0.04478534683585167
1761315733786146300,4.089146240234375,-0.16978053748607635,0.39025771617889404,-0.044516634196043015
1761315733796128300,4.099128173828125,-0.14815448224544525,0.3711826801300049,-0.06260856240987778
1761315733806111200,4.109111328125,-0.14137327671051025,0.33163127303123474,-0.10545909404754639
1761315733816093400,4.119093505859375,-0.14549492299556732,0.2940657436847687,-0.16983665525913239
1761315733826075400,4.129075439453125,-0.15084654092788696,0.2442355901002884,-0.24621345102787018
1761315733836057300,4.139057373046875,-0.159900963306427,0.18287532031536102,-0.32653236389160156
1761315733846040300,4.149040283203125,-0.16616526246070862,0.11892802268266678,-0.39847394824028015
1761315733856022300,4.159022216796875,-0.167814701795578,0.06412538886070251,-0.4492573142051697
1761315733866004500,4.16900439453125,-0.166134774684906,0.00853243563324213,-0.4725828766822815
1761315733875987200,4.1789873046875,-0.16539599001407623,-0.013288626447319984,-0.4702909588813782
1761315733885969400,4.188969482421875,-0.15695910155773163,-0.0020066776778548956,-0.43840575218200684
1761315733895951400,4.198951416015625,-0.14272427558898926,0.017105285078287125,-0.3924124836921692
1761315733905933300,4.208933349609375,-0.12980501353740692,0.028788037598133087,-0.34889107942581177
1761315733915916500,4.21891650390625,-0.11306706815958023,0.047766923904418945,-0.29319989681243896
1761315733925898200,4.228898193359375,-0.09055723249912262,0.07973630726337433,-0.2369784414768219
1761315733935880400,4.23888037109375,-0.05803750827908516,0.11363478004932404,-0.18384741246700287
1761315733945862400,4.2488623046875,-0.018467731773853302,0.14117160439491272,-0.13221697509288788
1761315733955845400,4.258845458984375,0.02491850219666958,0.16630315780639648,-0.07565507292747498
1761315733965827600,4.26882763671875,0.06751123070716858,0.17545802891254425,-0.013167724013328552
1761315733975809300,4.278809326171875,0.10426237434148788,0.17953254282474518,0.04463501647114754
1761315733985792500,4.28879248046875,0.13572441041469574,0.18211820721626282,0.10001412034034729
1761315733995774200,4.298774169921875,0.14989617466926575,0.17270246148109436,0.14671750366687775
1761315734005756400,4.30875634765625,0.15654130280017853,0.17279142141342163,0.18050634860992432
1761315734015738400,4.31873828125,0.15885306894779205,0.17558199167251587,0.2054658681154251
1761315734025721300,4.328721435546875,0.1589907556772232,0.16836775839328766,0.212164506316185
1761315734035703300,4.338703369140625,0.15479160845279694,0.15433020889759064,0.2054949253797531
1761315734045685200,4.348685302734375,0.14494696259498596,0.1457870453596115,0.19016337394714355
1761315734055668500,4.35866845703125,0.1323564052581787,0.14669226109981537,0.18105825781822205
1761315734065650400,4.368650390625,0.1273813396692276,0.1587103009223938,0.17888164520263672
1761315734075632400,4.37863232421875,0.13149091601371765,0.15731564164161682,0.16977140307426453
1761315734085614300,4.3886142578125,0.13198360800743103,0.14995039999485016,0.15441188216209412
1761315734095597300,4.398597412109375,0.12930427491664886,0.15404507517814636,0.1338222771883011
1761315734105579300,4.408579345703125,0.11266297101974487,0.17199479043483734,0.1115097776055336
1761315734115561200,4.418561279296875,0.08347494155168533,0.20331433415412903,0.07564987987279892
1761315734125543400,4.42854345703125,0.045769914984703064,0.23233667016029358,0.0338614247739315
1761315734135526400,4.4385263671875,0.012369748204946518,0.2603743374347687,-0.006153138820081949
1761315734145508400,4.44850830078125,0.0005298673640936613,0.2949190139770508,-0.03523113206028938
1761315734155490300,4.458490234375,0.005069302394986153,0.3275032639503479,-0.0478554405272007
1761315734165473500,4.4684736328125,0.029999950900673866,0.3675566613674164,-0.047038380056619644
1761315734175455000,4.478455078125,0.05852446332573891,0.40507426857948303,-0.017133085057139397
1761315734185437000,4.48843701171875,0.1005677804350853,0.44420596957206726,0.021443068981170654
1761315734195419000,4.4984189453125,0.13869225978851318,0.47532832622528076,0.07052640616893768
1761315734205401900,4.50840185546875,0.18111641705036163,0.5378342866897583,0.11469253897666931
1761315734215384000,4.518384033203125,0.24031959474086761,0.6609767079353333,0.16006536781787872
1761315734225365800,4.52836572265625,0.3148212432861328,0.7377793192863464,0.1864948570728302
1761315734235349000,4.538348876953125,0.38906601071357727,0.6889404654502869,0.18171945214271545
1761315734245331000,4.5483310546875,0.4175991117954254,0.5397403836250305,0.14588315784931183
1761315734255313000,4.55831298828125,0.3741118609905243,0.38094601035118103,0.0912017896771431
1761315734265295000,4.568295166015625,0.2723785638809204,0.2351296842098236,0.02233404666185379
1761315734275277800,4.57827783203125,0.12082898616790771,0.0978722795844078,-0.04746626317501068
1761315734285260000,4.588260009765625,-0.03304579481482506,-0.02570425532758236,-0.10206586122512817
1761315734295241700,4.59824169921875,-0.15159784257411957,-0.08389275521039963,-0.11479375511407852
1761315734305224000,4.608223876953125,-0.22230343520641327,-0.06738036125898361,-0.07409665733575821
1761315734315207000,4.61820703125,-0.2563033401966095,-0.02208787202835083,-0.0013147713616490364
1761315734325188900,4.62818896484375,-0.24184903502464294,0.03609847277402878,0.08994856476783752
1761315734335171000,4.638171142578125,-0.15629005432128906,0.12355245649814606,0.20696088671684265
1761315734345154000,4.648154052734375,-0.01758783683180809,0.25928443670272827,0.3434641659259796
1761315734355136000,4.658135986328125,0.1435251086950302,0.40635019540786743,0.4838104546070099
1761315734365118000,4.668117919921875,0.29475563764572144,0.5203012228012085,0.6023650169372559
1761315734375100000,4.678099853515625,0.41068291664123535,0.5922855138778687,0.6920547485351562
1761315734385083000,4.688082763671875,0.48887625336647034,0.6244274973869324,0.7579775452613831
1761315734395064800,4.69806494140625,0.5281050205230713,0.6327269673347473,0.7918294072151184
1761315734405047000,4.708047119140625,0.5426371097564697,0.6279290318489075,0.8075394034385681
1761315734415029000,4.718029052734375,0.5310100317001343,0.6295627951622009,0.8065289258956909
1761315734425012000,4.728011962890625,0.5026097893714905,0.6249006390571594,0.7841357588768005
1761315734434994000,4.737993896484375,0.4786294102668762,0.6268287301063538,0.7371337413787842
1761315734444975900,4.747975830078125,0.44119760394096375,0.5907977819442749,0.6401744484901428
1761315734454958800,4.757958740234375,0.3911195695400238,0.5163350701332092,0.49978551268577576
1761315734464941000,4.767941162109375,0.33275240659713745,0.41848039627075195,0.32208237051963806
1761315734474923000,4.777923095703125,0.27179503440856934,0.29781273007392883,0.11796959489583969
1761315734484905000,4.787905029296875,0.20058104395866394,0.16162267327308655,-0.09296847879886627
1761315734494888000,4.797887939453125,0.12384522706270218,0.037625983357429504,-0.2806430160999298
1761315734504870000,4.807869873046875,0.06329773366451263,-0.04853153973817825,-0.43234387040138245
1761315734514852000,4.81785205078125,0.025471242144703865,-0.11285100877285004,-0.5488811731338501
1761315734524833800,4.827833740234375,0.004110826179385185,-0.1667744219303131,-0.6254183053970337
1761315734534817000,4.837817138671875,-0.0011932342313230038,-0.20117664337158203,-0.6581297516822815
1761315734544799000,4.847799072265625,0.00007656088564544916,-0.24433556199073792,-0.6708189249038696
1761315734554781000,4.857781005859375,0.01592158153653145,-0.3571155071258545,-0.6940978169441223
1761315734564764000,4.867763916015625,0.06663695722818375,-0.5191371440887451,-0.7297646999359131
1761315734574745900,4.877745849609375,0.15643207728862762,-0.6696661710739136,-0.747707188129425
1761315734584728000,4.88772802734375,0.242257222533226,-0.7489436864852905,-0.7267494201660156
1761315734594709800,4.897709716796875,0.32184913754463196,-0.7434248924255371,-0.6490234732627869
1761315734604693000,4.90769287109375,0.40075886249542236,-0.6538100242614746,-0.5168507695198059
1761315734614675000,4.917675048828125,0.4733673632144928,-0.4898954927921295,-0.35097041726112366
1761315734624657000,4.927656982421875,0.5233780741691589,-0.2463664561510086,-0.1662336140871048
1761315734634640000,4.937639892578125,0.5334902405738831,0.014332561753690243,-0.006951255723834038
1761315734644621800,4.947621826171875,0.5206575393676758,0.233950674533844,0.07887736707925797
1761315734654604000,4.95760400390625,0.4923802614212036,0.3691875636577606,0.07562350481748581
1761315734664585700,4.967585693359375,0.4742065966129303,0.4256604313850403,0.0033722110092639923
1761315734674569000,4.97756884765625,0.4462636113166809,0.43632784485816956,-0.12089264392852783
1761315734684551000,4.987551025390625,0.4181414246559143,0.41611233353614807,-0.2554749548435211
1761315734694532900,4.997532958984375,0.374508261680603,0.33514323830604553,-0.393724262714386
1761315734704515000,5.00751513671875,0.3194252848625183,0.22200098633766174,-0.5191716551780701
1761315734714498000,5.017498046875,0.25588199496269226,0.08086322993040085,-0.6195126175880432
1761315734724480000,5.02747998046875,0.1910925954580307,-0.04548565670847893,-0.6708929538726807
1761315734734462000,5.0374619140625,0.13626864552497864,-0.1561974287033081,-0.6712827682495117
1761315734744445000,5.04744482421875,0.09223700314760208,-0.25581562519073486,-0.6302887201309204
1761315734754427000,5.057427001953125,0.0683031976222992,-0.32504647970199585,-0.5621277093887329
1761315734764408800,5.067408935546875,0.06508396565914154,-0.3585783541202545,-0.4839455783367157
1761315734774391000,5.07739111328125,0.08023222535848618,-0.3825887143611908,-0.401999831199646
1761315734784374000,5.0873740234375,0.10174737125635147,-0.4004247188568115,-0.33366844058036804
1761315734794356000,5.09735595703125,0.12936562299728394,-0.4195862114429474,-0.27634862065315247
1761315734804338000,5.107337890625,0.15714026987552643,-0.40814313292503357,-0.22118018567562103
1761315734814319900,5.11731982421875,0.17944620549678802,-0.3783085346221924,-0.17608954012393951
1761315734824302800,5.127302734375,0.20718783140182495,-0.3301737606525421,-0.13147734105587006
1761315734834285000,5.13728515625,0.22446705400943756,-0.26647794246673584,-0.08515823632478714
1761315734844267000,5.14726708984375,0.2369849681854248,-0.21668776869773865,-0.03552038222551346
1761315734854250000,5.15725,0.23879587650299072,-0.17903660237789154,0.015277840197086334
1761315734864232000,5.16723193359375,0.2334040403366089,-0.14104661345481873,0.06467308849096298
1761315734874214000,5.1772138671875,0.22352679073810577,-0.11866071820259094,0.1098140999674797
1761315734884196000,5.187196044921875,0.20601330697536469,-0.11699144542217255,0.14160585403442383
1761315734894178800,5.1971787109375,0.18431776762008667,-0.14083082973957062,0.15949571132659912
1761315734904161000,5.2071611328125,0.15666429698467255,-0.1985362023115158,0.14986173808574677
1761315734914142700,5.217142822265625,0.11833593994379044,-0.2515774071216583,0.12059375643730164
1761315734924125000,5.227125,0.07959520071744919,-0.32127100229263306,0.08236861228942871
1761315734934108000,5.23710791015625,0.04053925350308418,-0.3822901248931885,0.05065474286675453
1761315734944089900,5.24708984375,-0.002582382410764694,-0.4165186583995819,0.0345601923763752
1761315734954072000,5.257072021484375,-0.04533988609910011,-0.437178373336792,0.037751466035842896
1761315734964055000,5.267054931640625,-0.08838722109794617,-0.45272964239120483,0.05287502706050873
1761315734974037000,5.277037109375,-0.1290464848279953,-0.4635855555534363,0.07086807489395142
1761315734984019000,5.28701904296875,-0.17074573040008545,-0.45055603981018066,0.08381156623363495
1761315734994001000,5.2970009765625,-0.2044561207294464,-0.3970482349395752,0.10181573778390884
1761315735003984000,5.30698388671875,-0.2064388543367386,-0.26485878229141235,0.12303794175386429
1761315735013965800,5.3169658203125,-0.17227791249752045,-0.09919077157974243,0.139046773314476
1761315735023948000,5.326947998046875,-0.1275668889284134,0.012543749064207077,0.12126217037439346
1761315735033930000,5.336929931640625,-0.10174739360809326,0.012428747490048409,0.05481685698032379
1761315735043913000,5.346912841796875,-0.10038331896066666,-0.0684322789311409,-0.05238283425569534
1761315735053895000,5.35689501953125,-0.12765927612781525,-0.22454415261745453,-0.17051896452903748
1761315735063876900,5.366876953125,-0.16308437287807465,-0.4354814291000366,-0.2899550795555115
1761315735073859800,5.37685986328125,-0.21649590134620667,-0.6620170474052429,-0.36342135071754456
1761315735083842000,5.386842041015625,-0.2761904001235962,-0.8008686900138855,-0.38567498326301575
1761315735093824000,5.396823974609375,-0.3133247196674347,-0.8372983932495117,-0.3577630817890167
1761315735103806000,5.406805908203125,-0.31809473037719727,-0.7645179033279419,-0.29400089383125305
1761315735113789000,5.416788818359375,-0.29101821780204773,-0.5781429409980774,-0.19769589602947235
1761315735123771000,5.42677099609375,-0.23169603943824768,-0.3315750062465668,-0.0869842991232872
1761315735133753000,5.436753173828125,-0.13052871823310852,-0.07148180902004242,0.013284135609865189
1761315735143735000,5.446735107421875,-0.014988811686635017,0.12502938508987427,0.08586060255765915
1761315735153718000,5.456718017578125,0.09594070166349411,0.22169029712677002,0.12754514813423157
1761315735163700000,5.466699951171875,0.18157118558883667,0.24403288960456848,0.1578388661146164
1761315735173682000,5.476681884765625,0.24329973757266998,0.22578155994415283,0.1915433555841446
1761315735183665200,5.4866650390625,0.3078864514827728,0.18655772507190704,0.25391271710395813
1761315735193646800,5.496646728515625,0.3736869692802429,0.14247047901153564,0.32754379510879517
1761315735203629000,5.506629150390625,0.43917837738990784,0.08922004699707031,0.41593170166015625
1761315735213611000,5.516611083984375,0.4959617555141449,0.03579050302505493,0.5076665878295898
1761315735223594000,5.526593994140625,0.5546162724494934,0.00424828939139843,0.5974841117858887
1761315735233576000,5.536575927734375,0.6096639037132263,-0.0001739966683089733,0.6768950819969177
1761315735243558000,5.546557861328125,0.6568524837493896,0.0036511016078293324,0.7399337291717529
1761315735253540000,5.5565400390625,0.6880103349685669,0.0012911446392536163,0.779122531414032
1761315735263523000,5.566523193359375,0.7101516127586365,-0.01460526417940855,0.7963106036186218
1761315735273505000,5.576505126953125,0.7069154977798462,-0.04486945644021034,0.7947837710380554
1761315735283487000,5.586487060546875,0.6746694445610046,-0.07761675119400024,0.7695529460906982
1761315735293469000,5.596468994140625,0.6193675994873047,-0.0991477444767952,0.7176696062088013
1761315735303452000,5.606451904296875,0.5551885962486267,-0.09199848771095276,0.6464508175849915
1761315735313433900,5.616433837890625,0.48666632175445557,-0.0733243077993393,0.5680084228515625
1761315735323416000,5.626416015625,0.4269990026950836,-0.045430634170770645,0.47214338183403015
1761315735333399000,5.63639892578125,0.37049299478530884,0.009602493606507778,0.3858362138271332
1761315735343381000,5.646381103515625,0.33050480484962463,0.06964878737926483,0.3017341196537018
1761315735353363000,5.656363037109375,0.3144451379776001,0.144596666097641,0.22731471061706543
1761315735363345000,5.666344970703125,0.31317293643951416,0.22755412757396698,0.1718170940876007
1761315735373328000,5.676327880859375,0.32968589663505554,0.30581578612327576,0.12829843163490295
1761315735383310000,5.68631005859375,0.35470524430274963,0.37190157175064087,0.09673917293548584
1761315735393292000,5.6962919921875,0.38438835740089417,0.41504234075546265,0.08262109756469727
1761315735403274000,5.70627392578125,0.41317233443260193,0.4395271837711334,0.07492110133171082
1761315735413257000,5.716257080078125,0.4406749904155731,0.43645399808883667,0.06393630057573318
1761315735423239000,5.726239013671875,0.4539596140384674,0.4158499240875244,0.039810191839933395
1761315735433221000,5.73622119140625,0.46013569831848145,0.39268314838409424,0.006921984255313873
1761315735443203000,5.746203125,0.46384522318840027,0.38523057103157043,-0.033143941313028336
1761315735453186000,5.75618603515625,0.4648270010948181,0.3674328029155731,-0.08794310688972473
1761315735463168000,5.76616796875,0.4698750376701355,0.35169699788093567,-0.14914840459823608
1761315735473150000,5.77614990234375,0.4691307842731476,0.3331139385700226,-0.20350347459316254
1761315735483133200,5.78613330078125,0.4775424003601074,0.32473617792129517,-0.27229559421539307
1761315735493115000,5.796114990234375,0.4996504783630371,0.31735295057296753,-0.3442029654979706
1761315735503097000,5.80609716796875,0.5203091502189636,0.33359983563423157,-0.4170673191547394
1761315735513079000,5.8160791015625,0.5521632432937622,0.36778080463409424,-0.48924505710601807
1761315735523062000,5.82606201171875,0.5947272181510925,0.4274420142173767,-0.5423218607902527
1761315735533044200,5.836044189453125,0.6443581581115723,0.4877728819847107,-0.5744587182998657
1761315735543026000,5.84602587890625,0.6849018335342407,0.5307706594467163,-0.5924350023269653
1761315735553008000,5.856008056640625,0.7353511452674866,0.5635661482810974,-0.5993124842643738
1761315735562990800,5.865990966796875,0.7790719866752625,0.5754214525222778,-0.6102561950683594
1761315735572973000,5.87597314453125,0.829895555973053,0.5714105367660522,-0.6219158172607422
1761315735582955000,5.885955078125,0.9068707823753357,0.5614721775054932,-0.636794924736023
1761315735592938000,5.89593798828125,0.9899803400039673,0.549321174621582,-0.6397503018379211
1761315735602920000,5.905919921875,1.0796575546264648,0.5247867703437805,-0.6363534331321716
1761315735612902000,5.91590185546875,1.1722133159637451,0.4947636127471924,-0.6190561056137085
1761315735622884000,5.925884033203125,1.2511365413665771,0.468414843082428,-0.587409496307373
1761315735632867000,5.9358671875,1.322832465171814,0.4481068253517151,-0.5419104099273682
1761315735642849000,5.94584912109375,1.3910496234893799,0.4478253126144409,-0.48657578229904175
1761315735652831000,5.9558310546875,1.4663374423980713,0.46741536259651184,-0.42917972803115845
1761315735662813000,5.96581298828125,1.5372576713562012,0.4987756907939911,-0.38639283180236816
1761315735672796000,5.9757958984375,1.6101492643356323,0.5184512734413147,-0.3551093637943268
1761315735682777900,5.98577783203125,1.6751631498336792,0.5457545518875122,-0.3339076638221741
1761315735692760000,5.995760009765625,1.734167218208313,0.5766878128051758,-0.32235902547836304
1761315735702743000,6.005742919921875,1.7884302139282227,0.592278778553009,-0.32058802247047424
1761315735712725000,6.01572509765625,1.8372262716293335,0.6000538468360901,-0.31693074107170105
1761315735722707000,6.02570703125,1.8732681274414062,0.6023017764091492,-0.30184444785118103
1761315735732689000,6.03568896484375,1.9030559062957764,0.5993120670318604,-0.2785017788410187
1761315735742672000,6.045671875,1.9251478910446167,0.5808409452438354,-0.24401411414146423
1761315735752654000,6.055654052734375,1.9475260972976685,0.5686227083206177,-0.20090892910957336
1761315735762636000,6.065635986328125,1.9846553802490234,0.5661464929580688,-0.1456877589225769
1761315735772618000,6.075617919921875,2.036220073699951,0.5652088522911072,-0.09978129714727402
1761315735782601000,6.08560107421875,2.0953519344329834,0.5755389332771301,-0.05471102520823479
1761315735792583000,6.0955830078125,2.160644769668579,0.5991374850273132,-0.016491645947098732
1761315735802565000,6.105565185546875,2.2215933799743652,0.614033579826355,0.0073668137192726135
1761315735812547000,6.115547119140625,2.2752180099487305,0.6075987815856934,0.019054342061281204
1761315735822530000,6.125530029296875,2.3267455101013184,0.6117458939552307,0.027795370668172836
1761315735832512000,6.135511962890625,2.372187852859497,0.6267330050468445,0.042129602283239365
1761315735842494000,6.145493896484375,2.409120798110962,0.663453221321106,0.07271653413772583
1761315735852477200,6.155477294921875,2.4408504962921143,0.6974397897720337,0.10612465441226959
1761315735862459000,6.165458984375,2.4711718559265137,0.7306321263313293,0.14324885606765747
1761315735872441000,6.175441162109375,2.5243282318115234,0.7583655118942261,0.19099238514900208
1761315735882423000,6.185423095703125,2.581932544708252,0.7737167477607727,0.23605653643608093
1761315735892406000,6.195406005859375,2.6485517024993896,0.7759796380996704,0.27425050735473633
1761315735902388000,6.205387939453125,2.714019536972046,0.77637779712677,0.28290924429893494
1761315735912370000,6.215369873046875,2.785247564315796,0.8038375377655029,0.28453612327575684
1761315735922352000,6.22535205078125,2.866835355758667,0.8609396815299988,0.27350902557373047
1761315735932334800,6.2353349609375,2.9544026851654053,0.9181123375892639,0.24431268870830536
1761315735942317000,6.245317138671875,3.019864559173584,0.8785499930381775,0.17814485728740692
1761315735952298800,6.255298828125,3.026798725128174,0.6117845773696899,0.059329837560653687
1761315735962282000,6.265281982421875,2.935666084289551,0.1315617710351944,-0.10950151830911636
1761315735972264000,6.275263916015625,2.751605272293091,-0.3283498287200928,-0.2671785354614258
1761315735982246000,6.285245849609375,2.575824499130249,-0.6143608093261719,-0.3245030641555786
1761315735992228000,6.29522802734375,2.4586846828460693,-0.6970685124397278,-0.24467338621616364
1761315736002211000,6.305211181640625,2.3842742443084717,-0.540518581867218,-0.029422590509057045
1761315736012193000,6.315193115234375,2.4119577407836914,-0.18084609508514404,0.2624453604221344
1761315736022175000,6.325175048828125,2.5486974716186523,0.32881155610084534,0.5924254059791565
1761315736032157000,6.335156982421875,2.775963306427002,0.8652397990226746,0.889127254486084
1761315736042140000,6.345139892578125,3.020874261856079,1.2990645170211792,1.081899881362915
1761315736052121900,6.355121826171875,3.2266013622283936,1.5301984548568726,1.1405832767486572
1761315736062104000,6.36510400390625,3.3777353763580322,1.6135282516479492,1.0745935440063477
1761315736072086000,6.3750859375,3.463395357131958,1.626071810722351,0.9100643396377563
1761315736082069000,6.385069091796875,3.4797446727752686,1.5561047792434692,0.6743921637535095
1761315736092051000,6.395051025390625,3.429973602294922,1.422731876373291,0.4065611958503723
1761315736102033000,6.405032958984375,3.3105862140655518,1.2742058038711548,0.1313498616218567
1761315736112015000,6.41501513671875,3.1475021839141846,1.1381028890609741,-0.09340057522058487
1761315736121998000,6.424998046875,2.9754135608673096,1.0226624011993408,-0.2563013434410095
1761315736131980000,6.43497998046875,2.8057148456573486,0.8947125673294067,-0.3564937114715576
1761315736141962000,6.4449619140625,2.6490585803985596,0.7397254109382629,-0.39209645986557007
1761315736151945000,6.454945068359375,2.5103986263275146,0.5615789890289307,-0.36468979716300964
1761315736161927000,6.464927001953125,2.3844499588012695,0.38796940445899963,-0.297193318605423
1761315736171908600,6.47490869140625,2.2586405277252197,0.2509687542915344,-0.20116762816905975
1761315736181890800,6.484890869140625,2.141299247741699,0.14999045431613922,-0.11565405875444412
1761315736191873800,6.494873779296875,2.034696340560913,0.1079561859369278,-0.05256936699151993
1761315736201855700,6.504855712890625,1.937576413154602,0.13253769278526306,-0.016627347096800804
1761315736211837700,6.514837646484375,1.8484305143356323,0.1980341374874115,0.006943493150174618
1761315736221819600,6.524819580078125,1.7814568281173706,0.3129223883152008,0.02329583466053009
1761315736231802600,6.534802734375,1.742896556854248,0.45036599040031433,0.0428750105202198
1761315736241784800,6.544784912109375,1.72415292263031,0.6052221059799194,0.05139046534895897
1761315736251766800,6.554766845703125,1.7081698179244995,0.7766609787940979,0.05401236191391945
1761315736261748700,6.564748779296875,1.6903756856918335,0.9439727663993835,0.034483667463064194
1761315736271731700,6.574731689453125,1.675972819328308,1.0846918821334839,-0.009566922672092915
1761315736281713700,6.584713623046875,1.6639372110366821,1.1885231733322144,-0.07512036710977554
1761315736291695600,6.594695556640625,1.660499930381775,1.2542362213134766,-0.15190517902374268
1761315736301678600,6.6046787109375,1.647486925125122,1.2905998229980469,-0.22501640021800995
1761315736311660800,6.614660888671875,1.6339247226715088,1.2973849773406982,-0.28880226612091064
1761315736321642800,6.624642822265625,1.6136550903320312,1.2667937278747559,-0.34230199456214905
1761315736331624700,6.634624755859375,1.586495280265808,1.2053847312927246,-0.3892574608325958
1761315736341608000,6.64460791015625,1.5557307004928589,1.0909758806228638,-0.42350226640701294
1761315736351589600,6.654589599609375,1.515242099761963,0.9532884955406189,-0.44103705883026123
1761315736361571800,6.66457177734375,1.476448893547058,0.82051020860672,-0.4340502619743347
1761315736371553500,6.674553466796875,1.4559038877487183,0.7173832058906555,-0.4085306227207184
1761315736381536800,6.684536865234375,1.4637531042099,0.6473116874694824,-0.38350436091423035
1761315736391518700,6.694518798828125,1.4747594594955444,0.6094570159912109,-0.3546588122844696
1761315736401500700,6.704500732421875,1.4949688911437988,0.607438862323761,-0.3213368058204651
1761315736411483000,6.71448291015625,1.5165703296661377,0.6200245022773743,-0.2793067395687103
1761315736421465600,6.724465576171875,1.5584917068481445,0.6861220598220825,-0.22759509086608887
1761315736431447800,6.73444775390625,1.6241146326065063,0.7563955783843994,-0.17604891955852509
1761315736441429500,6.744429443359375,1.7041653394699097,0.8301501870155334,-0.12769949436187744
1761315736451412700,6.754412841796875,1.7895591259002686,0.9317441582679749,-0.07420196384191513
1761315736461394700,6.764394775390625,1.862970232963562,1.0501874685287476,-0.025313517078757286
1761315736471376600,6.774376708984375,1.923353672027588,1.1573762893676758,0.007952658459544182
1761315736481358800,6.78435888671875,1.9663954973220825,1.2199374437332153,0.01930917799472809
1761315736491341600,6.794341552734375,2.004850387573242,1.2286388874053955,0.013222170062363148
1761315736501323800,6.80432373046875,2.030038833618164,1.1914129257202148,0.007281189784407616
1761315736511305700,6.8143056640625,2.041414499282837,1.1161679029464722,0.004847084172070026
1761315736521287700,6.82428759765625,2.0493245124816895,1.0178344249725342,0.024315323680639267
1761315736531270700,6.834270751953125,2.0600337982177734,0.9193800091743469,0.05770668759942055
1761315736541252600,6.844252685546875,2.0649945735931396,0.8317809700965881,0.10345260053873062
1761315736551234800,6.85423486328125,2.0592689514160156,0.7546157836914062,0.14545764029026031
1761315736561216500,6.864216552734375,2.0359930992126465,0.6852856874465942,0.1752277910709381
1761315736571199700,6.87419970703125,1.9966241121292114,0.6204221844673157,0.17605583369731903
1761315736581181700,6.884181640625,1.949902892112732,0.5293335318565369,0.17315244674682617
1761315736591163600,6.89416357421875,1.892963171005249,0.442076712846756,0.16110508143901825
1761315736601145900,6.904145751953125,1.822797179222107,0.3318988084793091,0.14931899309158325
1761315736611128800,6.91412890625,1.738706111907959,0.19191265106201172,0.1402161866426468
1761315736621110800,6.92411083984375,1.6434813737869263,0.07526540011167526,0.1554417461156845
1761315736631092700,6.9340927734375,1.556380033493042,0.011328330263495445,0.2035374641418457
1761315736641075700,6.94407568359375,1.4860153198242188,-0.015581047162413597,0.26510390639305115
1761315736651057700,6.9540576171875,1.406622290611267,-0.020210418850183487,0.32719090580940247
1761315736661039600,6.96403955078125,1.3345686197280884,0.010415402241051197,0.36457183957099915
1761315736671021800,6.974021728515625,1.2703392505645752,0.04241711646318436,0.36416465044021606
1761315736681004800,6.9840048828125,1.211245059967041,0.03117644414305687,0.31862857937812805
1761315736690986800,6.99398681640625,1.1265232563018799,-0.04085972160100937,0.23110567033290863
1761315736700968700,7.00396875,1.011458158493042,-0.1725762039422989,0.12570148706436157
1761315736710950700,7.01395068359375,0.8688803315162659,-0.3455777168273926,0.004581386689096689
1761315736720933600,7.02393359375,0.7255948185920715,-0.524779200553894,-0.10779575258493423
1761315736730915800,7.033915771484375,0.5847324728965759,-0.6625109314918518,-0.20674295723438263
1761315736740897500,7.0438974609375,0.4370303750038147,-0.7497251629829407,-0.2906378507614136
1761315736750879700,7.053879638671875,0.28779464960098267,-0.7900271415710449,-0.3578425943851471
1761315736760862500,7.063862548828125,0.1422949582338333,-0.7744860053062439,-0.40955212712287903
1761315736770844700,7.0738447265625,0.017691589891910553,-0.6868730187416077,-0.443970263004303
1761315736780827000,7.083826904296875,-0.08351465314626694,-0.5655477046966553,-0.474234402179718
1761315736790809600,7.0938095703125,-0.15883852541446686,-0.4242298901081085,-0.5045989155769348
1761315736800791800,7.103791748046875,-0.22041532397270203,-0.27070745825767517,-0.5502569675445557
1761315736810773500,7.1137734375,-0.2646229565143585,-0.16781389713287354,-0.5921404957771301
1761315736820755700,7.123755615234375,-0.28412872552871704,-0.1122283935546875,-0.611430287361145
1761315736830738700,7.13373876953125,-0.2820253074169159,-0.104647696018219,-0.5924179553985596
1761315736840720600,7.143720703125,-0.2481618970632553,-0.12767177820205688,-0.5000537037849426
1761315736850702800,7.153702880859375,-0.1794353872537613,-0.1425853669643402,-0.3380832076072693
1761315736860684500,7.1636845703125,-0.06395725160837173,-0.11160828173160553,-0.11235100775957108
1761315736870667800,7.173667724609375,0.08407118171453476,-0.0335916243493557,0.1485336422920227
1761315736880649700,7.183649658203125,0.24037262797355652,0.08128169924020767,0.41298553347587585
1761315736890631700,7.193631591796875,0.3749055564403534,0.18772855401039124,0.6453457474708557
1761315736900614000,7.20361376953125,0.45320942997932434,0.24276357889175415,0.804015040397644
1761315736910596600,7.2135966796875,0.46823397278785706,0.2126612812280655,0.8768782615661621
1761315736920578800,7.223578857421875,0.4489862620830536,0.12770777940750122,0.8859415650367737
1761315736930560500,7.233560546875,0.389486163854599,-0.02001044526696205,0.8399282097816467
1761315736940542700,7.243542724609375,0.31384626030921936,-0.200697660446167,0.7785625457763672
1761315736950525700,7.253525634765625,0.22814825177192688,-0.3299333155155182,0.7357122302055359
1761315736960507600,7.263507568359375,0.15913109481334686,-0.38800248503685,0.7290428876876831
1761315736970489900,7.27348974609375,0.11561253666877747,-0.3966820240020752,0.7509944438934326
1761315736980472800,7.283472900390625,0.09429791569709778,-0.36924266815185547,0.7788798213005066
1761315736990454800,7.293454833984375,0.09163214266300201,-0.3156052827835083,0.7723264098167419
1761315737000436700,7.303436767578125,0.09908659756183624,-0.2814723253250122,0.711803138256073
1761315737010418700,7.313418701171875,0.11074934154748917,-0.2720855474472046,0.6039782166481018
1761315737020401700,7.323401611328125,0.12137535214424133,-0.2596198320388794,0.48697492480278015
1761315737030383600,7.333383544921875,0.11072061955928802,-0.2345331758260727,0.38743481040000916
1761315737040365600,7.343365478515625,0.08044074475765228,-0.18265852332115173,0.3229852616786957
1761315737050347800,7.35334765625,0.05071529000997543,-0.11937545239925385,0.28155648708343506
1761315737060330800,7.363330810546875,0.02830292284488678,-0.06690984219312668,0.25425803661346436
1761315737070312700,7.373312744140625,-0.006375184282660484,-0.024283764883875847,0.21371152997016907
1761315737080294700,7.383294677734375,-0.04244024679064751,0.01680082082748413,0.16541936993598938
1761315737090276600,7.393276611328125,-0.08103304356336594,0.040237803012132645,0.09955521672964096
1761315737100259800,7.403259765625,-0.11057282239198685,0.057698287069797516,0.017928797751665115
1761315737110241500,7.413241455078125,-0.1231909915804863,0.07952586561441422,-0.05855397507548332
1761315737120223700,7.4232236328125,-0.10668844729661942,0.1082770824432373,-0.12640759348869324
1761315737130206500,7.43320654296875,-0.07047482579946518,0.12501183152198792,-0.17482616007328033
1761315737140188700,7.443188720703125,-0.02210463210940361,0.12568321824073792,-0.19743585586547852
1761315737150171000,7.4531708984375,0.03680507093667984,0.1061512753367424,-0.20319625735282898
1761315737160152600,7.463152587890625,0.09851796925067902,0.07792229950428009,-0.19645951688289642
1761315737170136300,7.47313623046875,0.15151949226856232,0.0565626434981823,-0.17334367334842682
1761315737180118000,7.483117919921875,0.19684410095214844,0.03509197011590004,-0.1572730988264084
1761315737190100200,7.493100341796875,0.22421887516975403,0.016784576699137688,-0.146159827709198
1761315737200082200,7.503082275390625,0.24429777264595032,0.005881061777472496,-0.14081965386867523
1761315737210065200,7.513065185546875,0.2654617130756378,-0.0013503381051123142,-0.14143091440200806
1761315737220047000,7.523047119140625,0.2936411499977112,0.01024266704916954,-0.14532499015331268
1761315737230029000,7.533029052734375,0.3198396861553192,0.019192542880773544,-0.1611519157886505
1761315737240011300,7.54301123046875,0.3422161042690277,0.02620331570506096,-0.18723064661026
1761315737249994000,7.552993896484375,0.36102381348609924,0.017396165058016777,-0.20793473720550537
1761315737259976200,7.56297607421875,0.3715323805809021,0.007577888667583466,-0.21336331963539124
1761315737269958100,7.572958251953125,0.3771416246891022,-0.013279436156153679,-0.20895296335220337
1761315737279940000,7.582940185546875,0.38245251774787903,-0.017710136249661446,-0.18497519195079803
1761315737289923000,7.592923095703125,0.3806617558002472,-0.0006526671350002289,-0.16256563365459442
1761315737299905000,7.602905029296875,0.3652958571910858,0.014369426295161247,-0.15070204436779022
1761315737309887200,7.61288720703125,0.33765074610710144,0.03720013052225113,-0.1569141000509262
1761315737319869000,7.622868896484375,0.3026677370071411,0.06754978001117706,-0.1721697598695755
1761315737329852200,7.63285205078125,0.26448357105255127,0.06534107774496078,-0.19574889540672302
1761315737339834000,7.642834228515625,0.22021730244159698,0.03819308429956436,-0.21544776856899261
1761315737349816000,7.652816162109375,0.19312578439712524,0.018684236332774162,-0.2175913006067276
1761315737359799000,7.662799072265625,0.17703603208065033,0.03757776692509651,-0.1998937875032425
1761315737369781000,7.672781005859375,0.17278851568698883,0.08325017243623734,-0.16901028156280518
1761315737379763200,7.68276318359375,0.1756434142589569,0.1534433662891388,-0.1284085214138031
1761315737389745000,7.692744873046875,0.18226882815361023,0.24472974240779877,-0.07656935602426529
1761315737399728000,7.70272802734375,0.19436010718345642,0.33317384123802185,-0.014996802434325218
1761315737409710000,7.7127099609375,0.2101866453886032,0.4198300242424011,0.03439731523394585
1761315737419692000,7.722692138671875,0.21676252782344818,0.48928046226501465,0.06845035403966904
1761315737429674200,7.73267431640625,0.21490703523159027,0.5318920612335205,0.07338038831949234
1761315737439657200,7.7426572265625,0.1985464245080948,0.5423580408096313,0.06721144169569016
1761315737449639200,7.75263916015625,0.18876437842845917,0.5328827500343323,0.05639840289950371
1761315737459621000,7.76262109375,0.1871774047613144,0.5248682498931885,0.049950357526540756
1761315737469603000,7.77260302734375,0.18360167741775513,0.5251570343971252,0.043014880269765854
1761315737479586000,7.7825859375,0.1755133867263794,0.502090334892273,0.02433813363313675
1761315737489568000,7.792568115234375,0.14872503280639648,0.45222926139831543,0.0034151258878409863
1761315737499550200,7.80255029296875,0.10526357591152191,0.40083932876586914,-0.01989898644387722
1761315737509532200,7.8125322265625,0.05621569603681564,0.36353206634521484,-0.039380744099617004
1761315737519515100,7.82251513671875,0.01181174349039793,0.36385059356689453,-0.06445733457803726
1761315737529497000,7.8324970703125,-0.01222168654203415,0.3875058591365814,-0.10558053851127625
1761315737539479000,7.84247900390625,-0.02630634605884552,0.4212401211261749,-0.16105391085147858
1761315737549461200,7.852461181640625,-0.028967000544071198,0.455007404088974,-0.2248745858669281
1761315737559444200,7.8624443359375,-0.03463846817612648,0.4712145924568176,-0.2936142385005951
1761315737569426200,7.87242626953125,-0.03303750976920128,0.4777164161205292,-0.34116846323013306
1761315737579408100,7.882408203125,-0.010157229378819466,0.5055983662605286,-0.37029731273651123
1761315737589391000,7.89239111328125,0.027296721935272217,0.5237652063369751,-0.3878988027572632
1761315737599373000,7.902373046875,0.07229215651750565,0.5214871168136597,-0.3903137743473053
1761315737609355300,7.912355224609375,0.09223306179046631,0.5336254239082336,-0.3928474187850952
1761315737619337000,7.9223369140625,0.09210602939128876,0.562589168548584,-0.40009814500808716
1761315737629320200,7.9323203125,0.07237299531698227,0.5951510667800903,-0.4142448306083679
1761315737639302000,7.942302001953125,0.044289156794548035,0.6327921748161316,-0.42801204323768616
1761315737649284000,7.9522841796875,0.009759511798620224,0.673376739025116,-0.43156635761260986
1761315737659266000,7.96226611328125,-0.03136768192052841,0.6971496939659119,-0.43646445870399475
1761315737669249000,7.9722490234375,-0.0654255673289299,0.7005354166030884,-0.4454689025878906
1761315737679231200,7.982231201171875,-0.07611629366874695,0.6847402453422546,-0.4469871520996094
1761315737689213000,7.992212890625,-0.06972222775220871,0.6541894674301147,-0.4587422311306
1761315737699195100,8.002195068359375,-0.0573292002081871,0.5907942652702332,-0.46586111187934875
1761315737709178000,8.01217822265625,-0.04883955791592598,0.4964122474193573,-0.4563405215740204
1761315737719160000,8.02216015625,-0.0405358225107193,0.3933124840259552,-0.4145030677318573
1761315737729142300,8.032142333984375,-0.03458409383893013,0.3354455530643463,-0.3397026062011719
1761315737739124000,8.0421240234375,-0.01175441313534975,0.3374634385108948,-0.23249545693397522
1761315737749107200,8.052107177734374,0.0280279740691185,0.40935567021369934,-0.1087680533528328
1761315737759089000,8.0620888671875,0.10623223334550858,0.5290525555610657,0.020861847326159477
1761315737769071000,8.072071044921875,0.2080041766166687,0.6880961656570435,0.14646880328655243
1761315737779053300,8.08205322265625,0.3055051565170288,0.8614543676376343,0.2516500949859619
1761315737789036000,8.0920361328125,0.3937642574310303,0.9698122143745422,0.32381361722946167
1761315737799018200,8.102018310546875,0.4789239168167114,0.9829900860786438,0.3552248179912567
1761315737809000000,8.112,0.5615023374557495,0.8937733173370361,0.3661902844905853
1761315737818982100,8.121982177734376,0.6236368417739868,0.7376369833946228,0.3638001084327698
1761315737828965000,8.131965087890626,0.6541671752929688,0.5674508213996887,0.3517272472381592
1761315737838947000,8.141947021484375,0.6414915919303894,0.39171919226646423,0.32063695788383484
1761315737848929300,8.15192919921875,0.609113335609436,0.23506712913513184,0.27524518966674805
1761315737858911000,8.161910888671875,0.5523874759674072,0.15225453674793243,0.2207617163658142
1761315737868894200,8.171894287109374,0.4818510115146637,0.14256875216960907,0.1817644089460373
1761315737878876200,8.181876220703124,0.4111286401748657,0.1485922932624817,0.14137651026248932
1761315737888858000,8.191858154296876,0.3492100238800049,0.15837717056274414,0.10072076320648193
1761315737898841000,8.201841064453125,0.3051925003528595,0.19500496983528137,0.033380333334207535
1761315737908823000,8.211822998046875,0.2868201434612274,0.23941124975681305,-0.06604423373937607
1761315737918805200,8.22180517578125,0.2783491611480713,0.25692951679229736,-0.19369593262672424
1761315737928787000,8.231786865234374,0.27756282687187195,0.2718490958213806,-0.3031354248523712
1761315737938770200,8.241770263671874,0.2894243001937866,0.30082884430885315,-0.3818179965019226
1761315737948752100,8.251752197265626,0.3147273361682892,0.30851539969444275,-0.4320899546146393
1761315737958734000,8.261734130859375,0.351583331823349,0.2852476239204407,-0.44462519884109497
1761315737968716000,8.271716064453125,0.39919233322143555,0.2603946030139923,-0.4032661020755768
1761315737978699300,8.28169921875,0.4166187047958374,0.38173434138298035,-0.024322235956788063
1761315737988681000,8.291680908203125,0.46219709515571594,0.10856416076421738,0.08534363657236099
1761315737998663200,8.3016630859375,0.5313535332679749,0.007882288657128811,0.1887424737215042
1761315738008645000,8.31164501953125,0.5752736926078796,-0.004629327915608883,0.21468566358089447
1761315738018628000,8.321628173828126,0.5599410533905029,-0.06894413381814957,0.19313855469226837
1761315738028610300,8.3316103515625,0.5174105763435364,-0.14871834218502045,0.1384362280368805
1761315738038592000,8.341592041015625,0.4865800142288208,-0.19762730598449707,0.058564286679029465
1761315738048574200,8.35157421875,0.4527624845504761,-0.21740970015525818,-0.05091647058725357
1761315738058557000,8.361556884765625,0.3838808834552765,-0.21872557699680328,-0.13745428621768951
1761315738068539100,8.3715390625,0.29934927821159363,-0.19185179471969604,-0.15189652144908905
1761315738078521000,8.38152099609375,0.20923110842704773,-0.17016620934009552,-0.12817254662513733
